Trigger_Date,2023/07/06
Trigger_Time,T 10:53:56.963 PDT
Samples_Per_Cycle,512
Microseconds_Per_Sample,32.555
Time (ms),Voltage (V),Current (A)
-16.67,-0.281,-0.069
-16.64,1.158,1.065
-16.6,6.001,1.627
-16.57,8.879,1.214
-16.54,12.213,2.005
-16.51,19.057,2.028
-16.47,22.672,1.73
-16.44,25.058,2.051
-16.41,27.866,2.646
-16.37,30.743,3.093
-16.34,33.27,3.597
-16.31,35.867,4.25
-16.28,37.833,5.327
-16.24,40.254,6.598
-16.21,42.535,7.744
-16.18,44.395,9.05
-16.15,45.448,10.768
-16.11,48.958,12.498
-16.08,57.17,12.635
-16.05,62.434,12.166
-16.02,67.278,12.418
-15.98,72.647,12.326
-15.95,74.402,12.292
-15.92,76.683,12.578
-15.89,79.842,12.704
-15.85,82.439,13.105
-15.82,85.843,13.609
-15.79,89.282,14.056
-15.76,92.16,14.652
-15.72,95.529,15.316
-15.69,98.969,15.843
-15.66,102.408,16.29
-15.63,105.707,16.805
-15.59,109.357,17.412
-15.56,112.971,17.962
-15.53,116.481,18.432
-15.5,119.604,18.89
-15.46,122.728,19.406
-15.43,125.711,19.887
-15.4,129.536,20.368
-15.37,132.73,20.723
-15.33,135.854,21.365
-15.3,139.258,21.892
-15.27,142.732,22.384
-15.24,145.154,22.636
-15.2,147.47,23.14
-15.17,150.523,23.472
-15.14,153.401,23.873
-15.11,156.595,24.263
-15.07,159.367,24.733
-15.04,161.964,25.237
-15.01,164.561,25.718
-14.98,167.58,26.05
-14.94,170.212,26.416
-14.91,172.844,26.863
-14.88,175.546,27.299
-14.84,178.214,27.7
-14.81,180.916,28.1
-14.78,183.759,28.616
-14.75,186.812,29.131
-14.71,189.619,29.487
-14.68,191.725,29.819
-14.65,193.936,30.174
-14.62,196.077,30.506
-14.58,198.709,30.85
-14.55,201.306,31.125
-14.52,203.307,31.491
-14.49,205.237,31.915
-14.45,207.202,32.167
-14.42,208.817,32.328
-14.39,210.606,32.602
-14.36,212.466,32.9
-14.32,214.713,33.29
-14.29,217.064,33.611
-14.26,218.959,33.954
-14.23,220.995,34.412
-14.19,223.135,34.745
-14.16,224.68,34.939
-14.13,226.505,35.191
-14.1,228.365,35.432
-14.06,230.435,35.856
-14.03,232.822,36.177
-14.0,234.612,36.474
-13.97,236.366,36.864
-13.93,238.437,37.208
-13.9,239.841,37.425
-13.87,242.052,37.746
-13.84,244.122,37.929
-13.8,245.526,38.342
-13.77,247.211,38.559
-13.74,248.544,38.697
-13.71,250.194,38.914
-13.67,251.492,39.121
-13.64,252.826,39.373
-13.61,254.019,39.499
-13.58,255.072,39.659
-13.54,256.581,39.9
-13.51,258.195,40.175
-13.48,259.775,40.472
-13.45,261.354,40.702
-13.41,262.196,40.896
-13.38,263.109,41.103
-13.35,264.197,41.206
-13.31,265.53,41.309
-13.28,267.039,41.492
-13.25,268.373,41.801
-13.22,269.707,42.088
-13.18,271.04,42.317
-13.15,272.409,42.466
-13.12,273.322,42.638
-13.09,274.339,42.809
-13.05,275.217,42.878
-13.02,276.305,43.004
-12.99,277.463,43.165
-12.96,278.551,43.382
-12.92,279.604,43.543
-12.89,280.411,43.657
-12.86,281.078,43.726
-12.83,281.534,43.783
-12.79,281.815,43.795
-12.76,282.306,43.795
-12.73,282.903,43.829
-12.7,283.534,43.921
-12.66,283.955,44.024
-12.63,284.271,44.069
-12.6,284.447,44.035
-12.57,284.341,43.966
-12.53,284.061,43.921
-12.5,284.201,43.886
-12.47,284.622,43.852
-12.44,284.798,43.886
-12.4,284.727,43.909
-12.37,284.412,43.886
-12.34,284.306,43.795
-12.31,284.026,43.68
-12.27,283.64,43.588
-12.24,283.464,43.543
-12.21,284.096,43.623
-12.18,284.096,43.531
-12.14,283.218,43.577
-12.11,283.043,43.439
-12.08,282.306,43.256
-12.05,281.92,43.084
-12.01,280.937,42.821
-11.98,279.955,42.683
-11.95,279.568,42.546
-11.91,278.972,42.386
-11.88,277.989,42.237
-11.85,276.62,42.03
-11.82,274.936,41.733
-11.78,273.497,41.366
-11.75,272.198,41.011
-11.72,271.111,40.839
-11.69,270.374,40.77
-11.65,269.25,40.621
-11.62,267.917,40.415
-11.59,266.478,40.117
-11.56,264.618,39.819
-11.52,263.039,39.487
-11.49,261.635,39.132
-11.46,260.266,38.869
-11.43,258.932,38.662
-11.39,257.353,38.479
-11.36,255.844,38.239
-11.33,254.581,37.918
-11.3,252.826,37.654
-11.26,251.282,37.494
-11.23,250.053,37.242
-11.2,248.755,36.933
-11.17,247.0,36.669
-11.13,245.561,36.463
-11.1,243.877,36.165
-11.07,242.473,35.902
-11.04,240.543,35.443
-11.0,238.507,35.237
-10.97,237.595,34.962
-10.94,235.664,34.664
-10.91,234.05,34.401
-10.87,231.979,34.034
-10.84,229.733,33.794
-10.81,228.049,33.427
-10.78,225.943,32.958
-10.74,223.521,32.58
-10.71,221.416,32.27
-10.68,219.345,31.904
-10.65,217.274,31.491
-10.61,215.239,31.159
-10.58,213.203,30.896
-10.55,210.957,30.575
-10.52,208.501,30.174
-10.48,206.079,29.727
-10.45,203.693,29.361
-10.42,201.517,29.051
-10.38,199.586,28.696
-10.35,197.586,28.341
-10.32,195.375,28.055
-10.29,192.848,27.711
-10.25,190.076,27.264
-10.22,187.479,26.749
-10.19,184.706,26.256
-10.16,182.074,25.901
-10.12,179.828,25.466
-10.09,177.161,24.973
-10.06,174.142,24.595
-10.03,171.194,24.171
-9.99,168.176,23.736
-9.96,165.404,23.22
-9.93,162.456,22.682
-9.9,159.438,22.315
-9.86,156.876,21.96
-9.83,153.857,21.456
-9.8,150.664,20.964
-9.77,147.119,20.437
-9.73,143.75,19.978
-9.7,140.697,19.417
-9.67,137.889,18.913
-9.64,134.731,18.421
-9.6,131.256,18.065
-9.57,128.448,17.676
-9.54,125.571,17.149
-9.51,122.482,16.725
-9.47,119.92,16.427
-9.44,116.762,15.935
-9.41,113.077,15.454
-9.38,110.374,14.915
-9.34,107.426,14.48
-9.31,104.584,14.148
-9.28,101.601,13.655
-9.25,98.021,13.094
-9.21,94.055,12.555
-9.18,90.335,12.005
-9.15,86.615,11.364
-9.12,83.105,10.745
-9.08,79.912,10.23
-9.05,76.367,9.829
-9.02,73.033,9.416
-8.99,69.734,8.878
-8.95,66.014,8.363
-8.92,62.61,7.973
-8.89,59.767,7.526
-8.85,56.644,7.045
-8.82,53.52,6.61
-8.79,50.291,6.22
-8.76,46.992,5.808
-8.72,43.658,5.292
-8.69,40.254,4.697
-8.66,36.78,4.284
-8.63,35.832,4.261
-8.59,33.025,3.505
-8.56,26.286,2.956
-8.53,22.426,2.474
-8.5,18.565,1.604
-8.46,15.898,1.306
-8.43,15.021,0.55
-8.4,11.125,0.137
-8.37,6.036,0.137
-8.33,0.597,0.023
-8.3,-0.912,-1.054
-8.27,-5.685,-1.569
-8.24,-8.914,-1.352
-8.2,-13.161,-2.062
-8.17,-19.443,-1.867
-8.14,-22.566,-1.741
-8.11,-25.233,-2.142
-8.07,-28.006,-2.692
-8.04,-30.708,-3.116
-8.01,-33.27,-3.574
-7.98,-35.516,-4.284
-7.94,-37.447,-5.384
-7.91,-39.938,-6.575
-7.88,-42.29,-7.698
-7.85,-44.22,-9.016
-7.81,-45.483,-10.825
-7.78,-49.203,-12.567
-7.75,-56.995,-12.67
-7.72,-62.575,-12.326
-7.68,-68.19,-12.544
-7.65,-72.998,-12.452
-7.62,-75.209,-12.532
-7.59,-77.771,-12.75
-7.55,-80.719,-12.945
-7.52,-83.562,-13.357
-7.49,-87.282,-13.838
-7.45,-90.616,-14.297
-7.42,-93.599,-14.927
-7.39,-96.687,-15.522
-7.36,-99.951,-15.992
-7.32,-103.11,-16.393
-7.29,-106.374,-16.885
-7.26,-109.778,-17.447
-7.23,-113.393,-17.985
-7.19,-116.762,-18.398
-7.16,-119.71,-18.879
-7.13,-122.693,-19.417
-7.1,-125.851,-19.864
-7.06,-129.115,-20.265
-7.03,-132.344,-20.7
-7.0,-135.503,-21.25
-6.97,-139.012,-21.869
-6.93,-142.522,-22.327
-6.9,-144.803,-22.636
-6.87,-147.014,-23.106
-6.84,-150.137,-23.484
-6.8,-153.401,-23.862
-6.77,-156.7,-24.309
-6.74,-160.104,-24.927
-6.71,-163.263,-25.546
-6.67,-166.035,-26.073
-6.64,-169.124,-26.451
-6.61,-171.581,-26.737
-6.58,-174.002,-27.184
-6.54,-176.81,-27.528
-6.51,-179.442,-27.86
-6.48,-182.565,-28.318
-6.45,-185.373,-28.857
-6.41,-188.356,-29.349
-6.38,-191.023,-29.693
-6.35,-193.129,-30.025
-6.32,-195.235,-30.403
-6.28,-197.832,-30.793
-6.25,-200.955,-31.216
-6.22,-204.605,-31.732
-6.19,-207.658,-32.293
-6.15,-209.975,-32.843
-6.12,-211.589,-33.072
-6.09,-212.817,-33.187
-6.06,-214.326,-33.244
-6.02,-215.906,-33.404
-5.99,-217.906,-33.622
-5.96,-219.801,-33.84
-5.92,-221.346,-34.138
-5.89,-222.855,-34.538
-5.86,-224.644,-34.836
-5.83,-226.469,-35.077
-5.79,-228.259,-35.34
-5.76,-229.839,-35.695
-5.73,-231.979,-36.051
-5.7,-233.032,-36.165
-5.66,-234.401,-36.486
-5.63,-236.752,-36.704
-5.6,-238.156,-37.013
-5.57,-238.998,-37.139
-5.53,-239.7,-37.231
-5.5,-241.069,-37.345
-5.47,-242.262,-37.551
-5.44,-244.157,-37.861
-5.4,-245.702,-38.032
-5.37,-246.825,-38.342
-5.34,-248.193,-38.651
-5.31,-249.352,-38.834
-5.27,-250.58,-38.983
-5.24,-251.949,-39.132
-5.21,-253.423,-39.441
-5.18,-255.318,-39.751
-5.14,-257.072,-40.06
-5.11,-258.968,-40.427
-5.08,-260.652,-40.724
-5.05,-261.74,-40.988
-5.01,-263.039,-41.137
-4.98,-264.372,-41.217
-4.95,-265.811,-41.446
-4.92,-267.39,-41.698
-4.88,-268.9,-41.95
-4.85,-270.303,-42.122
-4.82,-271.532,-42.351
-4.79,-272.83,-42.615
-4.75,-274.059,-42.786
-4.72,-275.182,-42.89
-4.69,-276.199,-43.027
-4.66,-277.217,-43.176
-4.62,-278.13,-43.302
-4.59,-279.112,-43.405
-4.56,-279.99,-43.52
-4.53,-280.762,-43.646
-4.49,-281.323,-43.726
-4.46,-281.85,-43.772
-4.43,-282.271,-43.772
-4.39,-282.832,-43.84
-4.36,-283.218,-43.886
-4.33,-283.64,-43.943
-4.3,-283.85,-43.921
-4.26,-284.096,-43.932
-4.23,-284.271,-43.943
-4.2,-284.061,-43.886
-4.17,-283.92,-43.829
-4.13,-284.306,-43.817
-4.1,-284.482,-43.817
-4.07,-284.587,-43.898
-4.04,-284.517,-43.84
-4.0,-284.938,-43.932
-3.97,-284.798,-43.749
-3.94,-283.078,-43.6
-3.91,-282.727,-43.405
-3.87,-282.657,-43.176
-3.84,-282.516,-43.176
-3.81,-282.095,-43.096
-3.78,-280.2,-42.809
-3.74,-277.673,-42.34
-3.71,-275.357,-41.767
-3.68,-273.708,-41.32
-3.65,-273.041,-41.148
-3.61,-273.111,-41.148
-3.58,-272.83,-41.286
-3.55,-272.444,-41.549
-3.52,-272.549,-41.641
-3.48,-272.514,-41.629
-3.45,-272.76,-41.629
-3.42,-272.76,-41.641
-3.39,-272.865,-41.698
-3.35,-273.111,-41.618
-3.32,-272.69,-41.446
-3.29,-271.848,-41.286
-3.26,-270.654,-41.022
-3.22,-269.005,-40.621
-3.19,-267.355,-40.152
-3.16,-265.706,-39.716
-3.13,-264.056,-39.441
-3.09,-262.407,-39.121
-3.06,-260.336,-38.777
-3.03,-258.476,-38.41
-3.0,-256.23,-38.032
-2.96,-253.949,-37.712
-2.93,-252.264,-37.379
-2.9,-250.545,-36.99
-2.86,-248.474,-36.772
-2.83,-246.965,-36.6
-2.8,-244.894,-36.211
-2.77,-242.613,-35.879
-2.73,-240.894,-35.466
-2.7,-238.718,-35.111
-2.67,-236.787,-34.825
-2.64,-235.419,-34.516
-2.6,-233.734,-34.229
-2.57,-231.628,-34.069
-2.54,-229.979,-33.851
-2.51,-228.4,-33.507
-2.47,-226.329,-33.118
-2.44,-224.364,-32.866
-2.41,-222.083,-32.431
-2.38,-219.801,-32.087
-2.34,-218.678,-31.732
-2.31,-216.678,-31.423
-2.28,-214.783,-31.285
-2.25,-213.063,-30.941
-2.21,-210.957,-30.563
-2.18,-208.711,-30.231
-2.15,-206.465,-29.91
-2.12,-204.254,-29.544
-2.08,-202.219,-29.109
-2.05,-200.148,-28.696
-2.02,-197.691,-28.421
-1.99,-195.41,-28.089
-1.95,-193.129,-27.642
-1.92,-190.462,-27.138
-1.89,-187.373,-26.737
-1.86,-184.32,-26.29
-1.82,-181.793,-25.764
-1.79,-179.547,-25.237
-1.76,-176.669,-24.87
-1.73,-173.897,-24.607
-1.69,-171.23,-24.16
-1.66,-168.071,-23.633
-1.63,-164.948,-23.175
-1.6,-161.929,-22.728
-1.56,-159.157,-22.304
-1.53,-156.876,-21.846
-1.5,-154.173,-21.422
-1.46,-150.804,-21.055
-1.43,-147.33,-20.586
-1.4,-143.82,-19.933
-1.37,-140.451,-19.337
-1.33,-137.433,-18.867
-1.3,-134.309,-18.421
-1.27,-131.396,-18.02
-1.24,-128.554,-17.504
-1.2,-124.658,-17.046
-1.17,-121.324,-16.702
-1.14,-118.657,-16.141
-1.11,-115.428,-15.591
-1.07,-112.129,-15.156
-1.04,-109.111,-14.789
-1.01,-106.689,-14.445
-0.98,-104.268,-14.033
-0.94,-101.285,-13.655
-0.91,-97.845,-13.231
-0.88,-94.055,-12.727
-0.85,-90.581,-12.028
-0.81,-86.931,-11.387
-0.78,-83.527,-10.883
-0.75,-80.122,-10.39
-0.72,-76.718,-9.886
-0.68,-73.524,-9.382
-0.65,-70.05,-8.947
-0.62,-66.505,-8.569
-0.59,-63.487,-8.076
-0.55,-60.118,-7.515
-0.52,-56.609,-7.068
-0.49,-53.38,-6.656
-0.46,-50.011,-6.14
-0.42,-46.642,-5.636
-0.39,-43.272,-5.098
-0.36,-39.342,-4.628
-0.33,-36.043,-4.181
-0.29,-34.464,-3.987
-0.26,-32.288,-3.379
-0.23,-26.216,-2.933
-0.2,-22.285,-2.543
-0.16,-18.706,-1.661
-0.13,-16.6,-0.997
-0.1,-13.722,-0.447
-0.07,-9.16,-0.126
-0.03,-2.843,0.046
0.0,0.421,0.561
0.03,3.896,1.661
0.07,8.318,1.249
0.1,9.862,1.524
0.13,15.477,1.821
0.16,19.057,1.592
0.2,21.759,2.016
0.23,25.444,2.406
0.26,29.059,2.532
0.29,31.48,2.944
0.33,33.797,3.712
0.36,35.516,4.582
0.39,37.271,5.407
0.42,39.236,6.266
0.46,40.956,7.446
0.49,42.851,8.993
0.52,45.097,10.47
0.55,47.8,11.983
0.59,55.135,12.59
0.62,62.575,12.429
0.65,68.576,12.624
0.68,73.56,12.67
0.72,75.279,12.67
0.75,76.753,12.842
0.78,80.298,12.979
0.81,84.193,13.197
0.85,87.563,13.758
0.88,91.037,14.445
0.91,94.055,15.053
0.94,97.073,15.557
0.98,100.197,15.958
1.01,103.145,16.45
1.04,106.654,16.966
1.07,110.339,17.412
1.11,113.744,17.894
1.14,116.937,18.478
1.17,119.991,19.016
1.2,123.149,19.44
1.24,126.378,19.795
1.27,129.256,20.253
1.3,132.59,20.826
1.33,136.24,21.307
1.37,139.609,21.8
1.4,142.557,22.327
1.43,145.329,22.808
1.46,147.997,23.243
1.5,151.541,23.633
1.53,154.98,24.057
1.56,157.893,24.629
1.6,160.631,25.099
1.63,163.579,25.592
1.66,167.018,25.947
1.69,169.334,26.371
1.73,171.756,26.817
1.76,174.178,27.012
1.79,176.143,27.276
1.82,178.6,27.677
1.86,181.372,28.123
1.89,184.145,28.582
1.92,187.093,28.971
1.95,189.409,29.349
1.99,191.409,29.807
2.02,193.761,30.128
2.05,196.042,30.369
2.08,198.499,30.724
2.12,200.815,31.125
2.15,202.956,31.503
2.18,205.167,31.789
2.21,207.132,32.03
2.25,208.606,32.35
2.28,210.501,32.648
2.31,212.466,32.889
2.34,214.677,33.221
2.38,216.853,33.588
2.41,218.819,34.023
2.44,221.1,34.401
2.47,223.346,34.63
2.51,224.504,34.882
2.54,226.259,35.26
2.57,228.435,35.432
2.6,230.47,35.741
2.64,232.541,36.074
2.67,234.225,36.44
2.7,235.945,36.772
2.73,237.981,37.047
2.77,239.314,37.185
2.8,240.894,37.563
2.83,243.14,37.792
2.86,244.649,38.032
2.9,246.333,38.273
2.93,247.491,38.525
2.96,249.352,38.892
3.0,251.247,39.052
3.03,252.299,39.247
3.06,253.598,39.487
3.09,254.932,39.671
3.13,256.406,39.923
3.16,258.406,40.186
3.19,260.056,40.472
3.22,261.424,40.793
3.26,262.442,40.976
3.29,263.425,41.057
3.32,264.548,41.148
3.35,265.741,41.355
3.39,267.215,41.595
3.42,268.619,41.79
3.45,270.058,42.007
3.48,271.251,42.294
3.52,272.62,42.546
3.55,273.637,42.672
3.58,274.69,42.764
3.61,275.357,42.855
3.65,276.375,43.004
3.68,277.463,43.13
3.71,278.691,43.291
3.74,279.639,43.451
3.78,280.446,43.611
3.81,280.797,43.669
3.84,281.183,43.68
3.87,281.499,43.611
3.91,281.885,43.646
3.94,282.552,43.714
3.97,283.183,43.817
4.0,283.815,43.909
4.04,284.201,43.989
4.07,284.377,44.069
4.1,284.412,44.024
4.13,284.201,43.875
4.17,283.815,43.783
4.2,284.096,43.737
4.23,284.341,43.737
4.26,284.587,43.806
4.3,284.552,43.795
4.33,284.412,43.829
4.36,284.341,43.783
4.39,284.061,43.669
4.43,283.745,43.588
4.46,284.377,43.646
4.49,284.447,43.588
4.53,283.745,43.6
4.56,283.534,43.439
4.59,282.727,43.256
4.62,281.85,43.038
4.66,280.586,42.741
4.69,279.639,42.5
4.72,279.147,42.305
4.75,278.34,42.191
4.79,277.428,42.111
4.82,276.234,41.859
4.85,274.585,41.549
4.88,273.216,41.286
4.92,271.777,41.011
4.95,270.724,40.805
4.98,269.987,40.576
5.01,268.689,40.415
5.05,267.39,40.312
5.08,266.267,40.083
5.11,264.548,39.739
5.14,263.004,39.43
5.18,261.565,39.144
5.21,260.196,38.892
5.24,258.862,38.617
5.27,257.494,38.365
5.31,255.879,38.158
5.34,254.37,37.929
5.37,252.791,37.631
5.4,251.317,37.311
5.44,249.738,37.105
5.47,248.404,36.933
5.5,246.754,36.6
5.53,245.28,36.348
5.57,243.806,35.993
5.6,241.56,35.718
5.63,239.63,35.363
5.66,237.7,34.917
5.7,236.261,34.653
5.73,234.717,34.412
5.76,232.822,34.218
5.79,230.821,33.84
5.83,228.856,33.53
5.86,227.277,33.255
5.89,225.206,32.946
5.92,223.135,32.58
5.96,220.995,32.121
5.99,218.819,31.789
6.02,217.029,31.526
6.06,215.274,31.182
6.09,213.309,30.85
6.12,211.028,30.518
6.15,208.536,30.22
6.19,206.149,29.807
6.22,203.798,29.292
6.25,201.376,28.902
6.28,199.376,28.616
6.32,197.235,28.318
6.35,195.235,27.986
6.38,192.953,27.562
6.41,189.97,27.173
6.45,187.198,26.783
6.48,184.671,26.268
6.51,182.144,25.741
6.54,179.582,25.351
6.58,176.88,25.007
6.61,174.283,24.629
6.64,171.44,24.114
6.67,168.246,23.679
6.71,165.369,23.278
6.74,162.526,22.774
6.77,159.613,22.247
6.8,156.946,21.834
6.84,154.033,21.479
6.87,150.839,21.032
6.9,147.295,20.437
6.93,144.101,19.921
6.97,140.942,19.406
7.0,137.819,19.016
7.03,135.257,18.535
7.06,132.169,18.054
7.1,128.975,17.699
7.13,125.816,17.286
7.16,122.798,16.828
7.19,120.341,16.37
7.23,116.902,15.832
7.26,112.831,15.419
7.29,110.059,14.938
7.32,107.532,14.377
7.36,104.689,14.022
7.39,101.811,13.689
7.42,98.126,13.185
7.45,94.125,12.59
7.49,90.37,11.914
7.52,86.44,11.295
7.55,83.0,10.78
7.59,79.982,10.241
7.62,76.648,9.772
7.65,73.174,9.394
7.68,69.804,9.004
7.72,66.541,8.523
7.75,63.417,8.007
7.78,60.258,7.572
7.81,57.1,7.194
7.85,53.941,6.77
7.88,50.818,6.243
7.91,47.449,5.751
7.94,43.974,5.315
7.98,40.535,4.834
8.01,37.692,4.399
8.04,36.604,4.261
8.07,32.99,3.482
8.11,26.076,3.059
8.14,22.601,2.429
8.17,18.741,1.455
8.2,16.389,0.928
8.24,13.266,0.538
8.27,9.546,0.172
8.3,3.194,-0.115
8.33,-0.175,-0.664
8.37,-4.176,-1.707
8.4,-8.633,-1.249
8.43,-10.423,-1.501
8.46,-14.986,-1.604
8.5,-17.758,-1.615
8.53,-20.952,-2.039
8.56,-24.672,-2.268
8.59,-28.146,-2.394
8.63,-30.743,-2.818
8.66,-32.99,-3.551
8.69,-34.814,-4.422
8.72,-37.411,-5.235
8.76,-39.552,-6.106
8.79,-41.307,-7.435
8.82,-43.623,-9.061
8.85,-45.975,-10.562
8.89,-48.08,-12.2
8.92,-54.994,-12.956
8.95,-62.505,-12.624
8.99,-68.12,-12.67
9.02,-73.244,-12.67
9.05,-75.771,-12.704
9.08,-77.806,-12.956
9.12,-81.21,-13.128
9.15,-84.404,-13.323
9.18,-87.633,-13.873
9.21,-91.142,-14.457
9.25,-94.196,-15.007
9.28,-97.214,-15.476
9.31,-100.056,-15.912
9.34,-102.864,-16.404
9.38,-106.198,-16.851
9.41,-109.813,-17.286
9.44,-113.112,-17.79
9.47,-116.27,-18.363
9.51,-119.429,-18.913
9.54,-122.623,-19.348
9.57,-125.711,-19.715
9.6,-128.694,-20.219
9.64,-132.063,-20.746
9.67,-135.573,-21.227
9.7,-138.977,-21.731
9.73,-142.101,-22.247
9.77,-144.522,-22.728
9.8,-147.365,-23.152
9.83,-150.629,-23.438
9.86,-153.717,-23.908
9.9,-156.77,-24.423
9.93,-159.999,-25.007
9.96,-163.438,-25.431
9.99,-165.93,-25.878
10.03,-168.773,-26.428
10.06,-171.581,-26.737
10.09,-174.037,-27.081
10.12,-176.704,-27.367
10.16,-178.951,-27.791
10.19,-182.004,-28.352
10.22,-185.233,-28.753
10.25,-188.04,-29.154
10.29,-190.532,-29.613
10.32,-192.778,-30.036
10.35,-195.059,-30.369
10.38,-197.551,-30.621
10.42,-199.832,-30.953
10.45,-202.78,-31.491
10.48,-205.518,-31.869
10.52,-207.483,-32.179
10.55,-208.746,-32.373
10.58,-210.045,-32.614
10.61,-211.8,-32.786
10.65,-213.695,-32.958
10.68,-215.625,-33.233
10.71,-217.345,-33.588
10.74,-219.17,-33.977
10.78,-221.135,-34.275
10.81,-223.135,-34.538
10.84,-224.82,-34.882
10.87,-226.785,-35.26
10.91,-228.856,-35.535
10.94,-230.962,-35.833
10.97,-232.365,-36.074
11.0,-234.155,-36.509
11.04,-236.542,-36.738
11.07,-237.735,-36.944
11.1,-238.998,-37.116
11.13,-239.525,-37.242
11.17,-241.771,-37.597
11.2,-244.193,-37.735
11.23,-245.772,-38.17
11.26,-247.456,-38.525
11.3,-248.299,-38.766
11.33,-250.124,-38.983
11.36,-251.843,-39.086
11.39,-253.072,-39.384
11.43,-254.686,-39.636
11.46,-256.02,-39.854
11.49,-257.809,-40.117
11.52,-259.529,-40.392
11.56,-260.933,-40.702
11.59,-262.021,-40.885
11.62,-263.074,-40.999
11.65,-264.372,-41.137
11.69,-265.565,-41.355
11.72,-266.899,-41.561
11.75,-268.408,-41.721
11.78,-269.637,-41.95
11.82,-270.865,-42.225
11.85,-272.023,-42.42
11.88,-273.286,-42.557
11.91,-274.269,-42.672
11.95,-275.076,-42.809
11.98,-275.883,-42.924
12.01,-276.971,-43.027
12.05,-277.919,-43.13
12.08,-278.761,-43.291
12.11,-279.498,-43.417
12.14,-280.165,-43.508
12.18,-280.656,-43.543
12.21,-280.972,-43.577
12.24,-281.464,-43.634
12.27,-282.201,-43.703
12.31,-282.867,-43.749
12.34,-283.359,-43.863
12.37,-283.675,-43.921
12.4,-283.955,-43.966
12.44,-284.201,-43.932
12.47,-284.096,-43.829
12.5,-283.569,-43.749
12.53,-283.885,-43.726
12.57,-283.885,-43.634
12.6,-283.85,-43.657
12.63,-283.499,-43.554
12.66,-283.64,-43.68
12.7,-283.71,-43.485
12.73,-282.376,-43.394
12.76,-282.481,-43.336
12.79,-282.622,-43.245
12.83,-282.762,-43.336
12.86,-282.727,-43.279
12.89,-281.604,-43.142
12.92,-280.376,-42.89
12.96,-279.147,-42.546
12.99,-278.094,-42.237
13.02,-277.603,-42.053
13.05,-277.428,-42.065
13.09,-277.217,-42.145
13.12,-277.042,-42.168
13.15,-276.515,-42.076
13.18,-275.568,-41.985
13.22,-274.971,-41.847
13.25,-274.339,-41.595
13.28,-273.637,-41.4
13.31,-272.971,-41.24
13.35,-271.672,-41.068
13.38,-270.233,-40.793
13.41,-268.689,-40.381
13.45,-266.653,-39.957
13.48,-264.548,-39.59
13.51,-262.653,-39.189
13.54,-260.933,-38.823
13.58,-259.389,-38.525
13.61,-257.634,-38.284
13.64,-255.774,-38.067
13.67,-253.949,-37.757
13.71,-251.984,-37.368
13.74,-250.089,-37.105
13.77,-248.615,-36.875
13.8,-247.211,-36.681
13.84,-246.053,-36.417
13.87,-244.193,-36.119
13.9,-242.087,-35.89
13.93,-240.718,-35.592
13.97,-238.963,-35.18
14.0,-237.279,-34.928
14.03,-235.875,-34.676
14.06,-234.261,-34.481
14.1,-232.33,-34.138
14.13,-230.435,-33.84
14.16,-229.207,-33.565
14.19,-227.136,-33.313
14.23,-225.066,-32.981
14.26,-222.925,-32.488
14.29,-220.609,-32.087
14.32,-218.643,-31.766
14.36,-216.853,-31.445
14.39,-214.923,-31.079
14.42,-212.817,-30.77
14.45,-210.536,-30.483
14.49,-208.009,-30.117
14.52,-205.588,-29.647
14.55,-203.201,-29.177
14.58,-200.885,-28.868
14.62,-198.92,-28.582
14.65,-196.884,-28.215
14.68,-194.568,-27.86
14.71,-192.181,-27.493
14.75,-189.268,-27.104
14.78,-186.671,-26.691
14.81,-184.285,-26.153
14.84,-181.583,-25.706
14.88,-179.126,-25.351
14.91,-176.564,-24.985
14.94,-174.072,-24.572
14.98,-171.265,-24.125
15.01,-168.071,-23.747
15.04,-165.263,-23.301
15.07,-162.456,-22.728
15.11,-159.508,-22.235
15.14,-156.735,-21.892
15.17,-154.068,-21.514
15.2,-151.085,-21.021
15.24,-147.646,-20.494
15.27,-144.101,-19.967
15.3,-140.627,-19.463
15.33,-137.749,-18.936
15.37,-134.906,-18.386
15.4,-131.923,-18.031
15.43,-128.905,-17.687
15.46,-125.395,-17.218
15.5,-122.377,-16.737
15.53,-119.464,-16.21
15.56,-116.025,-15.786
15.59,-112.726,-15.339
15.63,-109.708,-14.789
15.66,-106.83,-14.331
15.69,-103.882,-13.953
15.72,-101.039,-13.644
15.76,-97.951,-13.105
15.79,-94.09,-12.544
15.82,-90.265,-12.005
15.85,-86.475,-11.421
15.89,-83.141,-10.848
15.92,-79.912,-10.23
15.95,-76.402,-9.783
15.98,-72.998,-9.394
16.02,-69.804,-8.947
16.05,-66.505,-8.454
16.08,-63.136,-7.985
16.11,-59.697,-7.561
16.15,-56.503,-7.114
16.18,-53.52,-6.61
16.21,-50.151,-6.117
16.24,-46.782,-5.705
16.28,-43.378,-5.235
16.31,-39.693,-4.628
16.34,-36.183,-4.147
16.37,-34.709,-4.044
16.41,-32.217,-3.425
16.44,-26.041,-2.875
16.47,-21.935,-2.371
16.51,-18.004,-1.432
16.54,-14.845,-1.088
16.57,-12.81,-0.515
16.6,-8.844,0.057
16.64,-3.018,-0.023
16.67,0.316,0.069
16.7,2.0,1.329
16.73,6.808,1.363
16.77,8.633,1.249
16.8,13.161,2.085
16.83,19.127,1.993
16.86,22.461,1.867
16.9,25.479,2.039
16.93,27.936,2.429
16.96,30.006,3.059
16.99,32.884,3.666
17.03,35.551,4.147
17.06,37.025,4.983
17.09,38.885,6.255
17.12,41.272,7.446
17.16,43.483,8.66
17.19,45.273,10.138
17.22,47.624,11.948
17.25,54.784,12.624
17.29,62.013,12.349
17.32,67.839,12.555
17.35,73.279,12.739
17.38,75.946,12.807
17.42,77.876,12.956
17.45,81.14,13.117
17.48,84.615,13.414
17.51,88.054,13.999
17.55,91.809,14.526
17.58,94.757,15.03
17.61,97.424,15.602
17.64,100.337,16.084
17.68,103.601,16.439
17.71,106.725,16.805
17.74,109.988,17.321
17.77,113.358,17.882
17.81,116.656,18.398
17.84,119.92,18.833
17.87,122.693,19.291
17.91,125.536,19.795
17.94,128.729,20.242
17.97,132.274,20.654
18.0,135.818,21.193
18.04,139.433,21.846
18.07,142.522,22.407
18.1,145.084,22.774
18.13,147.646,23.106
18.17,150.804,23.553
18.2,154.243,23.999
18.23,157.542,24.492
18.26,160.104,24.847
18.3,162.596,25.42
18.33,166.141,25.947
18.36,168.668,26.245
18.39,171.019,26.6
18.43,173.476,26.886
18.46,175.476,27.241
18.49,178.249,27.677
18.52,181.442,28.032
18.56,184.074,28.513
18.59,186.812,29.086
18.62,189.584,29.475
18.65,191.69,29.796
18.69,193.971,30.117
18.72,196.042,30.414
18.75,198.393,30.815
18.78,201.025,31.102
18.82,203.166,31.411
18.85,205.202,31.801
18.88,207.062,32.156
18.91,208.781,32.339
18.95,210.466,32.545
18.98,212.256,32.797
19.01,214.397,33.221
19.04,216.888,33.576
19.08,218.959,33.908
19.11,220.995,34.344
19.14,223.206,34.722
19.17,224.89,34.985
19.21,226.75,35.237
19.24,228.716,35.443
19.27,230.54,35.844
19.3,232.892,36.188
19.34,234.471,36.429
19.37,236.542,36.83
19.4,238.577,37.07
19.44,239.525,37.345
19.47,241.174,37.551
19.5,242.789,37.631
19.53,244.368,37.952
19.57,246.263,38.262
19.6,247.702,38.536
19.63,249.702,38.823
19.66,251.106,39.029
19.7,252.089,39.304
19.73,253.493,39.464
19.76,254.897,39.602
19.79,256.511,39.865
19.83,258.371,40.186
19.86,259.915,40.507
19.89,261.354,40.759
19.92,262.372,40.885
19.96,263.214,41.045
19.99,264.407,41.183
20.02,265.636,41.332
20.05,267.215,41.481
20.09,268.478,41.744
20.12,269.742,42.053
20.15,271.111,42.294
20.18,272.585,42.454
20.22,273.567,42.592
20.25,274.55,42.775
20.28,275.427,42.878
20.31,276.445,42.981
20.35,277.533,43.084
20.38,278.621,43.302
20.41,279.674,43.462
20.44,280.446,43.6
20.48,280.972,43.634
20.51,281.218,43.657
20.54,281.499,43.646
20.57,282.025,43.669
20.61,282.762,43.714
20.64,283.464,43.852
20.67,283.99,43.966
20.7,284.341,44.069
20.74,284.657,44.058
20.77,284.622,44.001
20.8,284.412,43.921
20.83,284.412,43.898
20.87,284.833,43.863
20.9,284.903,43.829
20.93,284.798,43.852
20.97,284.587,43.829
21.0,284.622,43.806
21.03,284.447,43.657
21.06,283.955,43.6
21.1,283.675,43.543
21.13,284.236,43.6
21.16,284.412,43.52
21.19,283.464,43.497
21.23,283.183,43.382
21.26,282.306,43.142
21.29,281.358,42.901
21.32,280.2,42.58
21.36,279.007,42.374
21.39,278.621,42.248
21.42,277.989,42.111
21.45,277.077,41.985
21.49,275.708,41.79
21.52,274.164,41.584
21.55,272.971,41.274
21.58,271.742,40.942
21.62,270.76,40.759
21.65,269.882,40.656
21.68,268.864,40.53
21.71,267.741,40.335
21.75,266.408,40.083
21.78,264.723,39.785
21.81,263.179,39.499
21.84,261.775,39.155
21.88,260.371,38.857
21.91,258.792,38.594
21.94,257.178,38.365
21.97,255.844,38.136
22.01,254.616,37.861
22.04,252.966,37.609
22.07,251.106,37.437
22.1,249.702,37.173
22.14,248.334,36.807
22.17,246.579,36.509
22.2,245.421,36.371
22.23,243.982,36.062
22.27,241.666,35.753
22.3,239.911,35.363
22.33,237.875,34.962
22.36,236.226,34.733
22.4,234.892,34.435
22.43,233.243,34.16
22.46,230.927,33.817
22.5,228.61,33.599
22.53,227.347,33.278
22.56,225.417,32.832
22.59,223.17,32.534
22.63,221.205,32.236
22.66,219.24,31.927
22.69,217.59,31.583
22.72,215.73,31.228
22.76,213.625,30.953
22.79,211.098,30.586
22.82,208.43,30.14
22.85,206.114,29.635
22.89,203.622,29.212
22.92,201.131,28.925
22.95,199.165,28.57
22.98,197.06,28.204
23.02,195.024,27.906
23.05,192.567,27.574
23.08,189.9,27.207
23.11,187.408,26.737
23.15,184.706,26.245
23.18,182.004,25.867
23.21,179.793,25.466
23.24,177.231,24.962
23.28,174.213,24.561
23.31,171.335,24.137
23.34,168.317,23.724
23.37,165.474,23.22
23.41,162.456,22.671
23.44,159.613,22.27
23.47,156.876,21.926
23.5,154.033,21.491
23.54,151.155,20.998
23.57,147.646,20.483
23.6,144.276,20.07
23.63,141.258,19.509
23.67,138.205,18.959
23.7,135.292,18.478
23.73,131.958,18.111
23.76,129.115,17.768
23.8,126.237,17.252
23.83,122.974,16.771
23.86,120.131,16.427
23.9,116.902,15.9
23.93,113.112,15.373
23.96,110.164,14.835
23.99,107.251,14.354
24.03,104.338,14.045
24.06,101.425,13.632
24.09,97.845,13.059
24.12,93.845,12.498
24.16,90.23,11.948
24.19,86.404,11.307
24.22,82.965,10.768
24.25,80.052,10.218
24.29,76.543,9.794
24.32,73.103,9.462
24.35,70.015,8.993
24.38,66.751,8.477
24.42,63.487,8.065
24.45,60.434,7.675
24.48,57.275,7.217
24.51,54.187,6.736
24.55,51.064,6.278
24.58,47.694,5.842
24.61,44.15,5.384
24.64,40.886,4.811
24.68,37.833,4.399
24.71,36.71,4.307
24.74,32.744,3.505
24.77,26.146,3.024
24.81,22.672,2.348
24.84,18.565,1.478
24.87,15.688,1.214
24.9,13.863,0.493
24.94,9.792,0.069
24.97,4.843,0.137
25.0,0.351,0.046
25.03,-1.649,-1.34
25.07,-7.545,-1.718
25.1,-10.388,-1.168
25.13,-13.126,-1.89
25.16,-18.776,-1.982
25.2,-22.285,-1.776
25.23,-25.269,-2.051
25.26,-28.427,-2.6
25.29,-31.129,-3.208
25.33,-33.516,-3.769
25.36,-35.551,-4.342
25.39,-37.166,-5.292
25.43,-38.921,-6.495
25.46,-41.307,-7.732
25.49,-44.009,-8.935
25.52,-45.448,-10.482
25.56,-48.537,-12.315
25.59,-56.293,-12.578
25.62,-62.399,-12.269
25.65,-68.015,-12.452
25.69,-72.858,-12.532
25.72,-75.525,-12.67
25.75,-78.122,-12.842
25.78,-81.105,-13.059
25.82,-84.193,-13.46
25.85,-87.808,-13.987
25.88,-91.318,-14.445
25.91,-94.336,-14.984
25.95,-97.108,-15.534
25.98,-100.127,-16.038
26.01,-103.32,-16.404
26.04,-106.409,-16.782
26.08,-109.637,-17.309
26.11,-113.042,-17.871
26.14,-116.341,-18.352
26.17,-119.569,-18.799
26.21,-122.588,-19.268
26.24,-125.395,-19.795
26.27,-128.764,-20.265
26.3,-132.204,-20.666
26.34,-135.503,-21.17
26.37,-138.942,-21.8
26.4,-142.416,-22.373
26.43,-145.013,-22.728
26.47,-147.575,-23.129
26.5,-150.664,-23.507
26.53,-153.577,-23.931
26.56,-156.735,-24.4
26.6,-160.175,-24.881
26.63,-163.158,-25.351
26.66,-165.474,-25.924
26.69,-168.527,-26.336
26.73,-171.089,-26.577
26.76,-173.651,-26.989
26.79,-176.494,-27.39
26.82,-178.986,-27.826
26.86,-182.109,-28.307
26.89,-185.162,-28.696
26.92,-187.654,-29.223
26.96,-190.462,-29.67
26.99,-192.778,-29.956
27.02,-195.024,-30.266
27.05,-197.13,-30.586
27.09,-199.341,-30.953
27.12,-202.113,-31.308
27.15,-204.57,-31.583
27.18,-206.43,-31.984
27.22,-208.22,-32.316
27.25,-209.764,-32.534
27.28,-211.378,-32.694
27.31,-213.098,-32.912
27.35,-215.028,-33.255
27.38,-217.064,-33.588
27.41,-219.205,-33.897
27.44,-221.17,-34.241
27.48,-222.925,-34.642
27.51,-224.89,-34.985
27.54,-226.855,-35.191
27.57,-228.716,-35.478
27.61,-230.821,-35.833
27.64,-232.401,-36.131
27.67,-234.401,-36.497
27.7,-236.612,-36.704
27.74,-237.735,-36.99
27.77,-239.384,-37.299
27.8,-241.069,-37.46
27.83,-242.754,-37.677
27.87,-244.438,-37.941
27.9,-246.158,-38.307
27.93,-247.842,-38.571
27.96,-249.281,-38.788
28.0,-250.931,-39.029
28.03,-252.335,-39.258
28.06,-253.668,-39.499
28.09,-255.037,-39.659
28.13,-256.406,-39.877
28.16,-258.09,-40.14
28.19,-259.634,-40.427
28.22,-261.214,-40.667
28.26,-262.126,-40.793
28.29,-263.004,-40.999
28.32,-264.056,-41.114
28.36,-265.285,-41.274
28.39,-266.724,-41.4
28.42,-268.022,-41.664
28.45,-269.321,-41.973
28.49,-270.689,-42.202
28.52,-271.918,-42.351
28.55,-273.006,-42.534
28.58,-274.023,-42.695
28.62,-274.796,-42.798
28.65,-275.743,-42.878
28.68,-276.831,-42.958
28.71,-277.849,-43.153
28.75,-278.796,-43.313
28.78,-279.463,-43.428
28.81,-280.165,-43.485
28.84,-280.516,-43.531
28.88,-280.902,-43.554
28.91,-281.393,-43.6
28.94,-282.166,-43.646
28.97,-282.762,-43.737
29.01,-283.324,-43.863
29.04,-283.569,-43.921
29.07,-283.99,-43.932
29.1,-284.096,-43.898
29.14,-283.99,-43.852
29.17,-283.569,-43.749
29.2,-283.885,-43.737
29.23,-284.026,-43.646
29.27,-283.955,-43.691
29.3,-283.569,-43.6
29.33,-283.745,-43.703
29.36,-283.85,-43.508
29.4,-282.516,-43.428
29.43,-282.657,-43.371
29.46,-282.727,-43.279
29.49,-283.008,-43.336
29.53,-282.832,-43.291
29.56,-281.955,-43.222
29.59,-281.007,-43.016
29.62,-280.025,-42.729
29.66,-279.218,-42.466
29.69,-278.551,-42.328
29.72,-278.445,-42.294
29.75,-278.235,-42.271
29.79,-279.077,-42.546
29.82,-280.516,-42.798
29.85,-280.937,-43.084
29.89,-281.253,-43.165
29.92,-280.621,-42.924
29.95,-279.709,-42.695
29.98,-279.112,-42.34
30.02,-277.779,-41.973
30.05,-276.234,-41.549
30.08,-274.023,-41.057
30.11,-271.532,-40.656
30.15,-269.426,-40.186
30.18,-267.285,-39.705
30.21,-265.109,-39.338
30.24,-263.179,-39.029
30.28,-261.108,-38.731
30.31,-259.073,-38.422
30.34,-256.792,-37.998
30.37,-254.195,-37.643
30.41,-252.124,-37.299
30.44,-250.124,-36.91
30.47,-248.264,-36.566
30.5,-246.544,-36.326
30.54,-245.07,-36.2
30.57,-243.806,-36.028
30.6,-242.508,-35.799
30.63,-240.648,-35.524
30.67,-238.928,-35.306
30.7,-237.419,-34.985
30.73,-235.594,-34.619
30.76,-233.418,-34.172
30.8,-231.067,-33.817
30.83,-228.716,-33.416
30.86,-226.399,-33.003
30.89,-224.609,-32.58
30.93,-222.012,-32.202
30.96,-219.942,-32.007
30.99,-218.468,-31.675
31.02,-216.397,-31.331
31.06,-214.677,-31.113
31.09,-212.782,-30.804
31.12,-210.01,-30.483
31.15,-207.834,-30.082
31.19,-205.798,-29.601
31.22,-203.693,-29.326
31.25,-201.622,-29.028
31.28,-199.692,-28.708
31.32,-197.726,-28.318
31.35,-194.954,-27.917
31.38,-191.76,-27.482
31.42,-189.163,-26.978
31.45,-186.742,-26.428
31.48,-184.004,-26.027
31.51,-181.548,-25.695
31.55,-179.372,-25.385
31.58,-177.161,-24.973
31.61,-174.353,-24.618
31.64,-171.159,-24.194
31.68,-167.79,-23.702
31.71,-165.088,-23.129
31.74,-162.245,-22.533
31.77,-159.122,-22.166
31.81,-156.665,-21.857
31.84,-154.068,-21.388
31.87,-150.348,-20.849
31.9,-146.382,-20.322
31.94,-142.943,-19.795
31.97,-140.346,-19.291
32.0,-137.924,-18.799
32.03,-134.801,-18.386
32.07,-131.396,-18.111
32.1,-128.448,-17.642
32.13,-124.728,-17.011
32.16,-120.973,-16.439
32.2,-117.569,-15.935
32.23,-113.568,-15.167
32.26,-105.602,-13.781
32.29,-96.336,-12.487
32.33,-90.686,-11.318
32.36,-88.44,-10.619
32.39,-86.65,-10.31
32.42,-84.158,-10.482
32.46,-81.947,-10.688
32.49,-79.28,-10.722
32.52,-77.49,-10.642
32.55,-76.262,-10.344
32.59,-74.191,-10.058
32.62,-71.91,-9.84
32.65,-70.085,-9.52
32.68,-68.225,-9.073
32.72,-65.593,-8.66
32.75,-63.101,-8.385
32.78,-60.785,-7.973
32.81,-58.083,-7.515
32.85,-55.486,-7.08
32.88,-52.222,-6.61
32.91,-48.888,-6.186
32.95,-45.694,-5.59
32.98,-41.869,-4.926
33.01,-38.289,-4.513
33.04,-37.341,-4.456
33.08,-35.587,-3.861
33.11,-28.217,-3.047
33.14,-22.461,-2.566
33.17,-18.25,-1.524
33.21,-14.845,-1.111
33.24,-13.792,-0.458
33.27,-9.3,-0.023
33.3,-4.317,-0.195
33.34,-0.14,-0.126
33.37,0.842,0.836
33.4,4.176,1.352
33.43,5.966,0.997
33.47,8.247,1.879
33.5,14.845,1.867
33.53,19.127,1.65
33.56,22.672,1.993
33.6,25.795,2.394
33.63,29.094,2.772
33.66,32.323,3.173
33.69,35.095,3.838
33.73,37.341,4.96
33.76,40.219,6.186
33.79,42.781,7.286
33.82,44.536,8.649
33.86,45.518,10.482
33.89,49.133,12.212
33.92,56.96,12.315
33.95,62.259,12.051
33.99,67.418,12.315
34.02,72.472,12.303
34.05,74.788,12.372
34.08,77.174,12.613
34.12,80.052,12.819
34.15,83.035,13.243
34.18,86.615,13.678
34.21,90.019,14.159
34.25,92.862,14.766
34.28,96.021,15.373
34.31,99.249,15.797
34.35,102.338,16.187
34.38,105.391,16.668
34.41,108.76,17.218
34.44,112.305,17.71
34.48,115.779,18.203
34.51,119.008,18.673
34.54,121.886,19.257
34.57,125.15,19.726
34.61,128.168,20.059
34.64,131.151,20.483
34.67,134.415,20.987
34.7,137.819,21.536
34.74,141.223,22.029
34.77,143.925,22.373
34.8,146.136,22.854
34.83,149.19,23.312
34.87,152.419,23.644
34.9,155.612,24.102
34.93,158.771,24.618
34.96,161.578,25.191
35.0,164.597,25.718
35.03,167.79,26.073
35.06,170.422,26.485
35.09,173.16,26.955
35.13,175.967,27.333
35.16,178.88,27.745
35.19,182.039,28.215
35.22,184.811,28.765
35.26,187.619,29.223
35.29,190.216,29.487
35.32,192.181,29.807
35.35,194.463,30.14
35.39,196.428,30.414
35.42,198.814,30.712
35.45,201.236,30.964
35.48,203.061,31.319
35.52,204.921,31.709
35.55,206.816,31.938
35.58,208.29,32.098
35.61,210.185,32.396
35.65,212.01,32.717
35.68,214.256,33.107
35.71,216.643,33.427
35.74,218.538,33.805
35.78,220.538,34.264
35.81,222.784,34.596
35.84,224.504,34.802
35.88,226.54,35.123
35.91,228.61,35.409
35.94,230.611,35.821
35.97,232.997,36.119
36.01,234.541,36.383
36.04,236.296,36.761
36.07,238.191,36.979
36.1,239.384,37.173
36.14,241.104,37.368
36.17,242.859,37.597
36.2,244.649,37.998
36.23,246.93,38.33
36.27,248.685,38.582
36.3,250.299,38.926
36.33,251.878,39.178
36.36,253.036,39.373
36.4,254.37,39.499
36.43,255.704,39.659
36.46,257.494,39.945
36.49,259.073,40.209
36.53,260.617,40.507
36.56,261.775,40.656
36.59,262.407,40.805
36.62,263.109,40.908
36.66,264.197,40.976
36.69,265.601,41.068
36.72,266.864,41.32
36.75,268.163,41.664
36.79,269.461,41.893
36.82,270.795,42.076
36.85,271.883,42.225
36.88,272.725,42.42
36.92,273.708,42.546
36.95,274.69,42.638
36.98,275.638,42.706
37.01,276.936,42.97
37.05,278.27,43.119
37.08,278.831,43.348
37.11,279.99,43.428
37.14,280.376,43.52
37.18,281.604,43.657
37.21,281.358,43.531
37.24,281.604,43.634
37.27,282.411,43.554
37.31,283.218,43.726
37.34,283.359,43.737
37.37,283.885,43.898
37.41,283.955,43.772
37.44,283.955,43.886
37.47,284.061,43.703
37.5,283.815,43.726
37.54,284.341,43.657
37.57,285.008,43.806
37.6,285.043,43.806
37.63,285.008,43.955
37.67,285.008,43.737
37.7,284.552,43.795
37.73,284.763,43.588
37.76,283.569,43.474
37.8,283.955,43.439
37.83,283.745,43.268
37.86,283.218,43.302
37.89,282.797,43.142
37.93,281.744,42.947
37.96,280.937,42.764
37.99,280.025,42.5
38.02,279.042,42.374
38.06,278.831,42.214
38.09,278.094,42.076
38.12,277.322,42.053
38.15,276.164,41.847
38.19,274.69,41.584
38.22,273.602,41.24
38.25,272.093,40.954
38.28,271.111,40.839
38.32,270.514,40.656
38.35,269.25,40.45
38.38,268.057,40.312
38.41,266.759,40.083
38.45,265.109,39.808
38.48,263.67,39.453
38.51,262.196,39.121
38.54,260.828,38.903
38.58,259.494,38.651
38.61,257.95,38.399
38.64,256.511,38.147
38.67,255.107,37.929
38.71,253.633,37.757
38.74,252.229,37.46
38.77,250.896,37.185
38.81,249.457,36.956
38.84,247.807,36.738
38.87,246.193,36.474
38.9,244.93,36.142
38.94,243.21,35.821
38.97,241.42,35.592
39.0,239.104,35.123
39.03,236.858,34.756
39.07,235.103,34.286
39.1,232.787,33.977
39.13,230.751,33.656
39.16,228.505,33.29
39.2,226.68,32.958
39.23,224.574,32.66
39.26,222.539,32.442
39.29,220.784,32.076
39.33,218.994,31.755
39.36,217.204,31.491
39.39,215.344,31.251
39.42,213.554,30.953
39.46,211.414,30.506
39.49,208.606,30.105
39.52,205.974,29.739
39.55,203.903,29.326
39.59,202.078,28.914
39.62,200.008,28.593
39.65,197.656,28.341
39.68,195.445,28.043
39.72,193.024,27.562
39.75,190.181,27.047
39.78,187.233,26.669
39.81,184.776,26.256
39.85,182.249,25.752
39.88,179.898,25.282
39.91,177.196,24.927
39.94,174.318,24.629
39.98,171.51,24.16
40.01,168.562,23.667
40.04,165.86,23.22
40.07,162.772,22.785
40.11,159.789,22.338
40.14,157.191,21.823
40.17,154.208,21.376
40.2,151.015,20.998
40.24,147.751,20.517
40.27,144.452,19.944
40.3,141.223,19.371
40.34,138.065,18.982
40.37,135.362,18.592
40.4,132.414,18.1
40.43,129.256,17.676
40.47,126.448,17.286
40.5,123.325,16.885
40.53,120.728,16.542
40.56,117.78,15.889
40.6,113.358,15.373
40.63,110.234,14.972
40.66,107.532,14.388
40.69,104.549,13.941
40.73,101.706,13.54
40.76,98.302,13.14
40.79,94.827,12.704
40.82,91.388,12.086
40.86,87.563,11.456
40.89,83.737,10.94
40.92,80.614,10.459
40.95,77.42,9.898
40.99,74.016,9.428
41.02,70.612,9.004
41.05,67.032,8.592
41.08,63.873,8.111
41.12,60.75,7.561
41.15,57.451,7.16
41.18,54.503,6.805
41.21,51.274,6.312
41.25,47.94,5.842
41.28,44.501,5.327
41.31,40.991,4.903
41.34,38.043,4.468
41.38,36.955,4.376
41.41,35.201,3.826
41.44,28.392,3.23
41.47,23.584,2.795
41.51,19.443,1.695
41.54,16.144,1.008
41.57,13.055,0.412
41.6,8.212,0.126
41.64,2.702,0.08
41.67,-0.14,-0.241
41.7,-2.071,-1.317
41.73,-6.001,-1.123
41.77,-7.159,-1.363
41.8,-12.775,-1.947
41.83,-18.004,-1.695
41.87,-21.303,-2.028
41.9,-25.795,-2.509
41.93,-29.971,-2.635
41.96,-32.288,-3.07
42.0,-34.183,-3.906
42.03,-35.622,-4.811
42.06,-37.657,-5.716
42.09,-39.833,-6.553
42.13,-41.342,-7.824
42.16,-43.237,-9.405
42.19,-45.799,-10.986
42.22,-51.625,-11.765
42.26,-58.083,-11.65
42.29,-63.101,-11.799
42.32,-68.541,-11.925
42.35,-71.559,-11.937
42.39,-73.665,-12.246
42.42,-76.788,-12.544
42.45,-80.193,-12.842
42.48,-83.597,-13.277
42.52,-87.106,-13.827
42.55,-90.23,-14.434
42.58,-93.494,-15.007
42.61,-96.687,-15.431
42.65,-99.741,-15.854
42.68,-102.724,-16.336
42.71,-106.023,-16.84
42.74,-109.602,-17.286
42.78,-112.971,-17.745
42.81,-116.165,-18.306
42.84,-119.289,-18.867
42.87,-122.588,-19.314
42.91,-125.641,-19.669
42.94,-128.589,-20.162
42.97,-131.923,-20.7
43.0,-135.397,-21.181
43.04,-139.047,-21.708
43.07,-142.381,-22.224
43.1,-144.522,-22.705
43.13,-147.33,-23.175
43.17,-150.594,-23.392
43.2,-153.331,-23.782
43.23,-156.384,-24.309
43.27,-159.753,-24.881
43.3,-162.877,-25.282
43.33,-165.298,-25.741
43.36,-168.036,-26.21
43.4,-170.668,-26.577
43.43,-173.476,-26.943
43.46,-176.389,-27.264
43.49,-178.67,-27.722
43.53,-181.548,-28.284
43.56,-184.882,-28.708
43.59,-187.794,-29.097
43.62,-190.251,-29.532
43.66,-192.462,-29.956
43.69,-194.778,-30.288
43.72,-197.2,-30.506
43.75,-199.341,-30.804
43.79,-201.727,-31.262
43.82,-204.079,-31.594
43.85,-206.044,-31.869
43.88,-207.869,-32.087
43.92,-209.167,-32.362
43.95,-210.817,-32.602
43.98,-212.817,-32.832
44.01,-214.783,-33.061
44.05,-216.608,-33.462
44.08,-218.784,-33.897
44.11,-221.17,-34.275
44.14,-223.381,-34.596
44.18,-225.101,-34.951
44.21,-226.68,-35.283
44.24,-228.786,-35.547
44.27,-230.856,-35.73
44.31,-232.401,-36.016
44.34,-234.401,-36.417
44.37,-236.296,-36.669
44.4,-238.016,-36.979
44.44,-239.841,-37.219
44.47,-241.104,-37.517
44.5,-243.034,-37.826
44.53,-245.0,-38.021
44.57,-246.86,-38.319
44.6,-248.509,-38.617
44.63,-249.913,-38.926
44.66,-251.598,-39.121
44.7,-252.756,-39.224
44.73,-253.914,-39.453
44.76,-255.423,-39.659
44.8,-256.792,-39.877
44.83,-258.441,-40.106
44.86,-259.845,-40.358
44.89,-261.108,-40.621
44.93,-262.021,-40.77
44.96,-263.004,-40.885
44.99,-264.021,-40.976
45.02,-265.179,-41.183
45.06,-266.478,-41.4
45.09,-267.917,-41.595
45.12,-269.25,-41.801
45.15,-270.514,-42.099
45.19,-271.672,-42.328
45.22,-272.76,-42.477
45.25,-273.813,-42.534
45.28,-274.585,-42.638
45.32,-275.427,-42.786
45.35,-276.585,-42.924
45.38,-277.744,-43.061
45.41,-278.726,-43.245
45.45,-279.533,-43.405
45.48,-280.165,-43.531
45.51,-280.762,-43.554
45.54,-281.183,-43.554
45.58,-281.639,-43.588
45.61,-282.411,-43.669
45.64,-283.043,-43.772
45.67,-283.64,-43.852
45.71,-283.885,-43.898
45.74,-284.131,-43.943
45.77,-284.236,-43.909
45.8,-284.131,-43.806
45.84,-283.745,-43.669
45.87,-283.955,-43.669
45.9,-284.061,-43.623
45.93,-283.99,-43.646
45.97,-283.569,-43.52
46.0,-283.78,-43.646
46.03,-283.955,-43.508
46.06,-282.727,-43.439
46.1,-282.867,-43.359
46.13,-282.938,-43.268
46.16,-283.148,-43.348
46.19,-283.148,-43.336
46.23,-282.516,-43.222
46.26,-281.464,-43.038
46.29,-280.586,-42.786
46.33,-279.814,-42.569
46.36,-280.27,-42.592
46.39,-281.323,-42.729
46.42,-281.85,-43.004
46.46,-281.639,-43.107
46.49,-280.481,-42.89
46.52,-278.656,-42.431
46.55,-277.042,-41.95
46.59,-275.638,-41.492
46.62,-274.269,-41.114
46.65,-272.795,-40.77
46.68,-270.584,-40.484
46.72,-268.443,-40.243
46.75,-266.618,-39.865
46.78,-264.548,-39.43
46.81,-262.688,-39.098
46.85,-260.793,-38.754
46.88,-258.722,-38.468
46.91,-256.932,-38.158
46.94,-255.177,-37.826
46.98,-253.493,-37.62
47.01,-251.913,-37.437
47.04,-250.124,-37.15
47.07,-248.615,-36.875
47.11,-247.386,-36.623
47.14,-245.912,-36.497
47.17,-244.614,-36.268
47.2,-243.034,-35.993
47.24,-242.332,-35.902
47.27,-241.209,-35.604
47.3,-238.612,-35.34
47.33,-236.893,-34.962
47.37,-235.138,-34.458
47.4,-233.067,-34.16
47.43,-231.313,-33.863
47.46,-229.277,-33.519
47.5,-227.347,-33.152
47.53,-224.995,-32.809
47.56,-223.1,-32.58
47.59,-221.205,-32.167
47.63,-219.064,-31.846
47.66,-217.766,-31.571
47.69,-215.8,-31.297
47.72,-213.976,-31.125
47.76,-212.466,-30.77
47.79,-210.466,-30.449
47.82,-208.115,-30.185
47.86,-206.044,-29.853
47.89,-203.973,-29.406
47.92,-201.833,-28.983
47.95,-199.551,-28.639
47.99,-197.13,-28.295
48.02,-194.814,-27.906
48.05,-192.638,-27.447
48.08,-189.865,-27.024
48.12,-186.812,-26.68
48.15,-184.32,-26.233
48.18,-182.074,-25.683
48.21,-179.231,-25.237
48.25,-176.599,-24.95
48.28,-174.142,-24.595
48.31,-170.949,-24.045
48.34,-167.404,-23.564
48.38,-164.667,-23.106
48.41,-161.613,-22.567
48.44,-158.56,-22.086
48.47,-156.033,-21.628
48.51,-152.945,-21.216
48.54,-149.821,-20.883
48.57,-146.838,-20.379
48.6,-143.82,-19.875
48.64,-140.662,-19.417
48.67,-138.275,-19.177
48.7,-136.345,-18.799
48.73,-133.958,-18.489
48.77,-130.87,-18.02
48.8,-126.413,-17.504
48.83,-122.974,-16.954
48.86,-119.92,-16.198
48.9,-116.621,-15.648
48.93,-113.217,-15.19
48.96,-109.673,-14.743
48.99,-106.409,-14.205
49.03,-103.18,-13.735
49.06,-99.776,-13.266
49.09,-95.915,-12.784
49.12,-92.371,-12.223
49.16,-88.861,-11.582
49.19,-85.387,-11.146
49.22,-82.544,-10.78
49.26,-79.947,-10.402
49.29,-77.28,-10.058
49.32,-74.402,-9.714
49.35,-71.173,-9.371
49.39,-68.225,-8.958
49.42,-65.382,-8.42
49.45,-62.119,-7.927
49.48,-58.855,-7.503
49.52,-55.591,-6.999
49.55,-52.151,-6.415
49.58,-48.466,-5.865
49.61,-44.922,-5.361
49.65,-41.307,-4.869
49.68,-38.043,-4.353
49.71,-36.078,-4.17
49.74,-34.499,-3.78
49.78,-28.427,-3.104
49.81,-23.198,-2.704
49.84,-19.548,-1.684
49.87,-15.758,-0.962
49.91,-12.599,-0.573
49.94,-8.774,-0.126
49.97,-3.053,0.057
50.0,0.246,0.252
50.04,2.386,1.409
50.07,7.23,1.352
50.1,9.37,1.375
50.13,14.67,1.947
50.17,19.583,1.867
50.2,22.531,2.096
50.23,26.532,2.406
50.26,30.147,2.555
50.3,31.691,3.082
50.33,33.551,4.021
50.36,36.113,4.777
50.39,38.289,5.522
50.43,40.254,6.61
50.46,42.079,8.053
50.49,44.325,9.577
50.52,46.326,11.1
50.56,51.485,12.235
50.59,58.995,12.177
50.62,64.189,12.131
50.65,69.594,12.269
50.69,73.279,12.257
50.72,75.174,12.521
50.75,78.087,12.784
50.79,81.21,12.899
50.82,84.193,13.323
50.85,87.668,13.873
50.88,90.967,14.468
50.92,94.266,14.995
50.95,97.319,15.476
50.98,100.232,15.98
51.01,103.215,16.473
51.05,106.654,16.897
51.08,110.094,17.321
51.11,113.322,17.802
51.14,116.025,18.329
51.18,119.289,18.821
51.21,122.061,19.085
51.24,125.255,19.669
51.27,129.01,20.139
51.31,132.239,20.78
51.34,136.591,21.41
51.37,139.819,21.823
51.4,142.136,22.487
51.44,145.47,22.911
51.47,147.856,23.071
51.5,150.594,23.495
51.53,153.857,23.805
51.57,156.209,24.286
51.6,159.473,24.79
51.63,162.561,25.156
51.66,165.088,25.683
51.7,167.896,26.222
51.73,170.563,26.543
51.76,173.09,26.852
51.79,175.581,27.207
51.83,178.178,27.7
51.86,181.197,28.158
51.89,184.18,28.57
51.92,186.742,28.948
51.96,188.777,29.326
51.99,190.637,29.635
52.02,193.059,29.922
52.05,195.551,30.174
52.09,197.902,30.644
52.12,200.323,31.045
52.15,202.534,31.388
52.18,204.535,31.675
52.22,206.395,31.972
52.25,208.15,32.282
52.28,210.185,32.545
52.32,212.221,32.786
52.35,214.362,33.175
52.38,216.643,33.599
52.41,218.748,34.0
52.45,220.959,34.321
52.48,222.995,34.619
52.51,224.434,34.939
52.54,226.399,35.237
52.58,228.505,35.398
52.61,230.295,35.695
52.64,232.401,36.074
52.67,233.98,36.371
52.71,235.875,36.726
52.74,237.875,36.921
52.77,239.069,37.219
52.8,240.788,37.517
52.84,242.403,37.654
52.87,244.017,37.849
52.9,245.21,38.021
52.93,246.474,38.376
52.97,249.176,38.72
53.0,251.001,38.914
53.03,252.089,39.304
53.06,253.668,39.556
53.1,254.826,39.728
53.13,256.441,39.957
53.16,258.406,40.163
53.19,259.88,40.45
53.23,261.179,40.747
53.26,262.196,40.862
53.29,263.074,40.942
53.32,264.127,41.045
53.36,265.25,41.274
53.39,266.829,41.481
53.42,268.303,41.687
53.45,269.707,41.973
53.49,271.005,42.271
53.52,272.339,42.512
53.55,273.462,42.615
53.58,274.374,42.718
53.62,275.182,42.832
53.65,276.129,42.947
53.68,277.322,43.073
53.72,278.516,43.233
53.75,279.498,43.439
53.78,280.376,43.611
53.81,280.937,43.691
53.85,281.464,43.703
53.88,281.885,43.703
53.91,282.376,43.772
53.94,283.148,43.852
53.98,283.815,43.921
54.01,284.306,44.001
54.04,284.447,44.058
54.07,284.517,44.069
54.11,284.692,43.966
54.14,284.412,43.84
54.17,284.061,43.795
54.2,284.412,43.783
54.24,284.657,43.795
54.27,284.868,43.852
54.3,284.938,43.863
54.33,284.763,43.898
54.37,284.763,43.852
54.4,284.727,43.76
54.43,284.587,43.691
54.46,285.114,43.783
54.5,285.078,43.714
54.53,284.026,43.611
54.56,283.464,43.405
54.59,282.587,43.13
54.63,281.534,42.89
54.66,280.341,42.603
54.69,279.077,42.328
54.72,278.375,42.191
54.76,277.779,42.088
54.79,276.936,42.007
54.82,275.813,41.79
54.85,274.339,41.538
54.89,272.971,41.32
54.92,271.777,41.057
54.95,270.83,40.828
54.98,269.917,40.61
55.02,268.689,40.472
55.05,267.531,40.381
55.08,266.443,40.117
55.11,264.828,39.785
55.15,263.354,39.499
55.18,261.951,39.201
55.21,260.406,38.937
55.25,259.073,38.651
55.28,257.564,38.388
55.31,256.055,38.193
55.34,254.651,37.998
55.38,253.107,37.7
55.41,251.317,37.311
55.44,249.352,37.036
55.47,247.948,36.795
55.51,246.123,36.44
55.54,244.614,36.188
55.57,243.315,35.867
55.6,240.823,35.547
55.64,238.823,35.26
55.67,236.963,34.802
55.7,235.384,34.527
55.73,233.91,34.298
55.77,232.26,34.16
55.8,230.611,33.828
55.83,228.575,33.519
55.86,227.101,33.313
55.9,225.487,33.049
55.93,223.592,32.717
55.96,221.626,32.316
55.99,219.591,31.984
56.03,217.976,31.72
56.06,216.116,31.377
56.09,214.046,30.999
56.12,211.659,30.598
56.16,208.781,30.208
56.19,206.114,29.796
56.22,204.044,29.292
56.25,201.797,28.857
56.29,199.446,28.616
56.32,197.305,28.341
56.35,195.235,27.986
56.38,192.743,27.528
56.42,189.795,27.15
56.45,187.268,26.795
56.48,184.776,26.29
56.51,182.214,25.764
56.55,179.652,25.385
56.58,177.09,25.053
56.61,174.493,24.687
56.64,171.616,24.183
56.68,168.457,23.736
56.71,165.369,23.266
56.74,162.315,22.774
56.78,159.824,22.281
56.81,157.367,21.857
56.84,154.349,21.525
56.87,151.19,21.135
56.91,147.821,20.54
56.94,144.452,20.001
56.97,141.328,19.474
57.0,138.029,19.051
57.04,135.397,18.581
57.07,132.449,18.065
57.1,129.15,17.71
57.13,125.957,17.286
57.17,122.623,16.782
57.2,119.78,16.301
57.23,116.516,15.717
57.26,112.55,15.316
57.3,109.813,14.881
57.33,107.286,14.331
57.36,104.408,14.01
57.39,101.741,13.689
57.43,98.196,13.254
57.46,94.476,12.693
57.49,91.002,12.051
57.52,87.141,11.444
57.56,83.492,10.94
57.59,80.544,10.39
57.62,77.28,9.863
57.65,73.84,9.474
57.69,70.401,9.084
57.72,67.172,8.615
57.75,64.049,8.111
57.78,61.206,7.721
57.82,58.223,7.343
57.85,54.924,6.919
57.88,51.59,6.404
57.91,48.186,5.877
57.95,44.641,5.407
57.98,41.307,4.892
58.01,37.762,4.353
58.04,36.043,4.158
58.08,32.709,3.437
58.11,25.725,2.818
58.14,21.513,2.28
58.17,18.039,1.249
58.21,14.951,0.768
58.24,11.792,0.435
58.27,7.721,0.115
58.31,2.773,0.034
58.34,-0.105,-0.069
58.37,-1.299,-1.123
58.4,-5.685,-1.283
58.44,-7.896,-1.237
58.47,-12.564,-1.947
58.5,-18.25,-1.936
58.53,-21.584,-1.993
58.57,-25.62,-2.257
58.6,-29.34,-2.451
58.63,-31.235,-3.013
58.66,-32.849,-3.838
58.7,-35.095,-4.525
58.73,-37.166,-5.201
58.76,-39.026,-6.243
58.79,-40.991,-7.641
58.83,-43.694,-9.061
58.86,-45.624,-10.459
58.89,-49.203,-11.948
58.92,-56.854,-12.212
58.96,-62.75,-12.04
58.99,-68.015,-12.246
59.02,-72.472,-12.315
59.05,-74.753,-12.509
59.09,-77.385,-12.807
59.12,-80.93,-12.979
59.15,-83.948,-13.346
59.18,-87.422,-13.941
59.22,-90.791,-14.457
59.25,-93.845,-14.984
59.28,-96.793,-15.408
59.31,-99.495,-15.9
59.35,-102.654,-16.381
59.38,-106.023,-16.771
59.41,-109.392,-17.229
59.44,-112.761,-17.79
59.48,-115.99,-18.363
59.51,-119.218,-18.856
59.54,-122.412,-19.257
59.57,-125.29,-19.704
59.61,-128.308,-20.23
59.64,-131.783,-20.689
59.67,-135.187,-21.124
59.71,-138.521,-21.685
59.74,-141.75,-22.27
59.77,-144.522,-22.728
59.8,-147.189,-23.071
59.84,-150.208,-23.427
59.87,-153.296,-23.896
59.9,-156.454,-24.389
59.93,-159.859,-24.927
59.97,-163.158,-25.385
60.0,-165.474,-25.89
60.03,-168.211,-26.405
60.06,-171.089,-26.646
60.1,-173.546,-26.955
60.13,-176.318,-27.344
60.16,-178.74,-27.803
60.19,-181.793,-28.318
60.23,-185.057,-28.696
60.26,-187.724,-29.166
60.29,-190.286,-29.658
60.32,-192.638,-30.025
60.36,-194.919,-30.323
60.39,-197.27,-30.586
60.42,-199.306,-30.93
60.45,-201.622,-31.308
60.49,-204.008,-31.537
60.52,-205.798,-31.812
60.55,-207.413,-32.121
60.58,-209.062,-32.431
60.62,-210.852,-32.614
60.65,-212.852,-32.877
60.68,-214.748,-33.233
60.71,-216.853,-33.645
60.75,-219.029,-33.989
60.78,-221.17,-34.332
60.81,-223.135,-34.676
60.84,-224.925,-35.02
60.88,-226.785,-35.306
60.91,-228.821,-35.524
60.94,-230.821,-35.821
60.97,-232.401,-36.142
61.01,-234.506,-36.555
61.04,-236.998,-36.818
61.07,-238.402,-37.082
61.1,-239.665,-37.379
61.14,-241.034,-37.586
61.17,-242.929,-37.78
61.2,-245.0,-37.987
61.24,-246.79,-38.376
61.27,-248.299,-38.685
61.3,-249.527,-38.903
61.33,-251.141,-39.086
61.37,-252.51,-39.258
61.4,-253.773,-39.522
61.43,-255.212,-39.716
61.46,-256.546,-39.9
61.5,-258.09,-40.163
61.53,-259.599,-40.438
61.56,-260.898,-40.679
61.59,-261.81,-40.782
61.63,-262.653,-40.885
61.66,-263.705,-41.045
61.69,-265.004,-41.251
61.72,-266.478,-41.435
61.76,-267.952,-41.641
61.79,-269.215,-41.985
61.82,-270.549,-42.26
61.85,-271.848,-42.42
61.89,-273.111,-42.569
61.92,-274.199,-42.741
61.95,-275.041,-42.867
61.98,-275.919,-42.981
62.02,-277.077,-43.073
62.05,-278.059,-43.222
62.08,-279.077,-43.405
62.11,-279.814,-43.543
62.15,-280.481,-43.6
62.18,-280.867,-43.6
62.21,-281.148,-43.623
62.24,-281.534,-43.657
62.28,-282.341,-43.726
62.31,-282.973,-43.783
62.34,-283.464,-43.921
62.37,-283.745,-43.978
62.41,-283.955,-44.012
62.44,-284.096,-43.932
62.47,-283.92,-43.852
62.5,-283.64,-43.783
62.54,-283.85,-43.772
62.57,-284.061,-43.691
62.6,-284.026,-43.726
62.63,-283.64,-43.646
62.67,-283.745,-43.772
62.7,-283.99,-43.6
62.73,-282.657,-43.474
62.77,-282.622,-43.417
62.8,-282.692,-43.279
62.83,-282.727,-43.336
62.86,-282.762,-43.291
62.9,-281.99,-43.21
62.93,-281.148,-43.084
62.96,-280.305,-42.832
62.99,-279.393,-42.592
63.03,-279.218,-42.477
63.06,-279.358,-42.5
63.09,-279.428,-42.592
63.12,-278.972,-42.557
63.16,-277.744,-42.328
63.19,-276.094,-42.007
63.22,-274.55,-41.618
63.25,-273.111,-41.206
63.29,-271.672,-40.828
63.32,-270.163,-40.541
63.35,-268.338,-40.312
63.38,-266.794,-40.106
63.42,-265.495,-39.785
63.45,-263.776,-39.51
63.48,-262.267,-39.315
63.51,-260.863,-39.029
63.55,-259.354,-38.788
63.58,-258.125,-38.525
63.61,-256.546,-38.319
63.64,-255.212,-38.158
63.68,-254.054,-37.895
63.71,-252.44,-37.574
63.74,-250.685,-37.357
63.77,-249.281,-37.127
63.81,-248.228,-36.91
63.84,-247.141,-36.646
63.87,-245.421,-36.406
63.9,-243.736,-36.222
63.94,-242.192,-35.833
63.97,-239.911,-35.421
64.0,-237.981,-35.02
64.03,-236.191,-34.676
64.07,-234.436,-34.412
64.1,-232.576,-34.034
64.13,-230.435,-33.725
64.17,-228.821,-33.53
64.2,-227.101,-33.267
64.23,-225.136,-32.969
64.26,-223.311,-32.591
64.3,-221.205,-32.27
64.33,-219.17,-31.972
64.36,-217.274,-31.583
64.39,-215.204,-31.171
64.43,-213.063,-30.861
64.46,-210.992,-30.563
64.49,-208.571,-30.197
64.52,-206.219,-29.762
64.56,-203.868,-29.326
64.59,-201.517,-29.028
64.62,-199.516,-28.673
64.65,-197.27,-28.284
64.69,-194.954,-27.917
64.72,-192.462,-27.562
64.75,-189.76,-27.173
64.78,-187.163,-26.726
64.82,-184.46,-26.176
64.85,-181.337,-25.706
64.88,-178.529,-25.237
64.91,-175.652,-24.744
64.95,-173.055,-24.32
64.98,-170.317,-23.919
65.01,-167.404,-23.621
65.04,-164.948,-23.266
65.08,-162.245,-22.739
65.11,-159.262,-22.327
65.14,-156.735,-21.995
65.17,-154.279,-21.605
65.21,-151.576,-21.158
65.24,-148.488,-20.677
65.27,-144.943,-20.185
65.3,-141.223,-19.623
65.34,-138.065,-19.028
65.37,-135.187,-18.409
65.4,-131.712,-17.962
65.43,-128.659,-17.63
65.47,-125.781,-17.172
65.5,-122.693,-16.725
65.53,-119.85,-16.359
65.56,-116.656,-15.946
65.6,-113.077,-15.442
65.63,-110.023,-14.892
65.66,-107.251,-14.4
65.7,-104.268,-14.045
65.73,-101.39,-13.655
65.76,-98.126,-13.117
65.79,-94.231,-12.567
65.83,-90.616,-12.051
65.86,-87.141,-11.513
65.89,-84.018,-10.974
65.92,-81.0,-10.436
65.96,-77.525,-10.047
65.99,-74.191,-9.657
66.02,-70.892,-9.153
66.05,-67.488,-8.603
66.09,-64.049,-8.122
66.12,-60.645,-7.687
66.15,-57.416,-7.206
66.18,-54.152,-6.633
66.22,-50.221,-6.094
66.25,-46.571,-5.67
66.28,-43.237,-5.132
66.31,-39.587,-4.525
66.35,-36.078,-4.09
66.38,-34.183,-3.929
66.41,-31.656,-3.391
66.44,-25.97,-2.818
66.48,-22.215,-2.44
66.51,-18.916,-1.615
66.54,-15.617,-1.18
66.57,-13.406,-0.481
66.61,-8.914,0.069
66.64,-3.369,-0.092
66.67,0.211,-0.034
66.7,1.895,1.294
66.74,7.265,1.546
66.77,9.546,1.226
66.8,13.231,2.005
66.83,19.302,2.016
66.87,22.672,1.764
66.9,25.198,2.039
66.93,28.181,2.577
66.96,30.638,3.116
67.0,33.2,3.7
67.03,35.797,4.25
67.06,37.552,5.201
67.09,39.517,6.472
67.13,41.939,7.698
67.16,44.15,8.901
67.19,45.238,10.493
67.23,48.116,12.235
67.26,55.556,12.521
67.29,62.259,12.235
67.32,68.015,12.441
67.36,73.068,12.567
67.39,75.244,12.624
67.42,77.104,12.75
67.45,80.193,12.899
67.49,83.667,13.288
67.52,87.422,13.85
67.55,91.142,14.4
67.58,94.055,14.961
67.62,96.722,15.557
67.65,99.811,16.015
67.68,103.11,16.381
67.71,106.233,16.771
67.75,109.673,17.309
67.78,113.112,17.882
67.81,116.551,18.386
67.84,119.604,18.81
67.88,122.342,19.303
67.91,125.15,19.772
67.94,128.343,20.162
67.97,131.818,20.574
68.01,135.292,21.135
68.04,138.942,21.788
68.07,142.276,22.338
68.1,144.978,22.751
68.14,147.26,23.083
68.17,150.278,23.553
68.2,153.893,23.965
68.23,157.332,24.446
68.27,160.139,24.87
68.3,162.912,25.512
68.33,166.492,26.05
68.36,169.089,26.394
68.4,171.545,26.737
68.43,173.827,27.001
68.46,175.792,27.344
68.49,178.6,27.722
68.53,181.512,28.009
68.56,183.759,28.467
68.59,186.356,28.96
68.63,188.988,29.315
68.66,191.199,29.635
68.69,193.375,29.991
68.72,195.551,30.369
68.76,198.112,30.781
68.79,200.745,31.079
68.82,202.921,31.434
68.85,204.816,31.824
68.89,206.816,32.156
68.92,208.676,32.328
68.95,210.431,32.557
68.98,212.221,32.832
69.02,214.151,33.21
69.05,216.537,33.542
69.08,218.643,33.863
69.11,220.679,34.298
69.15,222.784,34.687
69.18,224.504,34.928
69.21,226.399,35.169
69.24,228.329,35.421
69.28,230.225,35.844
69.31,232.716,36.2
69.34,234.471,36.463
69.37,236.401,36.864
69.41,238.402,37.139
69.44,239.665,37.402
69.47,241.49,37.62
69.5,243.105,37.735
69.54,244.719,38.101
69.57,246.649,38.365
69.6,248.123,38.617
69.63,250.089,38.903
69.67,251.598,39.144
69.7,252.686,39.43
69.73,254.124,39.59
69.76,255.458,39.716
69.8,256.827,39.945
69.83,258.441,40.22
69.86,259.88,40.472
69.89,261.284,40.679
69.93,262.161,40.805
69.96,263.039,41.034
69.99,264.162,41.148
70.02,265.495,41.286
70.06,267.004,41.469
70.09,268.268,41.79
70.12,269.672,42.065
70.16,271.005,42.282
70.19,272.374,42.454
70.22,273.286,42.638
70.25,274.374,42.809
70.29,275.322,42.878
70.32,276.34,42.981
70.35,277.393,43.13
70.38,278.516,43.336
70.42,279.604,43.508
70.45,280.516,43.634
70.48,281.042,43.703
70.51,281.429,43.726
70.55,281.534,43.703
70.58,281.99,43.68
70.61,282.657,43.691
70.64,283.253,43.817
70.68,283.64,43.932
70.71,284.096,44.035
70.74,284.377,44.001
70.77,284.377,43.989
70.81,284.201,43.921
70.84,284.166,43.886
70.87,284.587,43.84
70.9,284.692,43.84
70.94,284.727,43.863
70.97,284.482,43.829
71.0,284.271,43.772
71.03,284.131,43.657
71.07,283.78,43.588
71.1,283.324,43.497
71.13,283.85,43.565
71.16,284.061,43.462
71.2,283.043,43.474
71.23,282.973,43.405
71.26,282.271,43.165
71.29,281.288,42.97
71.33,280.235,42.66
71.36,279.112,42.454
71.39,278.761,42.34
71.42,278.516,42.191
71.46,277.463,42.111
71.49,276.234,41.985
71.52,274.725,41.71
71.55,273.462,41.366
71.59,272.269,41.034
71.62,271.111,40.896
71.65,270.163,40.736
71.69,268.97,40.518
71.72,267.601,40.278
71.75,266.162,40.003
71.78,264.407,39.728
71.82,262.968,39.419
71.85,261.635,39.121
71.88,260.301,38.892
71.91,258.932,38.697
71.95,257.494,38.479
71.98,256.23,38.239
72.01,254.897,37.975
72.04,253.212,37.78
72.08,251.562,37.494
72.11,249.983,37.162
72.14,248.579,36.83
72.17,246.649,36.578
72.21,245.316,36.417
72.24,244.017,36.028
72.27,241.666,35.695
72.3,239.806,35.375
72.34,237.77,34.997
72.37,236.156,34.71
72.4,234.787,34.367
72.43,232.857,34.126
72.47,230.681,33.886
72.5,228.856,33.622
72.53,227.522,33.278
72.56,225.522,32.912
72.6,223.276,32.694
72.63,221.521,32.339
72.66,219.415,31.927
72.69,217.45,31.549
72.73,215.555,31.262
72.76,213.66,30.987
72.79,211.449,30.586
72.82,208.746,30.128
72.86,206.044,29.762
72.89,203.833,29.372
72.92,201.552,28.96
72.95,199.692,28.593
72.99,197.551,28.295
73.02,195.164,28.043
73.05,192.778,27.642
73.08,190.286,27.161
73.12,187.549,26.737
73.15,184.741,26.371
73.18,182.425,25.935
73.22,180.319,25.443
73.25,177.582,24.996
73.28,174.634,24.721
73.31,171.791,24.286
73.35,168.633,23.759
73.38,165.649,23.197
73.41,162.491,22.728
73.44,159.753,22.361
73.48,157.262,21.926
73.51,154.454,21.456
73.54,151.225,21.055
73.57,147.751,20.597
73.61,144.417,20.082
73.64,141.469,19.463
73.67,138.24,18.959
73.7,135.187,18.581
73.74,132.169,18.146
73.77,129.291,17.699
73.8,126.167,17.195
73.83,122.588,16.794
73.87,119.78,16.427
73.9,116.937,15.82
73.93,113.112,15.293
73.96,110.023,14.904
74.0,107.356,14.48
74.03,104.689,14.09
74.06,101.952,13.655
74.09,98.547,13.208
74.13,94.547,12.727
74.16,90.897,12.109
74.19,87.141,11.364
74.22,83.351,10.791
74.26,80.228,10.356
74.29,76.929,9.852
74.32,73.595,9.416
74.35,70.19,8.924
74.39,66.541,8.523
74.42,63.522,8.133
74.45,60.82,7.629
74.48,57.556,7.171
74.52,54.398,6.816
74.55,50.993,6.346
74.58,47.449,5.831
74.62,44.22,5.281
74.65,40.675,4.754
74.68,37.236,4.376
74.71,36.043,4.204
74.75,32.779,3.379
74.78,25.935,2.887
74.81,22.075,2.429
74.84,18.285,1.512
74.88,16.144,1.031
74.91,13.863,0.298
74.94,8.949,0.218
74.97,4.387,0.195
75.01,0.246,-0.057
75.04,-1.053,-1.1
75.07,-5.615,-1.409
75.1,-7.791,-1.283
75.14,-12.494,-1.982
75.17,-18.671,-1.707
75.2,-21.303,-1.787
75.23,-24.707,-2.394
75.27,-28.813,-2.715
75.3,-31.656,-2.944
75.33,-33.27,-3.551
75.36,-34.92,-4.502
75.4,-37.131,-5.476
75.43,-39.587,-6.358
75.46,-41.623,-7.48
75.49,-43.588,-9.016
75.53,-45.308,-10.757
75.56,-49.379,-12.177
75.59,-56.749,-12.246
75.62,-62.399,-12.109
75.66,-68.05,-12.338
75.69,-72.823,-12.326
75.72,-74.998,-12.475
75.75,-77.385,-12.784
75.79,-80.508,-13.036
75.82,-83.772,-13.334
75.85,-87.247,-13.804
75.88,-90.616,-14.365
75.92,-93.634,-14.972
75.95,-96.758,-15.499
75.98,-99.881,-15.877
76.01,-102.654,-16.301
76.05,-105.847,-16.84
76.08,-109.427,-17.298
76.11,-112.901,-17.779
76.15,-116.165,-18.283
76.18,-119.148,-18.844
76.21,-122.307,-19.348
76.24,-125.465,-19.715
76.28,-128.519,-20.139
76.31,-131.712,-20.654
76.34,-135.117,-21.204
76.37,-138.872,-21.754
76.41,-142.451,-22.247
76.44,-144.662,-22.693
76.47,-147.189,-23.22
76.5,-150.523,-23.507
76.54,-153.542,-23.839
76.57,-156.56,-24.343
76.6,-159.824,-24.927
76.63,-162.912,-25.42
76.67,-165.579,-25.821
76.7,-168.387,-26.245
76.73,-170.844,-26.646
76.76,-173.405,-27.035
76.8,-176.248,-27.31
76.83,-178.635,-27.688
76.86,-181.512,-28.261
76.89,-184.741,-28.753
76.93,-187.584,-29.154
76.96,-190.216,-29.555
76.99,-192.497,-29.945
77.02,-194.533,-30.334
77.06,-197.025,-30.609
77.09,-199.376,-30.827
77.12,-201.552,-31.228
77.15,-203.833,-31.606
77.19,-205.798,-31.881
77.22,-207.588,-32.087
77.25,-209.062,-32.339
77.28,-210.677,-32.625
77.32,-212.642,-32.9
77.35,-214.677,-33.152
77.38,-216.643,-33.507
77.41,-218.819,-33.943
77.45,-220.995,-34.344
77.48,-223.1,-34.664
77.51,-224.995,-34.917
77.54,-226.61,-35.249
77.58,-228.645,-35.604
77.61,-231.032,-35.867
77.64,-232.646,-36.096
77.68,-234.612,-36.555
77.71,-236.963,-36.864
77.74,-238.297,-37.127
77.77,-239.876,-37.334
77.81,-241.209,-37.494
77.84,-242.859,-37.815
77.87,-244.824,-38.044
77.9,-246.719,-38.296
77.94,-248.193,-38.548
77.97,-249.281,-38.869
78.0,-251.141,-39.121
78.03,-252.51,-39.247
78.07,-253.809,-39.476
78.1,-255.177,-39.693
78.13,-256.441,-39.923
78.16,-258.055,-40.14
78.2,-259.634,-40.358
78.23,-260.933,-40.633
78.26,-261.81,-40.816
78.29,-262.723,-40.954
78.33,-263.881,-41.011
78.36,-265.074,-41.206
78.39,-266.548,-41.492
78.42,-268.127,-41.744
78.46,-269.531,-41.962
78.49,-270.9,-42.214
78.52,-271.988,-42.466
78.55,-273.076,-42.626
78.59,-274.164,-42.683
78.62,-274.971,-42.775
78.65,-275.848,-42.901
78.68,-277.007,-43.061
78.72,-278.2,-43.199
78.75,-279.112,-43.348
78.78,-279.779,-43.508
78.81,-280.341,-43.588
78.85,-280.727,-43.588
78.88,-281.042,-43.565
78.91,-281.429,-43.577
78.94,-282.201,-43.669
78.98,-282.867,-43.795
79.01,-283.464,-43.875
79.04,-283.71,-43.921
79.08,-283.955,-43.955
79.11,-284.061,-43.943
79.14,-284.026,-43.875
79.17,-283.675,-43.726
79.21,-283.815,-43.714
79.24,-283.99,-43.68
79.27,-284.026,-43.714
79.3,-283.815,-43.634
79.34,-283.955,-43.737
79.37,-284.061,-43.6
79.4,-282.797,-43.52
79.43,-282.938,-43.428
79.47,-283.078,-43.302
79.5,-283.043,-43.371
79.53,-282.903,-43.336
79.56,-282.166,-43.245
79.6,-281.464,-43.061
79.63,-280.656,-42.821
79.66,-279.639,-42.603
79.69,-279.077,-42.454
79.73,-278.972,-42.351
79.76,-278.656,-42.317
79.79,-277.884,-42.305
79.82,-276.761,-42.099
79.86,-275.252,-41.755
79.89,-273.743,-41.4
79.92,-272.304,-41.068
79.95,-271.075,-40.85
79.99,-270.268,-40.633
80.02,-269.005,-40.392
80.05,-267.566,-40.278
80.08,-266.302,-40.049
80.12,-264.478,-39.716
80.15,-262.898,-39.396
80.18,-261.459,-39.063
80.21,-260.02,-38.846
80.25,-258.757,-38.617
80.28,-257.388,-38.365
80.31,-255.984,-38.181
80.34,-254.475,-37.987
80.38,-252.65,-37.677
80.41,-251.247,-37.368
80.44,-249.948,-37.036
80.47,-248.369,-36.91
80.51,-247.246,-36.715
80.54,-245.456,-36.383
80.57,-243.701,-36.085
80.61,-242.262,-35.753
80.64,-240.086,-35.421
80.67,-238.226,-35.111
80.7,-236.507,-34.676
80.74,-234.612,-34.401
80.77,-232.611,-34.08
80.8,-230.365,-33.817
80.83,-229.031,-33.485
80.87,-226.961,-33.072
80.9,-224.504,-32.843
80.93,-222.574,-32.522
80.96,-220.573,-32.098
81.0,-218.678,-31.743
81.03,-216.853,-31.457
81.06,-214.888,-31.205
81.09,-213.028,-30.907
81.13,-211.098,-30.518
81.16,-208.29,-30.105
81.19,-205.553,-29.773
81.22,-203.552,-29.338
81.26,-201.482,-28.891
81.29,-199.411,-28.57
81.32,-197.095,-28.307
81.35,-194.849,-28.009
81.39,-192.567,-27.562
81.42,-189.795,-27.058
81.45,-186.777,-26.691
81.48,-184.32,-26.279
81.52,-182.004,-25.752
81.55,-179.547,-25.271
81.58,-176.564,-24.904
81.61,-173.686,-24.607
81.65,-171.159,-24.137
81.68,-168.387,-23.667
81.71,-165.614,-23.266
81.74,-162.596,-22.854
81.78,-159.753,-22.419
81.81,-157.297,-21.949
81.84,-154.63,-21.502
81.87,-151.366,-21.135
81.91,-148.102,-20.677
81.94,-144.768,-20.07
81.97,-141.258,-19.452
82.0,-137.819,-18.959
82.04,-134.625,-18.466
82.07,-131.467,-17.951
82.1,-128.589,-17.481
82.14,-125.641,-17.115
82.17,-122.798,-16.84
82.2,-120.026,-16.416
82.23,-116.762,-15.889
82.27,-113.182,-15.408
82.3,-110.094,-15.007
82.33,-107.883,-14.583
82.36,-105.251,-14.113
82.4,-102.197,-13.758
82.43,-98.547,-13.277
82.46,-94.336,-12.704
82.49,-90.616,-11.983
82.53,-86.861,-11.272
82.56,-83.316,-10.791
82.59,-80.052,-10.31
82.62,-76.683,-9.84
82.66,-74.823,-9.691
82.69,-73.84,-9.554
82.72,-71.664,-9.542
82.75,-69.348,-9.336
82.79,-65.944,-8.752
82.82,-61.662,-8.225
82.85,-58.609,-7.606
82.88,-55.064,-6.816
82.92,-50.993,-6.129
82.95,-46.642,-5.43
82.98,-41.869,-4.731
83.01,-37.236,-4.135
83.05,-34.814,-3.677
83.08,-30.112,-2.738
83.11,-23.058,-2.234
83.14,-18.671,-1.684
83.18,-14.915,-0.687
83.21,-10.844,-0.149
83.24,-5.861,-0.115
83.27,-0.948,-0.16
83.31,0.597,0.412
83.34,2.422,1.294
83.37,5.405,0.962
83.4,6.142,1.501
83.44,11.862,1.993
83.47,16.635,1.512
83.5,19.653,1.718
83.53,22.882,2.119
83.57,26.006,2.36
83.6,28.778,2.577
83.63,31.761,3.036
83.67,34.113,3.803
83.7,36.639,4.869
83.73,39.482,5.785
83.76,41.412,6.759
83.8,42.43,8.179
83.83,44.044,9.875
83.86,46.817,11.478
83.89,53.731,12.109
83.93,60.504,11.983
83.96,65.979,12.246
83.99,71.138,12.315
84.02,73.489,12.292
84.06,74.998,12.452
84.09,78.122,12.704
84.12,81.912,12.956
84.15,85.492,13.426
84.19,88.826,14.045
84.22,91.949,14.72
84.25,95.178,15.259
84.28,98.126,15.683
84.32,101.285,16.118
84.35,104.654,16.645
84.38,108.374,17.195
84.41,112.024,17.687
84.45,115.358,18.168
84.48,118.481,18.764
84.51,121.71,19.28
84.54,124.728,19.635
84.58,127.536,19.99
84.61,130.624,20.448
84.64,134.134,20.998
84.67,137.608,21.491
84.71,140.907,21.972
84.74,143.61,22.441
84.77,145.926,22.888
84.8,148.558,23.255
84.84,151.611,23.53
84.87,154.875,23.999
84.9,158.49,24.607
84.93,161.649,25.191
84.97,164.561,25.683
85.0,167.299,26.13
85.03,170.107,26.565
85.07,172.984,26.978
85.1,175.195,27.092
85.13,173.019,26.554
85.16,168.808,26.038
85.2,168.387,25.477
85.23,169.826,25.053
85.26,171.826,25.328
85.29,174.283,26.004
85.33,176.108,26.898
85.36,179.898,27.997
85.39,184.846,28.811
85.42,188.918,29.853
85.46,193.971,30.884
85.49,197.937,31.491
85.52,200.745,31.984
85.55,203.763,32.247
85.59,205.798,32.373
85.62,208.15,32.614
85.65,210.852,32.751
85.68,213.344,33.095
85.72,216.292,33.588
85.75,218.643,34.057
85.78,221.205,34.573
85.81,224.013,34.871
85.85,225.522,35.191
85.88,227.592,35.581
85.91,229.803,35.753
85.94,231.699,36.016
85.98,234.085,36.348
86.01,235.699,36.658
86.04,237.384,37.013
86.07,239.49,37.208
86.11,240.578,37.368
86.14,241.946,37.666
86.17,243.596,37.838
86.2,245.14,38.032
86.24,247.141,38.319
86.27,248.79,38.651
86.3,250.229,39.006
86.33,251.808,39.189
86.37,253.036,39.338
86.4,254.23,39.579
86.43,256.02,39.842
86.46,257.774,40.106
86.5,259.354,40.369
86.53,260.722,40.633
86.56,261.705,40.828
86.6,262.582,40.965
86.63,263.565,40.965
86.66,264.513,41.068
86.69,265.741,41.286
86.73,267.145,41.526
86.76,268.584,41.744
86.79,269.882,41.985
86.82,271.111,42.294
86.86,272.269,42.489
86.89,273.216,42.58
86.92,274.129,42.66
86.95,274.936,42.775
86.99,275.989,42.935
87.02,277.322,43.096
87.05,278.516,43.268
87.08,279.463,43.474
87.12,280.165,43.6
87.15,280.621,43.669
87.18,281.078,43.646
87.21,281.358,43.623
87.25,281.709,43.646
87.28,282.411,43.726
87.31,283.043,43.806
87.34,283.359,43.875
87.38,283.604,43.909
87.41,283.71,43.932
87.44,283.815,43.886
87.47,283.71,43.806
87.51,283.78,43.783
87.54,284.096,43.817
87.57,284.447,43.863
87.6,284.692,43.898
87.64,284.798,43.909
87.67,284.692,43.909
87.7,284.306,43.806
87.73,283.604,43.611
87.77,283.113,43.428
87.8,283.183,43.371
87.83,283.289,43.348
87.86,282.938,43.325
87.9,282.025,43.176
87.93,280.867,42.981
87.96,279.744,42.672
87.99,278.867,42.443
88.03,278.445,42.248
88.06,277.954,42.202
88.09,277.463,42.214
88.13,276.796,42.134
88.16,275.954,41.939
88.19,274.62,41.698
88.22,273.322,41.469
88.26,272.163,41.183
88.29,271.286,40.931
88.32,270.514,40.724
88.35,269.321,40.621
88.39,268.268,40.507
88.42,267.039,40.22
88.45,265.46,39.934
88.48,263.881,39.625
88.52,262.302,39.315
88.55,260.933,39.041
88.58,259.74,38.743
88.61,258.16,38.514
88.65,256.651,38.342
88.68,255.388,38.113
88.71,253.984,37.815
88.74,252.37,37.563
88.78,250.896,37.425
88.81,249.667,37.162
88.84,247.913,36.818
88.87,246.368,36.532
88.91,244.789,36.245
88.94,243.14,35.993
88.97,241.525,35.673
89.0,239.525,35.272
89.04,237.595,34.997
89.07,236.05,34.71
89.1,234.085,34.367
89.13,232.541,34.092
89.17,230.435,33.691
89.2,227.557,33.404
89.23,225.171,32.877
89.26,222.293,32.293
89.3,220.433,31.984
89.33,219.345,31.743
89.36,217.204,31.491
89.39,215.099,31.285
89.43,213.309,30.93
89.46,210.887,30.632
89.49,208.817,30.346
89.53,206.956,29.91
89.56,204.71,29.498
89.59,202.254,29.177
89.62,200.183,28.868
89.66,198.148,28.478
89.69,195.796,28.055
89.72,193.234,27.677
89.75,190.427,27.241
89.79,187.654,26.806
89.82,185.162,26.29
89.85,182.565,25.867
89.88,180.074,25.512
89.92,177.512,25.133
89.95,174.774,24.698
89.98,171.896,24.251
90.01,168.703,23.816
90.05,165.79,23.369
90.08,162.877,22.785
90.11,160.069,22.327
90.14,156.805,21.823
90.18,153.156,21.433
90.21,150.278,20.895
90.24,146.979,20.276
90.27,143.855,19.91
90.31,141.328,19.532
90.34,138.135,19.073
90.37,136.345,18.902
90.4,134.204,18.363
90.44,130.309,18.191
90.47,127.852,17.745
90.5,124.097,17.011
90.53,120.868,16.565
90.57,118.095,16.003
90.6,114.235,15.465
90.63,110.69,14.949
90.66,107.918,14.4
90.7,104.794,13.999
90.73,101.811,13.689
90.76,98.933,13.243
90.79,95.319,12.67
90.83,91.212,12.166
90.86,87.422,11.582
90.89,83.913,10.974
90.92,80.93,10.413
90.96,77.56,9.909
90.99,74.016,9.565
91.02,70.717,9.107
91.06,67.278,8.546
91.09,63.803,8.065
91.12,60.645,7.664
91.15,57.521,7.217
91.19,54.538,6.77
91.22,51.274,6.266
91.25,47.589,5.842
91.28,43.974,5.338
91.32,40.605,4.811
91.35,37.376,4.239
91.38,35.587,4.17
91.41,33.937,3.746
91.45,27.795,3.036
91.48,23.128,2.681
91.51,19.829,1.741
91.54,16.179,1.283
91.58,14.354,0.733
91.61,10.564,0.0
91.64,4.317,-0.057
91.67,0.07,0.034
91.71,-1.509,-1.226
91.74,-6.563,-1.466
91.77,-8.423,-1.054
91.8,-10.88,-1.776
91.84,-16.039,-1.913
91.87,-20.11,-1.787
91.9,-24.075,-1.982
91.93,-27.655,-2.406
91.97,-30.708,-3.07
92.0,-33.551,-3.723
92.03,-35.902,-4.296
92.06,-37.587,-5.212
92.1,-39.377,-6.461
92.13,-41.447,-7.778
92.16,-43.939,-9.016
92.19,-45.378,-10.516
92.23,-48.888,-12.2
92.26,-56.889,-12.361
92.29,-62.329,-12.051
92.32,-67.558,-12.28
92.36,-72.331,-12.315
92.39,-74.648,-12.498
92.42,-77.42,-12.75
92.45,-80.614,-12.91
92.49,-83.316,-13.334
92.52,-86.931,-13.896
92.55,-90.475,-14.342
92.59,-93.353,-14.858
92.62,-96.231,-15.396
92.65,-99.355,-15.9
92.68,-102.583,-16.336
92.72,-106.023,-16.748
92.75,-109.357,-17.286
92.78,-112.796,-17.871
92.81,-116.095,-18.398
92.85,-119.289,-18.81
92.88,-122.131,-19.234
92.91,-124.869,-19.715
92.94,-128.133,-20.185
92.98,-131.502,-20.54
93.01,-135.011,-21.135
93.04,-138.977,-21.766
93.07,-141.96,-22.338
93.11,-144.698,-22.762
93.14,-146.873,-23.037
93.17,-149.821,-23.484
93.2,-153.085,-23.816
93.24,-155.788,-24.24
93.27,-159.332,-24.755
93.3,-162.21,-25.202
93.33,-164.632,-25.821
93.37,-167.966,-26.279
93.4,-170.668,-26.554
93.43,-173.3,-27.024
93.46,-176.318,-27.447
93.5,-178.67,-27.848
93.53,-181.302,-28.261
93.56,-184.285,-28.639
93.59,-186.987,-29.097
93.63,-189.76,-29.544
93.66,-192.322,-29.876
93.69,-194.392,-30.208
93.72,-196.568,-30.563
93.76,-198.779,-30.93
93.79,-201.411,-31.262
93.82,-203.833,-31.526
93.85,-205.658,-31.904
93.89,-207.413,-32.236
93.92,-209.027,-32.408
93.95,-210.641,-32.602
93.99,-212.537,-32.855
94.02,-214.467,-33.198
94.05,-216.608,-33.588
94.08,-218.924,-33.908
94.12,-220.854,-34.286
94.15,-222.784,-34.733
94.18,-225.171,-35.088
94.21,-227.277,-35.352
94.25,-229.488,-35.741
94.28,-231.699,-36.085
94.31,-233.278,-36.406
94.34,-235.033,-36.681
94.38,-237.068,-36.864
94.41,-238.472,-37.116
94.44,-240.157,-37.414
94.47,-241.35,-37.505
94.51,-242.824,-37.757
94.54,-244.965,-38.021
94.57,-246.544,-38.376
94.6,-248.158,-38.662
94.64,-249.387,-38.8
94.67,-250.615,-39.029
94.7,-252.054,-39.247
94.73,-253.598,-39.453
94.77,-254.967,-39.659
94.8,-256.406,-39.911
94.83,-257.95,-40.209
94.86,-259.634,-40.518
94.9,-261.179,-40.724
94.93,-261.951,-40.85
94.96,-262.793,-41.022
94.99,-263.881,-41.148
95.03,-265.285,-41.286
95.06,-266.759,-41.446
95.09,-268.092,-41.733
95.12,-269.356,-42.042
95.16,-270.76,-42.271
95.19,-271.953,-42.386
95.22,-272.935,-42.569
95.25,-273.883,-42.729
95.29,-274.76,-42.821
95.32,-275.743,-42.89
95.35,-276.901,-43.05
95.38,-277.954,-43.245
95.42,-279.007,-43.439
95.45,-279.849,-43.543
95.48,-280.446,-43.634
95.52,-281.007,-43.691
95.55,-281.288,-43.703
95.58,-281.744,-43.737
95.61,-282.552,-43.749
95.65,-283.148,-43.863
95.68,-283.64,-43.955
95.71,-283.85,-44.012
95.74,-284.201,-43.989
95.78,-284.096,-43.943
95.81,-283.885,-43.863
95.84,-283.569,-43.806
95.87,-284.061,-43.749
95.91,-284.026,-43.703
95.94,-283.99,-43.749
95.97,-283.464,-43.669
96.0,-283.955,-43.783
96.04,-283.815,-43.531
96.07,-282.552,-43.531
96.1,-282.938,-43.451
96.13,-282.938,-43.359
96.17,-283.043,-43.417
96.2,-282.727,-43.359
96.23,-281.92,-43.268
96.26,-281.218,-43.073
96.3,-280.446,-42.798
96.33,-279.568,-42.603
96.36,-279.112,-42.489
96.39,-278.726,-42.408
96.43,-278.481,-42.351
96.46,-277.744,-42.26
96.49,-276.375,-42.088
96.52,-275.006,-41.801
96.56,-273.708,-41.435
96.59,-272.514,-41.091
96.62,-271.426,-40.965
96.65,-270.584,-40.805
96.69,-269.356,-40.61
96.72,-268.057,-40.392
96.75,-266.443,-40.083
96.78,-264.407,-39.762
96.82,-262.898,-39.407
96.85,-261.354,-39.029
96.88,-259.95,-38.811
96.91,-258.757,-38.617
96.95,-257.283,-38.41
96.98,-256.055,-38.227
97.01,-254.581,-37.964
97.05,-252.58,-37.735
97.08,-251.176,-37.494
97.11,-250.089,-37.127
97.14,-248.755,-36.921
97.18,-247.281,-36.726
97.21,-245.596,-36.532
97.24,-244.579,-36.268
97.27,-242.719,-35.867
97.31,-240.367,-35.569
97.34,-238.647,-35.18
97.37,-236.787,-34.813
97.4,-235.489,-34.516
97.44,-233.348,-34.16
97.47,-231.137,-34.012
97.5,-229.628,-33.633
97.53,-227.277,-33.187
97.57,-224.89,-32.843
97.6,-222.749,-32.499
97.63,-220.644,-32.133
97.66,-218.924,-31.766
97.7,-217.029,-31.445
97.73,-214.888,-31.205
97.76,-212.958,-30.93
97.79,-210.677,-30.483
97.83,-208.044,-30.071
97.86,-205.728,-29.75
97.89,-203.693,-29.395
97.92,-201.447,-29.017
97.96,-199.481,-28.627
97.99,-197.305,-28.318
98.02,-195.024,-28.078
98.05,-192.708,-27.642
98.09,-189.935,-27.127
98.12,-186.987,-26.68
98.15,-184.18,-26.256
98.18,-181.618,-25.786
98.22,-179.477,-25.294
98.25,-177.02,-24.916
98.28,-174.072,-24.641
98.31,-171.265,-24.24
98.35,-168.246,-23.747
98.38,-165.509,-23.243
98.41,-162.561,-22.797
98.44,-159.824,-22.441
98.48,-157.367,-21.995
98.51,-154.63,-21.514
98.54,-151.366,-21.124
98.58,-148.032,-20.677
98.61,-144.627,-20.104
98.64,-141.188,-19.452
98.67,-138.275,-19.016
98.71,-135.538,-18.592
98.74,-132.414,-18.214
98.77,-129.396,-17.722
98.8,-125.606,-17.149
98.84,-122.026,-16.748
98.87,-119.078,-16.21
98.9,-115.884,-15.648
98.93,-112.726,-15.167
98.97,-109.567,-14.789
99.0,-106.9,-14.48
99.03,-104.303,-14.056
99.06,-101.32,-13.609
99.1,-97.635,-13.151
99.13,-93.95,-12.681
99.16,-90.405,-12.005
99.19,-86.79,-11.375
99.23,-83.878,-10.906
99.26,-80.93,-10.505
99.29,-77.876,-10.15
99.32,-74.928,-9.714
99.36,-71.664,-9.279
99.39,-68.155,-8.867
99.42,-64.891,-8.397
99.45,-61.627,-7.801
99.49,-58.223,-7.263
99.52,-54.678,-6.747
99.55,-50.818,-6.255
99.58,-47.238,-5.682
99.62,-43.518,-5.04
99.65,-39.201,-4.445
99.68,-35.481,-4.067
99.71,-33.691,-3.735
99.75,-29.761,-2.921
99.78,-23.759,-2.509
99.81,-20.039,-2.016
99.84,-16.495,-1.26
99.88,-14.81,-0.699
99.91,-11.792,-0.206
99.94,-7.44,-0.286
99.98,-3.053,-0.172
100.01,0.281,0.092
100.04,1.299,1.111
100.07,5.545,1.283
100.11,7.51,1.34
100.14,12.494,2.005
100.17,18.741,1.73
100.2,21.478,1.821
100.24,24.567,2.325
100.27,28.111,2.589
100.3,31.024,2.852
100.33,33.376,3.494
100.37,35.446,4.41
100.4,37.798,5.453
100.43,40.465,6.392
100.46,42.325,7.549
100.5,43.799,9.096
100.53,44.887,10.814
100.56,48.888,12.109
100.59,56.714,12.166
100.63,62.82,12.051
100.66,68.471,12.349
100.69,73.033,12.349
100.72,74.472,12.395
100.76,76.262,12.658
100.79,79.947,12.853
100.82,83.492,13.162
100.85,87.141,13.735
100.89,90.475,14.342
100.92,93.423,15.007
100.95,96.793,15.557
100.98,100.127,15.946
101.02,103.145,16.45
101.05,106.76,17.034
101.08,110.445,17.493
101.11,113.744,17.974
101.15,116.937,18.455
101.18,119.92,19.005
101.21,123.325,19.486
101.24,126.624,19.864
101.28,129.536,20.276
101.31,132.484,20.78
101.34,135.924,21.319
101.37,139.433,21.777
101.41,142.522,22.235
101.44,144.908,22.682
101.47,146.873,23.06
101.51,150.032,23.404
101.54,153.261,23.69
101.57,156.454,24.286
101.6,159.402,24.813
101.64,162.421,25.42
101.67,165.72,25.764
101.7,167.229,26.05
101.73,168.773,26.359
101.77,170.422,26.394
101.8,172.423,26.554
101.83,175.441,26.909
101.86,178.249,27.447
101.9,181.021,28.1
101.93,184.039,28.662
101.96,186.987,29.131
101.99,189.83,29.67
102.03,193.024,30.197
102.06,196.217,30.644
102.09,199.306,31.102
102.12,201.868,31.537
102.16,204.254,31.972
102.19,206.816,32.247
102.22,208.922,32.431
102.25,210.571,32.683
102.29,212.361,32.981
102.32,214.256,33.187
102.35,216.397,33.473
102.38,218.433,33.759
102.42,220.117,34.138
102.45,221.872,34.458
102.48,223.732,34.653
102.51,225.171,34.848
102.55,226.855,35.214
102.58,228.821,35.466
102.61,230.611,35.764
102.64,232.541,36.016
102.68,233.488,36.268
102.71,235.349,36.681
102.74,237.56,36.83
102.77,238.788,37.105
102.81,240.543,37.402
102.84,242.052,37.666
102.87,244.087,38.01
102.9,245.807,38.136
102.94,246.895,38.433
102.97,248.685,38.766
103.0,250.194,38.914
103.04,251.562,39.155
103.07,253.142,39.338
103.1,254.44,39.613
103.13,256.02,39.9
103.17,257.739,40.129
103.2,259.143,40.381
103.23,260.687,40.667
103.26,261.81,40.839
103.3,262.688,40.988
103.33,263.951,41.022
103.36,265.039,41.24
103.39,266.548,41.492
103.43,267.952,41.733
103.46,269.391,41.927
103.49,270.619,42.202
103.52,271.988,42.477
103.56,273.216,42.649
103.59,274.374,42.764
103.62,275.287,42.878
103.65,276.375,43.05
103.69,277.463,43.187
103.72,278.726,43.336
103.75,279.744,43.508
103.78,280.551,43.657
103.82,281.148,43.76
103.85,281.604,43.783
103.88,282.06,43.737
103.91,282.481,43.783
103.95,283.148,43.863
103.98,283.92,43.966
104.01,284.412,44.047
104.04,284.692,44.104
104.08,284.833,44.127
104.11,284.868,44.081
104.14,284.552,43.909
104.17,284.271,43.829
104.21,284.692,43.829
104.24,284.938,43.84
104.27,284.938,43.875
104.3,284.727,43.84
104.34,284.447,43.806
104.37,284.236,43.726
104.4,283.885,43.6
104.44,283.85,43.565
104.47,284.552,43.623
104.5,284.412,43.588
104.53,283.78,43.623
104.57,283.569,43.451
104.6,282.832,43.279
104.63,281.885,43.05
104.66,280.621,42.752
104.7,279.639,42.512
104.73,279.218,42.328
104.76,278.481,42.225
104.79,277.533,42.145
104.83,276.27,41.893
104.86,274.655,41.595
104.89,273.462,41.32
104.92,272.093,41.08
104.96,271.075,40.896
104.99,270.233,40.667
105.02,269.04,40.507
105.05,267.812,40.392
105.09,266.443,40.14
105.12,264.793,39.785
105.15,263.284,39.453
105.18,261.81,39.178
105.22,260.617,38.937
105.25,259.213,38.685
105.28,257.704,38.445
105.31,256.195,38.239
105.35,254.651,38.01
105.38,253.036,37.666
105.41,251.352,37.322
105.44,249.597,37.047
105.48,247.913,36.807
105.51,246.088,36.474
105.54,244.649,36.188
105.57,243.105,35.844
105.61,240.858,35.604
105.64,239.034,35.249
105.67,237.068,34.848
105.7,235.419,34.55
105.74,233.769,34.309
105.77,232.155,34.126
105.8,230.365,33.771
105.83,228.54,33.53
105.87,227.171,33.301
105.9,225.171,33.026
105.93,223.276,32.694
105.97,221.591,32.293
106.0,219.696,31.995
106.03,218.082,31.766
106.06,216.397,31.457
106.1,214.221,31.056
106.13,211.624,30.655
106.16,209.062,30.277
106.19,206.816,29.853
106.23,204.535,29.361
106.26,202.148,28.994
106.29,200.043,28.731
106.32,197.832,28.398
106.36,195.551,28.032
106.39,193.024,27.574
106.42,190.216,27.184
106.45,187.408,26.772
106.49,184.776,26.279
106.52,182.32,25.775
106.55,179.723,25.351
106.58,176.845,25.019
106.62,174.458,24.652
106.65,171.581,24.114
106.68,168.071,23.679
106.71,165.228,23.255
106.75,162.421,22.739
106.78,159.718,22.27
106.81,157.297,21.892
106.84,154.524,21.594
106.88,151.717,21.239
106.91,148.488,20.677
106.94,144.978,20.116
106.97,141.469,19.566
107.01,138.24,19.073
107.04,135.432,18.524
107.07,132.449,18.031
107.1,129.361,17.699
107.14,126.132,17.286
107.17,122.868,16.84
107.2,120.236,16.359
107.23,116.692,15.763
107.27,112.761,15.408
107.3,110.339,14.949
107.33,107.848,14.423
107.36,104.97,14.102
107.4,102.092,13.804
107.43,98.863,13.346
107.46,95.108,12.75
107.5,91.388,12.143
107.53,87.563,11.513
107.56,83.983,10.997
107.59,80.894,10.425
107.63,77.49,9.886
107.66,73.981,9.508
107.69,70.541,9.084
107.72,67.313,8.592
107.76,64.084,8.088
107.79,60.715,7.618
107.82,57.31,7.24
107.85,54.503,6.793
107.89,51.379,6.266
107.92,47.835,5.819
107.95,44.115,5.35
107.98,40.359,4.788
108.02,36.674,4.181
108.05,35.06,4.021
108.08,32.568,3.391
108.11,26.041,2.818
108.15,21.97,2.44
108.18,18.951,1.42
108.21,15.758,0.951
108.24,13.687,0.699
108.28,10.915,0.252
108.31,6.107,-0.092
108.34,0.667,0.034
108.37,-0.772,-0.916
108.41,-5.58,-1.673
108.44,-9.862,-1.283
108.47,-13.406,-1.799
108.5,-18.881,-2.039
108.54,-22.496,-2.039
108.57,-26.006,-2.211
108.6,-28.954,-2.44
108.63,-30.603,-3.024
108.67,-32.393,-3.769
108.7,-34.744,-4.387
108.73,-36.99,-5.063
108.76,-38.85,-6.14
108.8,-41.026,-7.515
108.83,-43.553,-8.878
108.86,-45.694,-10.253
108.89,-47.765,-12.028
108.93,-54.538,-12.853
108.96,-61.732,-12.464
108.99,-66.997,-12.498
109.03,-72.647,-12.613
109.06,-75.42,-12.624
109.09,-77.139,-12.853
109.12,-80.508,-12.991
109.16,-83.492,-13.197
109.19,-86.826,-13.815
109.22,-90.651,-14.354
109.25,-93.669,-14.858
109.29,-96.477,-15.396
109.32,-99.355,-15.889
109.35,-102.408,-16.359
109.38,-105.847,-16.759
109.42,-109.216,-17.195
109.45,-112.621,-17.779
109.48,-115.849,-18.34
109.51,-119.183,-18.833
109.55,-122.377,-19.234
109.58,-125.185,-19.704
109.61,-128.378,-20.265
109.64,-131.888,-20.689
109.68,-135.292,-21.158
109.71,-138.626,-21.72
109.74,-141.714,-22.27
109.77,-144.417,-22.716
109.81,-147.365,-23.06
109.84,-150.383,-23.438
109.87,-153.612,-23.954
109.9,-156.805,-24.446
109.94,-160.21,-24.973
109.97,-163.158,-25.385
110.0,-165.404,-25.912
110.03,-168.387,-26.336
110.07,-170.914,-26.565
110.1,-173.405,-26.921
110.13,-176.143,-27.287
110.16,-178.389,-27.734
110.2,-181.442,-28.238
110.23,-184.706,-28.616
110.26,-187.373,-29.109
110.29,-189.97,-29.59
110.33,-192.287,-29.945
110.36,-194.498,-30.231
110.39,-196.814,-30.506
110.43,-198.955,-30.907
110.46,-201.622,-31.285
110.49,-203.973,-31.549
110.52,-205.798,-31.858
110.56,-207.553,-32.19
110.59,-209.132,-32.442
110.62,-210.852,-32.625
110.65,-212.677,-32.843
110.69,-214.537,-33.164
110.72,-216.643,-33.576
110.75,-218.924,-33.931
110.78,-221.065,-34.241
110.82,-222.925,-34.653
110.85,-224.925,-35.02
110.88,-226.785,-35.295
110.91,-228.996,-35.558
110.95,-230.997,-35.856
110.98,-232.436,-36.2
111.01,-234.717,-36.6
111.04,-237.138,-36.818
111.08,-238.367,-37.093
111.11,-239.735,-37.379
111.14,-241.174,-37.563
111.17,-242.964,-37.757
111.21,-244.824,-37.929
111.24,-246.298,-38.296
111.27,-247.878,-38.582
111.3,-249.211,-38.788
111.34,-250.861,-38.983
111.37,-252.194,-39.189
111.4,-253.458,-39.476
111.43,-255.002,-39.671
111.47,-256.476,-39.888
111.5,-258.055,-40.163
111.53,-259.669,-40.472
111.56,-261.179,-40.713
111.6,-262.091,-40.839
111.63,-263.039,-40.988
111.66,-264.091,-41.137
111.69,-265.39,-41.309
111.73,-266.899,-41.481
111.76,-268.338,-41.698
111.79,-269.566,-42.019
111.82,-270.97,-42.282
111.86,-272.198,-42.42
111.89,-273.357,-42.58
111.92,-274.304,-42.729
111.96,-275.182,-42.855
111.99,-276.234,-42.958
112.02,-277.393,-43.084
112.05,-278.445,-43.279
112.09,-279.393,-43.451
112.12,-279.99,-43.543
112.15,-280.516,-43.577
112.18,-280.762,-43.565
112.22,-281.078,-43.565
112.25,-281.604,-43.611
112.28,-282.446,-43.68
112.31,-283.008,-43.783
112.35,-283.464,-43.921
112.38,-283.815,-43.989
112.41,-284.131,-43.989
112.44,-284.096,-43.932
112.48,-284.061,-43.863
112.51,-283.85,-43.806
112.54,-284.061,-43.772
112.57,-284.236,-43.714
112.61,-284.201,-43.749
112.64,-283.885,-43.691
112.67,-284.201,-43.795
112.7,-284.131,-43.577
112.74,-282.762,-43.508
112.77,-282.762,-43.382
112.8,-282.832,-43.291
112.83,-283.008,-43.313
112.87,-282.692,-43.279
112.9,-282.025,-43.222
112.93,-281.323,-43.073
112.96,-280.656,-42.855
113.0,-279.849,-42.626
113.03,-279.253,-42.512
113.06,-278.867,-42.42
113.09,-278.481,-42.34
113.13,-277.779,-42.202
113.16,-276.515,-42.019
113.19,-275.041,-41.755
113.22,-273.778,-41.423
113.26,-272.69,-41.091
113.29,-271.532,-40.896
113.32,-270.584,-40.793
113.35,-269.426,-40.621
113.39,-268.198,-40.404
113.42,-266.794,-40.094
113.45,-264.864,-39.797
113.49,-263.214,-39.476
113.52,-261.6,-39.086
113.55,-260.126,-38.788
113.58,-258.792,-38.559
113.62,-257.213,-38.365
113.65,-256.09,-38.204
113.68,-254.826,-37.895
113.71,-252.615,-37.643
113.75,-251.071,-37.46
113.78,-249.773,-37.082
113.81,-248.404,-36.818
113.84,-247.246,-36.612
113.88,-245.351,-36.406
113.91,-243.806,-36.177
113.94,-242.122,-35.741
113.97,-239.981,-35.386
114.01,-238.191,-35.077
114.04,-236.612,-34.756
114.07,-234.962,-34.435
114.1,-232.822,-34.092
114.14,-230.435,-33.817
114.17,-228.54,-33.507
114.2,-226.364,-33.038
114.23,-224.329,-32.66
114.27,-221.661,-32.19
114.3,-219.24,-31.984
114.33,-218.503,-31.675
114.36,-216.713,-31.342
114.4,-214.993,-31.262
114.43,-213.274,-31.01
114.46,-210.747,-30.667
114.49,-208.571,-30.231
114.53,-206.43,-29.796
114.56,-204.008,-29.429
114.59,-201.797,-29.086
114.62,-199.902,-28.673
114.66,-197.656,-28.284
114.69,-195.094,-28.009
114.72,-192.708,-27.619
114.75,-189.935,-27.092
114.79,-187.163,-26.611
114.82,-184.32,-26.187
114.85,-181.723,-25.798
114.89,-179.442,-25.34
114.92,-176.845,-24.881
114.95,-174.037,-24.561
114.98,-171.265,-24.217
115.02,-168.282,-23.747
115.05,-165.369,-23.22
115.08,-162.456,-22.728
115.11,-159.613,-22.361
115.15,-157.051,-21.972
115.18,-154.454,-21.514
115.21,-151.436,-21.044
115.24,-147.891,-20.62
115.28,-144.452,-20.116
115.31,-141.258,-19.486
115.34,-138.345,-18.959
115.37,-135.327,-18.524
115.41,-132.204,-18.18
115.44,-129.291,-17.722
115.47,-125.711,-17.126
115.5,-122.061,-16.702
115.54,-119.148,-16.244
115.57,-116.025,-15.706
115.6,-112.761,-15.19
115.63,-109.673,-14.743
115.67,-106.9,-14.445
115.7,-104.338,-14.079
115.73,-101.495,-13.666
115.76,-98.056,-13.151
115.8,-94.125,-12.681
115.83,-90.44,-12.063
115.86,-86.755,-11.387
115.89,-83.492,-10.78
115.93,-80.193,-10.321
115.96,-76.929,-9.932
115.99,-73.7,-9.508
116.02,-70.506,-9.016
116.06,-66.962,-8.58
116.09,-63.663,-8.168
116.12,-60.434,-7.641
116.15,-57.03,-7.091
116.19,-53.555,-6.575
116.22,-49.8,-6.083
116.25,-46.08,-5.579
116.28,-42.535,-4.937
116.32,-38.57,-4.33
116.35,-34.674,-3.895
116.38,-32.744,-3.712
116.42,-30.498,-3.127
116.45,-24.847,-2.532
116.48,-20.496,-2.268
116.51,-17.372,-1.524
116.55,-14.986,-0.962
116.58,-13.547,-0.389
116.61,-9.511,-0.241
116.64,-5.615,-0.252
