Trigger_Date,2023/07/06
Trigger_Time,T 09:50:57.303 PDT
Samples_Per_Cycle,512
Microseconds_Per_Sample,32.563
Time (ms),Voltage (V),Current (A)
-16.67,-4.211,-1.581
-16.64,-7.651,-1.146
-16.61,-9.616,-1.718
-16.57,-16.039,-1.89
-16.54,-19.583,-1.524
-16.51,-22.215,-1.97
-16.48,-25.69,-2.417
-16.44,-28.638,-2.623
-16.41,-31.27,-3.024
-16.38,-33.691,-3.563
-16.35,-35.481,-4.525
-16.31,-37.868,-5.602
-16.28,-40.57,-6.541
-16.25,-42.535,-7.687
-16.22,-44.044,-9.245
-16.18,-45.518,-11.02
-16.15,-48.572,-12.59
-16.12,-56.223,-12.83
-16.09,-63.066,-12.555
-16.05,-68.787,-12.727
-16.02,-73.735,-12.761
-15.99,-75.911,-12.716
-15.96,-77.28,-12.83
-15.92,-80.228,-13.059
-15.89,-83.842,-13.311
-15.86,-87.177,-13.792
-15.83,-90.651,-14.377
-15.79,-93.564,-14.972
-15.76,-96.231,-15.545
-15.73,-99.46,-16.003
-15.7,-102.583,-16.324
-15.66,-105.637,-16.828
-15.63,-109.181,-17.412
-15.6,-112.796,-17.951
-15.57,-116.235,-18.432
-15.53,-119.324,-18.925
-15.5,-122.202,-19.452
-15.47,-125.185,-19.921
-15.43,-128.554,-20.334
-15.4,-131.993,-20.746
-15.37,-135.397,-21.319
-15.34,-138.766,-21.937
-15.3,-142.065,-22.464
-15.27,-144.417,-22.716
-15.24,-146.347,-23.094
-15.21,-149.541,-23.484
-15.17,-152.524,-23.828
-15.14,-155.367,-24.228
-15.11,-158.385,-24.71
-15.08,-161.157,-25.214
-15.04,-163.509,-25.718
-15.01,-166.316,-26.107
-14.98,-168.633,-26.313
-14.95,-171.054,-26.772
-14.91,-174.388,-27.218
-14.88,-177.055,-27.642
-14.85,-180.074,-28.238
-14.82,-183.337,-28.673
-14.78,-185.724,-29.235
-14.75,-188.777,-29.704
-14.72,-191.234,-29.922
-14.69,-193.199,-30.231
-14.65,-195.515,-30.529
-14.62,-197.34,-30.827
-14.59,-199.797,-31.171
-14.56,-202.324,-31.4
-14.52,-203.973,-31.755
-14.49,-205.728,-32.11
-14.46,-207.378,-32.316
-14.43,-209.027,-32.522
-14.39,-210.957,-32.786
-14.36,-212.852,-33.129
-14.33,-214.853,-33.519
-14.3,-217.134,-33.863
-14.26,-219.345,-34.206
-14.23,-221.24,-34.642
-14.2,-223.241,-35.008
-14.16,-224.925,-35.203
-14.13,-226.68,-35.421
-14.1,-228.68,-35.695
-14.07,-230.119,-35.948
-14.03,-231.979,-36.326
-14.0,-233.699,-36.452
-13.97,-235.138,-36.795
-13.94,-236.893,-37.013
-13.9,-237.981,-37.299
-13.87,-240.367,-37.609
-13.84,-241.876,-37.757
-13.81,-243.491,-38.204
-13.77,-245.561,-38.514
-13.74,-247.246,-38.834
-13.71,-249.071,-39.041
-13.68,-250.299,-39.212
-13.64,-251.317,-39.441
-13.61,-252.791,-39.613
-13.58,-254.335,-39.785
-13.55,-256.09,-40.049
-13.51,-257.739,-40.358
-13.48,-259.073,-40.667
-13.45,-260.231,-40.873
-13.42,-261.179,-40.942
-13.38,-261.951,-41.034
-13.35,-263.039,-41.171
-13.32,-264.197,-41.332
-13.29,-265.776,-41.538
-13.25,-267.18,-41.767
-13.22,-268.408,-42.099
-13.19,-269.496,-42.328
-13.16,-270.654,-42.489
-13.12,-271.812,-42.569
-13.09,-272.76,-42.729
-13.06,-273.778,-42.901
-13.03,-275.076,-43.073
-12.99,-276.41,-43.21
-12.96,-277.568,-43.428
-12.93,-278.516,-43.623
-12.89,-279.253,-43.772
-12.86,-279.919,-43.806
-12.83,-280.305,-43.783
-12.8,-280.656,-43.806
-12.76,-281.429,-43.875
-12.73,-282.201,-43.955
-12.7,-282.762,-44.047
-12.67,-283.043,-44.092
-12.63,-283.359,-44.173
-12.6,-283.675,-44.173
-12.57,-283.64,-44.092
-12.54,-283.359,-43.978
-12.5,-283.64,-43.989
-12.47,-283.99,-43.989
-12.44,-284.201,-44.058
-12.41,-283.99,-43.989
-12.37,-284.271,-44.104
-12.34,-284.622,-43.989
-12.31,-283.359,-43.886
-12.28,-282.973,-43.772
-12.24,-283.043,-43.6
-12.21,-283.078,-43.565
-12.18,-282.657,-43.52
-12.15,-281.779,-43.382
-12.11,-280.551,-43.096
-12.08,-279.147,-42.798
-12.05,-278.13,-42.523
-12.02,-277.287,-42.305
-11.98,-276.971,-42.202
-11.95,-276.34,-42.134
-11.92,-276.796,-42.466
-11.89,-278.691,-42.741
-11.85,-278.972,-42.924
-11.82,-279.042,-43.061
-11.79,-278.13,-42.821
-11.76,-276.866,-42.569
-11.72,-276.27,-42.111
-11.69,-274.936,-41.675
-11.66,-273.111,-41.274
-11.63,-270.724,-40.839
-11.59,-268.022,-40.324
-11.56,-265.565,-39.739
-11.53,-263.144,-39.224
-11.49,-261.038,-38.88
-11.46,-258.968,-38.582
-11.43,-256.932,-38.319
-11.4,-255.072,-38.01
-11.36,-252.721,-37.643
-11.33,-249.667,-37.265
-11.3,-247.246,-36.841
-11.27,-245.526,-36.383
-11.23,-243.982,-36.096
-11.2,-242.648,-35.982
-11.17,-241.034,-35.856
-11.14,-239.771,-35.695
-11.1,-238.261,-35.398
-11.07,-236.577,-35.203
-11.04,-234.998,-34.905
-11.01,-232.681,-34.504
-10.97,-231.067,-34.149
-10.94,-229.312,-33.714
-10.91,-227.277,-33.553
-10.88,-225.873,-33.29
-10.84,-223.662,-32.855
-10.81,-221.556,-32.557
-10.78,-219.521,-32.133
-10.75,-217.415,-31.869
-10.71,-215.976,-31.549
-10.68,-214.116,-31.193
-10.65,-212.256,-30.964
-10.62,-210.291,-30.712
-10.58,-207.693,-30.334
-10.55,-205.553,-29.945
-10.52,-203.622,-29.441
-10.49,-201.131,-29.154
-10.45,-199.306,-28.902
-10.42,-197.691,-28.559
-10.39,-195.586,-28.226
-10.36,-193.164,-27.871
-10.32,-190.181,-27.425
-10.29,-187.163,-26.978
-10.26,-185.092,-26.451
-10.22,-182.565,-25.958
-10.19,-180.038,-25.66
-10.16,-178.284,-25.42
-10.13,-176.178,-25.088
-10.09,-173.511,-24.733
-10.06,-170.422,-24.286
-10.03,-167.088,-23.828
-10.0,-164.561,-23.312
-9.96,-162.035,-22.705
-9.93,-158.981,-22.27
-9.9,-156.209,-21.983
-9.87,-153.647,-21.559
-9.83,-150.137,-21.009
-9.8,-146.452,-20.437
-9.77,-143.153,-19.944
-9.74,-140.627,-19.52
-9.7,-138.275,-19.108
-9.67,-135.678,-18.707
-9.64,-132.835,-18.421
-9.61,-130.273,-18.146
-9.57,-126.904,-17.607
-9.54,-123.289,-17.069
-9.51,-120.517,-16.53
-9.48,-117.393,-15.935
-9.44,-111.111,-14.938
-9.41,-103.004,-13.758
-9.38,-95.529,-12.257
-9.35,-91.669,-11.49
-9.31,-90.019,-10.825
-9.28,-86.51,-10.722
-9.25,-84.193,-10.825
-9.22,-81.07,-10.596
-9.18,-78.052,-10.596
-9.15,-76.437,-10.367
-9.12,-74.612,-10.047
-9.09,-72.366,-9.737
-9.05,-70.085,-9.451
-9.02,-67.593,-9.142
-8.99,-65.067,-8.695
-8.95,-62.469,-8.225
-8.92,-59.802,-7.767
-8.89,-57.1,-7.423
-8.86,-54.292,-6.976
-8.82,-50.818,-6.404
-8.79,-47.308,-5.9
-8.76,-44.115,-5.35
-8.73,-39.973,-4.743
-8.69,-36.078,-4.181
-8.66,-33.972,-3.861
-8.63,-32.182,-3.414
-8.6,-26.146,-2.692
-8.56,-20.11,-2.257
-8.53,-16.705,-1.283
-8.5,-13.547,-0.493
-8.47,-10.634,-0.47
-8.43,-7.791,-0.401
-8.4,-3.86,-0.034
-8.37,-0.035,-0.034
-8.34,0.597,0.687
-8.3,3.966,1.272
-8.27,6.422,1.042
-8.24,9.476,1.776
-8.21,15.828,1.879
-8.17,20.004,1.982
-8.14,24.883,2.44
-8.11,28.638,2.463
-8.08,31.2,2.83
-8.04,33.727,3.563
-8.01,36.008,4.513
-7.98,38.078,5.487
-7.95,40.605,6.472
-7.91,42.395,7.606
-7.88,43.588,9.153
-7.85,45.097,10.894
-7.82,50.046,11.914
-7.78,57.135,11.822
-7.75,62.75,11.902
-7.72,68.19,12.154
-7.68,72.121,12.235
-7.65,73.875,12.303
-7.62,75.665,12.544
-7.59,79.245,12.819
-7.55,82.825,13.162
-7.52,86.51,13.735
-7.49,89.984,14.331
-7.46,92.581,14.915
-7.42,95.459,15.476
-7.39,98.969,15.843
-7.36,101.881,16.198
-7.33,104.829,16.725
-7.29,108.479,17.264
-7.26,112.024,17.733
-7.23,115.182,18.226
-7.2,118.306,18.73
-7.16,121.219,19.257
-7.13,124.237,19.704
-7.1,127.536,20.059
-7.07,130.519,20.471
-7.03,133.678,21.032
-7.0,137.047,21.582
-6.97,140.416,22.075
-6.94,143.294,22.453
-6.9,145.119,22.797
-6.87,147.54,23.255
-6.84,151.05,23.587
-6.81,154.489,23.999
-6.77,157.507,24.561
-6.74,160.245,25.122
-6.71,162.877,25.626
-6.68,165.72,25.97
-6.64,168.422,26.325
-6.61,171.3,26.772
-6.58,173.967,27.173
-6.55,176.74,27.631
-6.51,179.898,28.043
-6.48,182.495,28.513
-6.45,185.127,29.074
-6.41,188.075,29.395
-6.38,190.111,29.67
-6.35,192.427,30.002
-6.32,194.568,30.288
-6.28,196.779,30.689
-6.25,199.236,30.964
-6.22,201.376,31.239
-6.19,203.201,31.606
-6.15,205.167,31.961
-6.12,206.676,32.156
-6.09,208.501,32.385
-6.06,210.536,32.625
-6.02,212.537,33.049
-5.99,214.853,33.45
-5.96,216.853,33.794
-5.93,218.889,34.149
-5.89,221.205,34.538
-5.86,222.749,34.825
-5.83,224.75,35.18
-5.8,227.031,35.329
-5.76,228.68,35.684
-5.73,230.856,36.085
-5.7,232.576,36.326
-5.67,234.015,36.6
-5.63,236.015,36.818
-5.6,237.103,36.99
-5.57,238.963,37.425
-5.54,241.385,37.609
-5.5,242.719,37.861
-5.47,244.508,38.25
-5.44,245.982,38.491
-5.41,247.527,38.777
-5.37,249.422,38.914
-5.34,250.65,39.132
-5.31,251.843,39.384
-5.28,253.177,39.579
-5.24,254.651,39.762
-5.21,256.125,39.968
-5.18,257.494,40.243
-5.14,258.827,40.507
-5.11,260.091,40.69
-5.08,260.933,40.77
-5.05,261.565,40.885
-5.01,262.512,41.011
-4.98,263.846,41.194
-4.95,265.495,41.4
-4.92,267.11,41.71
-4.88,268.478,42.053
-4.85,269.672,42.328
-4.82,270.724,42.443
-4.79,271.848,42.534
-4.75,272.935,42.683
-4.72,274.269,42.901
-4.69,275.603,43.096
-4.66,276.901,43.279
-4.62,278.024,43.462
-4.59,278.902,43.623
-4.56,279.498,43.714
-4.53,280.2,43.726
-4.49,280.551,43.691
-4.46,280.902,43.726
-4.43,281.499,43.795
-4.4,282.341,43.875
-4.36,282.762,43.932
-4.33,283.183,44.047
-4.3,283.604,44.115
-4.27,284.341,44.23
-4.23,284.622,44.161
-4.2,283.324,43.921
-4.17,282.341,43.817
-4.14,284.271,43.886
-4.1,284.727,43.817
-4.07,284.552,44.115
-4.04,284.166,43.921
-4.01,283.464,43.989
-3.97,284.377,43.852
-3.94,283.534,43.691
-3.91,283.745,43.772
-3.88,283.71,43.588
-3.84,282.938,43.6
-3.81,282.657,43.428
-3.78,281.429,43.142
-3.74,280.13,42.935
-3.71,279.077,42.603
-3.68,277.849,42.386
-3.65,277.673,42.26
-3.61,276.901,42.076
-3.58,275.673,42.088
-3.55,274.725,41.87
-3.52,273.111,41.538
-3.48,271.532,41.194
-3.45,269.987,40.896
-3.42,268.654,40.667
-3.39,267.601,40.415
-3.35,266.373,40.175
-3.32,265.144,40.037
-3.29,263.881,39.831
-3.26,262.126,39.567
-3.22,260.617,39.235
-3.19,259.213,38.926
-3.16,257.809,38.72
-3.13,256.616,38.525
-3.09,255.353,38.273
-3.06,253.879,38.021
-3.03,252.194,37.78
-3.0,250.439,37.528
-2.96,248.755,37.162
-2.93,247.211,36.807
-2.9,245.702,36.532
-2.87,244.122,36.303
-2.83,242.227,36.028
-2.8,240.718,35.73
-2.77,239.069,35.386
-2.74,237.349,35.169
-2.7,234.927,34.71
-2.67,232.295,34.355
-2.64,230.997,33.931
-2.61,229.066,33.599
-2.57,226.855,33.416
-2.54,224.855,33.107
-2.51,223.311,32.763
-2.47,221.416,32.419
-2.44,219.38,32.19
-2.41,217.731,31.938
-2.38,216.187,31.606
-2.34,214.397,31.285
-2.31,212.466,31.056
-2.28,210.887,30.85
-2.25,209.027,30.506
-2.21,206.641,30.071
-2.18,204.079,29.647
-2.15,201.903,29.303
-2.12,200.008,28.937
-2.08,198.218,28.593
-2.05,196.147,28.261
-2.02,194.006,28.009
-1.99,191.55,27.619
-1.95,188.602,27.15
-1.92,185.829,26.623
-1.89,183.337,26.176
-1.86,181.091,25.786
-1.82,178.88,25.431
-1.79,176.424,25.053
-1.76,173.862,24.721
-1.73,171.194,24.354
-1.69,168.246,23.931
-1.66,165.544,23.415
-1.63,162.807,22.877
-1.6,159.929,22.499
-1.56,157.086,22.098
-1.53,154.419,21.685
-1.5,151.26,21.067
-1.47,146.944,20.471
-1.43,143.504,20.013
-1.4,141.013,19.509
-1.37,138.591,19.096
-1.34,136.977,18.902
-1.3,134.309,18.615
-1.27,131.291,18.501
-1.24,129.185,18.02
-1.2,125.992,17.504
-1.17,123.395,17.137
-1.14,120.201,16.542
-1.11,116.411,16.026
-1.07,113.428,15.408
-1.04,110.445,14.858
-1.01,107.111,14.445
-0.98,103.461,13.941
-0.94,99.46,13.334
-0.91,95.529,12.658
-0.88,91.423,12.04
-0.85,87.773,11.501
-0.81,84.299,10.917
-0.78,80.824,10.39
-0.75,77.28,9.921
-0.72,73.77,9.531
-0.68,70.155,9.05
-0.65,66.681,8.5
-0.62,63.136,7.962
-0.59,59.802,7.515
-0.55,56.363,7.034
-0.52,53.029,6.553
-0.49,49.695,6.026
-0.46,46.255,5.579
-0.42,42.676,5.132
-0.39,39.447,4.662
-0.36,36.499,4.227
-0.33,35.446,4.147
-0.29,32.428,3.528
-0.26,26.321,3.127
-0.23,22.672,2.543
-0.2,19.057,1.535
-0.16,15.652,0.939
-0.13,12.178,0.367
-0.1,6.001,-0.172
-0.07,0.526,-0.195
-0.03,-1.404,-1.214
0.0,-6.317,-1.42
0.03,-7.861,-1.123
0.07,-10.985,-1.65
0.1,-15.161,-1.558
0.13,-18.25,-1.833
0.16,-22.426,-2.177
0.2,-26.286,-2.199
0.23,-28.778,-2.371
0.26,-30.989,-3.024
0.29,-33.13,-3.792
0.33,-35.481,-4.571
0.36,-38.008,-5.327
0.39,-40.289,-6.358
0.42,-41.974,-7.767
0.46,-44.009,-9.348
0.49,-45.834,-10.803
0.52,-48.537,-12.349
0.55,-56.187,-12.842
0.59,-63.242,-12.567
0.62,-68.752,-12.693
0.65,-73.244,-12.624
0.68,-75.069,-12.647
0.72,-77.034,-12.819
0.75,-80.333,-12.968
0.78,-83.842,-13.208
0.81,-87.106,-13.781
0.85,-90.405,-14.411
0.88,-93.318,-14.984
0.91,-96.301,-15.454
0.94,-99.249,-15.866
0.98,-102.197,-16.336
1.01,-105.461,-16.851
1.04,-109.041,-17.321
1.07,-112.585,-17.779
1.11,-115.744,-18.329
1.14,-118.832,-18.913
1.17,-121.991,-19.406
1.2,-125.22,-19.784
1.24,-128.308,-20.23
1.27,-131.607,-20.769
1.3,-135.222,-21.33
1.34,-138.766,-21.846
1.37,-141.96,-22.304
1.4,-144.241,-22.716
1.43,-146.136,-23.106
1.47,-149.541,-23.507
1.5,-152.84,-23.713
1.53,-155.367,-24.217
1.56,-158.244,-24.721
1.6,-160.701,-25.179
1.63,-163.614,-25.58
1.66,-166.211,-25.901
1.69,-168.387,-26.313
1.73,-171.019,-26.76
1.76,-174.037,-27.104
1.79,-176.88,-27.516
1.82,-179.898,-28.089
1.86,-182.776,-28.662
1.89,-185.583,-29.166
1.92,-188.602,-29.498
1.95,-190.848,-29.773
1.99,-192.673,-30.174
2.02,-195.024,-30.472
2.05,-197.13,-30.701
2.08,-199.692,-31.01
2.12,-201.868,-31.342
2.15,-203.482,-31.743
2.18,-205.342,-31.984
2.21,-206.992,-32.11
2.25,-208.676,-32.385
2.28,-210.712,-32.74
2.31,-212.642,-33.072
2.34,-214.677,-33.416
2.38,-216.853,-33.759
2.41,-218.889,-34.16
2.44,-220.924,-34.573
2.47,-223.065,-34.882
2.51,-224.96,-35.088
2.54,-226.715,-35.409
2.57,-228.856,-35.776
2.61,-230.435,-36.005
2.64,-232.19,-36.28
2.67,-233.945,-36.486
2.7,-235.84,-36.875
2.74,-237.489,-37.07
2.77,-238.472,-37.322
2.8,-240.648,-37.551
2.83,-241.982,-37.735
2.87,-243.631,-38.17
2.9,-245.772,-38.399
2.93,-247.527,-38.685
2.96,-249.176,-38.96
3.0,-250.299,-39.201
3.03,-251.247,-39.373
3.06,-252.58,-39.476
3.09,-254.16,-39.648
3.13,-255.949,-39.945
3.16,-257.388,-40.243
3.19,-258.757,-40.541
3.22,-260.091,-40.724
3.26,-260.898,-40.85
3.29,-261.67,-40.988
3.32,-262.758,-41.091
3.35,-264.127,-41.217
3.39,-265.601,-41.446
3.42,-267.075,-41.778
3.45,-268.478,-42.076
3.48,-269.601,-42.271
3.52,-270.83,-42.386
3.55,-271.672,-42.534
3.58,-272.62,-42.683
3.61,-273.602,-42.786
3.65,-274.901,-42.912
3.68,-276.199,-43.107
3.71,-277.393,-43.371
3.74,-278.375,-43.554
3.78,-279.147,-43.669
3.81,-279.744,-43.703
3.84,-280.2,-43.737
3.88,-280.516,-43.737
3.91,-281.393,-43.829
3.94,-282.201,-43.875
3.97,-282.832,-44.012
4.01,-283.289,-44.104
4.04,-283.675,-44.207
4.07,-284.026,-44.173
4.1,-283.885,-44.081
4.14,-283.499,-43.966
4.17,-283.71,-43.989
4.2,-284.201,-43.932
4.23,-284.201,-43.966
4.27,-283.99,-43.921
4.3,-284.131,-44.035
4.33,-284.517,-43.932
4.36,-283.324,-43.783
4.4,-282.797,-43.657
4.43,-282.762,-43.508
4.46,-282.973,-43.531
4.49,-282.903,-43.485
4.53,-281.955,-43.348
4.56,-280.692,-43.153
4.59,-279.884,-42.89
4.62,-278.831,-42.626
4.66,-278.867,-42.603
4.69,-279.604,-42.672
4.72,-280.025,-42.924
4.75,-279.849,-42.993
4.79,-278.41,-42.764
4.82,-276.34,-42.271
4.85,-274.269,-41.755
4.88,-272.69,-41.24
4.92,-270.9,-40.793
4.95,-269.04,-40.404
4.98,-266.724,-40.049
5.01,-264.548,-39.751
5.05,-262.512,-39.396
5.08,-260.477,-39.018
5.11,-258.476,-38.662
5.14,-256.441,-38.342
5.18,-254.37,-38.067
5.21,-252.721,-37.769
5.24,-250.966,-37.414
5.28,-249.246,-37.253
5.31,-247.948,-37.105
5.34,-246.404,-36.852
5.37,-244.894,-36.623
5.41,-244.017,-36.417
5.44,-242.754,-36.234
5.47,-241.56,-36.131
5.5,-240.402,-35.856
5.54,-238.753,-35.592
5.57,-237.7,-35.375
5.6,-235.84,-35.031
5.63,-233.804,-34.756
5.67,-232.155,-34.286
5.7,-229.944,-33.897
5.73,-227.592,-33.519
5.76,-225.381,-33.221
5.8,-224.504,-32.935
5.83,-222.96,-32.591
5.86,-220.749,-32.465
5.89,-218.889,-32.202
5.93,-217.239,-31.904
5.96,-215.8,-31.56
5.99,-214.081,-31.274
6.02,-212.08,-31.056
6.06,-210.361,-30.793
6.09,-208.781,-30.426
6.12,-206.606,-30.059
6.15,-204.219,-29.762
6.19,-202.008,-29.383
6.22,-199.692,-28.902
6.25,-197.34,-28.444
6.28,-195.129,-28.089
6.32,-193.059,-27.803
6.35,-190.813,-27.436
6.38,-188.04,-26.978
6.41,-185.268,-26.565
6.45,-182.6,-26.153
6.48,-180.144,-25.706
6.51,-177.792,-25.248
6.55,-175.301,-24.847
6.58,-172.844,-24.561
6.61,-170.282,-24.217
6.64,-167.545,-23.839
6.68,-165.158,-23.369
6.71,-162.421,-22.911
6.74,-159.367,-22.556
6.77,-156.77,-22.132
6.81,-154.173,-21.594
6.84,-151.331,-21.17
6.87,-147.751,-20.643
6.9,-143.785,-20.15
6.94,-141.118,-19.6
6.97,-139.153,-19.177
7.0,-137.468,-19.005
7.03,-135.573,-18.947
7.07,-132.8,-18.581
7.1,-128.799,-18.054
7.13,-125.957,-17.584
7.16,-123.325,-17.011
7.2,-120.341,-16.542
7.23,-116.727,-15.9
7.26,-112.901,-15.328
7.29,-109.322,-14.732
7.33,-105.602,-14.205
7.36,-101.846,-13.586
7.39,-97.845,-12.945
7.42,-94.055,-12.361
7.46,-90.475,-11.914
7.49,-87.036,-11.456
7.52,-84.088,-10.974
7.55,-81.0,-10.528
7.59,-77.736,-10.207
7.62,-74.753,-9.875
7.65,-71.805,-9.394
7.68,-68.436,-8.867
7.72,-64.856,-8.363
7.75,-61.206,-7.859
7.78,-57.767,-7.32
7.82,-54.503,-6.724
7.85,-50.888,-6.175
7.88,-47.379,-5.751
7.91,-43.658,-5.224
7.95,-39.728,-4.628
7.98,-36.148,-4.124
8.01,-34.464,-3.918
8.04,-31.094,-3.265
8.08,-24.988,-2.749
8.11,-20.882,-2.142
8.14,-17.126,-1.146
8.17,-13.336,-0.642
8.21,-10.037,-0.298
8.24,-4.808,0.126
8.27,-0.14,0.126
8.3,1.439,1.157
8.34,6.493,1.524
8.37,9.3,1.283
8.4,13.441,1.787
8.43,18.39,1.776
8.47,21.198,1.97
8.5,24.742,2.303
8.53,28.006,2.314
8.56,29.726,2.589
8.6,31.41,3.276
8.63,33.305,3.987
8.66,35.341,4.639
8.69,37.306,5.292
8.73,38.921,6.312
8.76,41.026,7.675
8.79,43.307,9.016
8.82,45.343,10.356
8.86,48.01,12.04
8.89,54.994,12.796
8.92,62.469,12.681
8.95,69.208,12.922
8.99,74.051,12.83
9.02,74.893,12.853
9.05,76.508,12.899
9.09,79.596,12.819
9.12,83.246,13.071
9.15,86.966,13.644
9.18,90.475,14.388
9.22,93.423,14.972
9.25,96.056,15.476
9.28,98.969,15.889
9.31,101.917,16.347
9.35,105.391,16.84
9.38,109.146,17.286
9.41,112.515,17.779
9.44,115.674,18.386
9.48,118.903,18.925
9.51,121.921,19.383
9.54,125.255,19.795
9.57,128.624,20.265
9.61,132.274,20.906
9.64,136.345,21.559
9.67,139.89,22.04
9.7,142.381,22.522
9.74,144.627,22.877
9.77,146.593,23.163
9.8,149.541,23.404
9.83,152.84,23.724
9.87,156.279,24.286
9.9,158.209,24.652
9.93,160.35,25.271
9.96,164.175,25.569
10.0,166.176,25.89
10.03,168.597,26.462
10.06,171.335,26.737
10.09,173.581,27.069
10.13,176.529,27.482
10.16,179.547,27.986
10.19,182.109,28.559
10.22,184.952,29.028
10.26,187.97,29.349
10.29,190.181,29.704
10.32,192.392,30.14
10.36,194.498,30.437
10.39,196.779,30.689
10.42,199.271,30.987
10.45,201.341,31.377
10.49,203.447,31.766
10.52,205.518,32.018
10.55,207.307,32.224
10.58,208.887,32.522
10.62,210.817,32.855
10.65,213.028,33.187
10.68,215.45,33.542
10.71,217.59,33.897
10.75,219.556,34.378
10.78,221.732,34.722
10.81,223.206,34.882
10.84,224.715,35.088
10.88,226.434,35.329
10.91,228.049,35.604
10.94,230.295,35.913
10.97,231.734,36.062
11.01,233.138,36.463
11.04,235.173,36.715
11.07,236.366,37.001
11.1,238.191,37.219
11.14,239.455,37.379
11.17,241.42,37.78
11.2,243.385,38.067
11.23,245.21,38.433
11.27,247.246,38.697
11.3,248.79,39.006
11.33,250.018,39.258
11.36,251.352,39.441
11.4,253.072,39.613
11.43,254.861,39.854
11.46,256.546,40.175
11.49,257.985,40.461
11.53,259.319,40.702
11.56,260.687,40.828
11.59,261.354,40.954
11.63,262.231,41.103
11.66,263.319,41.171
11.69,264.723,41.32
11.72,266.373,41.561
11.76,267.776,41.939
11.79,269.145,42.248
11.82,270.514,42.443
11.85,271.567,42.569
11.89,272.479,42.752
11.92,273.497,42.855
11.95,274.55,42.97
11.98,275.743,43.073
12.02,277.007,43.302
12.05,278.2,43.531
12.08,279.077,43.703
12.11,279.709,43.772
12.15,280.13,43.795
12.18,280.341,43.726
12.21,280.411,43.703
12.24,281.007,43.714
12.28,281.744,43.76
12.31,282.201,43.875
12.34,282.622,43.989
12.37,283.078,44.092
12.41,283.534,44.104
12.44,283.359,44.035
12.47,283.218,44.001
12.5,283.499,43.978
12.54,283.955,43.978
12.57,284.131,43.989
12.6,284.552,44.127
12.63,284.763,44.127
12.67,284.727,44.218
12.7,285.008,44.092
12.73,284.377,44.024
12.76,284.622,43.989
12.8,284.517,43.886
12.83,284.131,43.806
12.86,283.043,43.531
12.89,281.604,43.279
12.93,280.376,42.901
12.96,278.867,42.534
12.99,277.814,42.282
13.03,277.217,42.179
13.06,276.445,42.111
13.09,275.462,42.03
13.12,274.445,41.813
13.16,272.69,41.503
13.19,270.97,41.251
13.22,269.707,40.931
13.25,268.338,40.621
13.29,267.285,40.381
13.32,266.197,40.232
13.35,264.969,40.106
13.38,263.46,39.854
13.42,261.775,39.51
13.45,260.266,39.212
13.48,258.862,38.949
13.51,257.564,38.72
13.55,256.371,38.456
13.58,254.861,38.227
13.61,253.247,38.055
13.64,251.668,37.792
13.68,249.843,37.425
13.71,247.807,36.979
13.74,245.702,36.6
13.77,244.017,36.337
13.81,242.403,35.97
13.84,240.508,35.695
13.87,239.174,35.466
13.9,237.454,35.203
13.94,235.419,34.985
13.97,233.594,34.596
14.0,231.804,34.241
14.03,230.014,33.966
14.07,228.365,33.794
14.1,226.645,33.427
14.13,224.469,33.072
14.16,223.03,32.82
14.2,221.24,32.511
14.23,219.31,32.282
14.26,217.906,31.961
14.3,216.292,31.64
14.33,214.467,31.423
14.36,212.747,31.193
14.39,211.203,30.896
14.43,209.167,30.472
14.46,206.325,30.105
14.49,203.728,29.704
14.52,201.552,29.223
14.56,199.586,28.788
14.59,197.516,28.433
14.62,195.305,28.181
14.65,193.199,27.917
14.69,191.164,27.516
14.72,188.321,27.081
14.75,185.619,26.749
14.78,183.302,26.313
14.82,180.986,25.832
14.85,178.845,25.408
14.88,176.318,25.053
14.91,173.651,24.813
14.95,171.089,24.389
14.98,168.176,23.862
15.01,165.263,23.358
15.04,162.35,22.934
15.08,159.508,22.499
15.11,156.911,22.04
15.14,154.314,21.582
15.17,151.295,21.193
15.21,147.961,20.769
15.24,144.768,20.299
15.27,142.101,19.715
15.3,139.012,19.268
15.34,136.52,18.993
15.37,133.502,18.501
15.4,130.624,18.168
15.43,128.133,17.642
15.47,124.693,17.264
15.5,122.412,16.989
15.53,119.569,16.404
15.57,116.341,15.98
15.6,113.638,15.557
15.63,110.796,15.179
15.66,107.953,14.778
15.7,104.654,14.159
15.73,100.478,13.552
15.76,96.266,12.933
15.79,92.265,12.257
15.83,88.721,11.582
15.86,85.001,10.917
15.89,81.0,10.436
15.92,77.49,9.989
15.96,74.016,9.52
15.99,70.612,9.004
16.02,67.137,8.546
16.05,63.663,8.122
16.09,60.153,7.652
16.12,56.679,7.068
16.15,53.275,6.541
16.18,49.765,6.071
16.22,46.185,5.625
16.25,42.535,5.052
16.28,38.71,4.41
16.31,34.744,3.906
16.35,32.568,3.723
16.38,29.445,3.001
16.41,23.654,2.474
16.44,20.215,1.982
16.48,16.67,1.123
16.51,13.617,0.768
16.54,11.09,0.298
16.57,6.598,-0.034
16.61,1.439,0.16
16.64,-0.316,-0.309
16.67,-2.913,-1.443
16.7,-6.949,-1.123
16.74,-8.423,-1.42
16.77,-14.038,-2.154
16.8,-19.794,-1.97
16.84,-23.409,-1.913
16.87,-26.672,-2.177
16.9,-29.305,-2.658
16.93,-31.48,-3.334
16.97,-34.113,-3.918
17.0,-36.078,-4.468
17.03,-37.482,-5.441
17.06,-39.307,-6.713
17.1,-41.483,-7.904
17.13,-43.764,-9.107
17.16,-45.238,-10.619
17.19,-48.677,-12.235
17.23,-56.328,-12.452
17.26,-63.031,-12.338
17.29,-68.822,-12.487
17.32,-72.226,-12.498
17.36,-74.402,-12.727
17.39,-76.929,-12.693
17.42,-79.877,-12.876
17.45,-83.421,-13.266
17.49,-86.826,-13.838
17.52,-90.265,-14.457
17.55,-93.423,-14.961
17.58,-96.231,-15.476
17.62,-99.144,-16.003
17.65,-102.443,-16.462
17.68,-105.847,-16.863
17.71,-109.322,-17.321
17.75,-112.585,-17.894
17.78,-115.884,-18.478
17.81,-119.078,-18.925
17.84,-122.237,-19.348
17.88,-125.114,-19.784
17.91,-128.133,-20.334
17.94,-131.747,-20.803
17.97,-135.362,-21.284
18.01,-138.731,-21.834
18.04,-142.065,-22.476
18.07,-144.592,-22.854
18.11,-146.768,-23.232
18.14,-150.067,-23.518
18.17,-152.559,-23.805
18.2,-154.91,-24.274
18.24,-157.964,-24.71
18.27,-161.122,-25.065
18.3,-163.333,-25.5
18.33,-165.825,-26.016
18.37,-168.001,-26.29
18.4,-170.352,-26.657
18.43,-173.827,-27.024
18.46,-176.669,-27.516
18.5,-179.688,-28.215
18.53,-182.881,-28.708
18.56,-185.443,-29.131
18.59,-188.181,-29.555
18.63,-190.707,-29.91
18.66,-192.813,-30.254
18.69,-195.2,-30.495
18.72,-197.095,-30.701
18.76,-199.271,-31.113
18.79,-201.727,-31.445
18.82,-203.728,-31.732
18.85,-205.518,-31.972
18.89,-206.956,-32.224
18.92,-208.501,-32.522
18.95,-210.466,-32.774
18.98,-212.431,-33.015
19.02,-214.397,-33.37
19.05,-216.573,-33.794
19.08,-218.678,-34.218
19.11,-220.889,-34.561
19.15,-222.96,-34.871
19.18,-224.785,-35.203
19.21,-226.785,-35.592
19.24,-229.312,-35.913
19.28,-230.962,-36.085
19.31,-232.576,-36.463
19.34,-234.296,-36.669
19.38,-235.77,-36.967
19.41,-237.384,-37.047
19.44,-238.226,-37.242
19.47,-240.578,-37.609
19.51,-242.192,-37.815
19.54,-243.596,-38.17
19.57,-245.526,-38.365
19.6,-246.93,-38.674
19.64,-248.72,-39.041
19.67,-250.475,-39.258
19.7,-251.492,-39.396
19.73,-252.686,-39.602
19.77,-254.195,-39.785
19.8,-255.739,-40.049
19.83,-257.423,-40.324
19.86,-259.003,-40.541
19.9,-260.056,-40.805
19.93,-261.038,-40.988
19.96,-261.775,-41.068
19.99,-262.968,-41.137
20.03,-264.232,-41.274
20.06,-265.811,-41.607
20.09,-267.355,-41.893
20.12,-268.794,-42.156
20.16,-269.847,-42.317
20.19,-270.795,-42.534
20.22,-271.812,-42.66
20.25,-272.83,-42.752
20.29,-273.918,-42.844
20.32,-275.111,-43.061
20.35,-276.41,-43.279
20.38,-277.708,-43.52
20.42,-278.796,-43.657
20.45,-279.498,-43.795
20.48,-280.165,-43.875
20.51,-280.516,-43.886
20.55,-280.902,-43.875
20.58,-281.744,-43.909
20.61,-282.481,-43.989
20.64,-283.043,-44.127
20.68,-283.289,-44.173
20.71,-283.534,-44.184
20.74,-283.78,-44.15
20.78,-283.569,-44.081
20.81,-283.183,-44.001
20.84,-283.569,-43.966
20.87,-283.885,-43.909
20.91,-283.955,-44.012
20.94,-283.78,-43.978
20.97,-283.955,-44.092
21.0,-284.412,-43.955
21.04,-283.148,-43.84
21.07,-282.727,-43.749
21.1,-282.973,-43.634
21.13,-283.359,-43.646
21.17,-282.973,-43.6
21.2,-282.06,-43.508
21.23,-280.902,-43.268
21.26,-279.709,-42.924
21.3,-278.621,-42.592
21.33,-277.849,-42.42
21.36,-277.708,-42.386
21.39,-277.428,-42.397
21.43,-276.796,-42.317
21.46,-275.217,-42.076
21.49,-273.322,-41.767
21.52,-271.567,-41.355
21.56,-269.987,-40.885
21.59,-268.513,-40.53
21.62,-267.039,-40.289
21.65,-265.285,-40.049
21.69,-263.39,-39.797
21.72,-261.951,-39.476
21.75,-260.091,-39.121
21.78,-258.16,-38.857
21.82,-256.616,-38.559
21.85,-255.353,-38.319
21.88,-254.265,-38.113
21.91,-252.721,-37.998
21.95,-251.457,-37.895
21.98,-250.439,-37.643
22.01,-248.79,-37.311
22.05,-247.141,-37.07
22.08,-245.912,-36.841
22.11,-244.473,-36.555
22.14,-243.28,-36.314
22.18,-241.876,-36.028
22.21,-240.437,-35.879
22.24,-238.963,-35.604
22.27,-236.752,-35.214
22.31,-234.717,-34.813
22.34,-232.751,-34.412
22.37,-230.997,-34.149
22.4,-229.102,-33.782
22.44,-226.961,-33.427
22.47,-225.346,-33.164
22.5,-223.662,-32.935
22.53,-221.802,-32.706
22.57,-220.047,-32.362
22.6,-218.187,-31.984
22.63,-216.187,-31.697
22.66,-214.467,-31.445
22.7,-212.782,-31.125
22.73,-210.817,-30.747
22.76,-208.571,-30.403
22.79,-205.904,-30.059
22.83,-203.412,-29.635
22.86,-201.376,-29.154
22.89,-199.2,-28.719
22.92,-196.919,-28.444
22.96,-194.884,-28.181
22.99,-192.778,-27.837
23.02,-190.637,-27.425
23.05,-187.97,-27.081
23.09,-185.408,-26.76
23.12,-183.057,-26.279
23.15,-180.846,-25.798
23.18,-178.67,-25.397
23.22,-176.038,-25.122
23.25,-173.546,-24.836
23.28,-171.054,-24.377
23.32,-168.317,-23.896
23.35,-165.509,-23.484
23.38,-162.596,-23.049
23.41,-159.578,-22.556
23.45,-157.016,-22.052
23.48,-154.243,-21.559
23.51,-151.015,-21.204
23.54,-147.435,-20.654
23.58,-143.68,-20.047
23.61,-140.767,-19.497
23.64,-138.205,-19.062
23.67,-135.081,-18.707
23.71,-132.73,-18.466
23.74,-130.273,-17.916
23.77,-126.518,-17.573
23.8,-124.448,-17.355
23.84,-122.131,-16.897
23.87,-119.254,-16.485
23.9,-116.025,-15.958
23.93,-112.936,-15.591
23.97,-110.41,-15.167
24.0,-107.567,-14.64
24.03,-103.952,-14.067
24.06,-100.127,-13.529
24.1,-96.266,-12.945
24.13,-92.511,-12.326
24.16,-89.037,-11.673
24.19,-85.422,-11.112
24.23,-81.737,-10.654
24.26,-78.157,-10.173
24.29,-74.542,-9.646
24.32,-71.138,-9.096
24.36,-67.207,-8.557
24.39,-63.206,-8.076
24.42,-59.521,-7.48
24.45,-55.977,-6.839
24.49,-52.187,-6.301
24.52,-48.396,-5.819
24.55,-44.746,-5.35
24.59,-41.377,-4.823
24.62,-37.868,-4.307
24.65,-34.499,-3.929
24.68,-32.603,-3.815
24.72,-30.182,-3.253
24.75,-24.742,-2.681
24.78,-20.776,-2.268
24.81,-17.162,-1.466
24.85,-14.284,-0.928
24.88,-11.967,-0.286
24.91,-7.405,0.057
24.94,-1.649,-0.126
24.98,0.632,0.47
25.01,4.141,1.741
25.04,9.616,1.363
25.07,11.827,1.546
25.11,17.267,2.154
25.14,21.759,1.959
25.17,24.637,1.959
25.2,27.129,2.199
25.24,28.989,2.646
25.27,30.568,3.276
25.3,33.06,3.792
25.33,35.236,4.273
25.37,37.025,5.144
25.4,39.026,6.346
25.43,41.272,7.515
25.46,43.202,8.683
25.5,44.992,10.092
25.53,46.782,11.948
25.56,52.994,13.036
25.59,61.101,12.83
25.63,68.12,13.002
25.66,73.665,13.059
25.69,75.665,13.117
25.72,77.315,13.059
25.76,79.736,12.991
25.79,83.456,13.254
25.82,87.247,13.758
25.86,90.826,14.423
25.89,93.985,14.972
25.92,96.512,15.522
25.95,99.319,16.049
25.99,102.443,16.473
26.02,105.917,16.874
26.05,109.427,17.309
26.08,112.761,17.905
26.12,116.095,18.512
26.15,119.218,18.959
26.18,122.096,19.348
26.21,125.079,19.795
26.25,128.238,20.276
26.28,131.677,20.803
26.31,135.573,21.33
26.34,139.258,21.926
26.38,142.241,22.499
26.41,144.522,22.968
26.44,146.944,23.232
26.47,149.997,23.518
26.51,153.085,23.873
26.54,155.893,24.412
26.57,158.385,24.755
26.6,160.455,25.133
26.64,163.824,25.569
26.67,166.106,25.924
26.7,168.246,26.428
26.73,171.124,26.691
26.77,173.546,27.001
26.8,176.318,27.562
26.83,179.688,28.123
26.86,182.39,28.605
26.9,185.127,29.086
26.93,188.005,29.452
26.96,190.251,29.865
26.99,192.673,30.231
27.03,195.024,30.46
27.06,197.305,30.781
27.09,199.657,31.171
27.13,201.692,31.514
27.16,203.833,31.812
27.19,205.974,32.041
27.22,207.167,32.27
27.26,208.43,32.568
27.29,210.361,32.751
27.32,212.361,32.981
27.35,214.572,33.359
27.39,216.573,33.794
27.42,218.538,34.229
27.45,220.959,34.573
27.48,222.679,34.802
27.52,224.294,35.169
27.55,226.434,35.489
27.58,228.54,35.764
27.61,230.891,36.085
27.65,232.436,36.371
27.68,234.085,36.795
27.71,236.261,37.024
27.74,237.84,37.265
27.78,239.455,37.483
27.81,240.543,37.723
27.84,242.648,38.078
27.87,244.754,38.25
27.91,246.333,38.548
27.94,247.737,38.834
27.97,249.106,39.109
28.0,250.229,39.201
28.04,251.422,39.35
28.07,253.107,39.567
28.1,254.651,39.854
28.13,256.3,40.198
28.17,257.95,40.427
28.2,259.143,40.679
28.23,260.512,40.919
28.26,261.284,41.022
28.3,262.126,41.125
28.33,263.284,41.148
28.36,264.583,41.389
28.4,266.232,41.687
28.43,267.776,41.996
28.46,269.215,42.237
28.49,270.444,42.466
28.53,271.391,42.66
28.56,272.409,42.798
28.59,273.392,42.844
28.62,274.48,42.935
28.66,275.673,43.142
28.69,276.936,43.382
28.72,278.13,43.577
28.75,279.042,43.703
28.79,279.568,43.795
28.82,279.955,43.817
28.85,280.235,43.795
28.88,280.481,43.737
28.92,281.078,43.76
28.95,281.815,43.875
28.98,282.341,43.978
29.01,282.587,44.069
29.05,282.973,44.104
29.08,283.359,44.127
29.11,283.253,44.081
29.14,282.867,44.024
29.18,283.394,43.978
29.21,283.92,43.989
29.24,284.061,44.069
29.27,284.131,44.15
29.31,283.99,44.035
29.34,283.815,44.035
29.37,284.236,43.955
29.4,283.815,43.909
29.44,284.061,43.955
29.47,284.096,43.852
29.5,283.85,43.84
29.53,283.078,43.646
29.57,281.85,43.417
29.6,280.656,43.05
29.63,279.112,42.672
29.66,277.884,42.408
29.7,277.357,42.282
29.73,276.691,42.134
29.76,275.708,42.03
29.8,274.304,41.847
29.83,272.409,41.595
29.86,270.83,41.251
29.89,269.496,40.828
29.93,268.057,40.541
29.96,266.934,40.415
29.99,265.776,40.22
30.02,264.372,40.026
30.06,263.144,39.774
30.09,261.319,39.476
30.12,259.705,39.235
30.15,258.546,38.937
30.19,257.248,38.651
30.22,255.809,38.445
30.25,254.335,38.296
30.28,253.107,38.078
30.32,251.738,37.769
30.35,250.053,37.46
30.38,248.053,37.173
30.41,246.228,36.864
30.45,244.684,36.532
30.48,243.21,36.142
30.51,241.034,35.844
30.54,239.42,35.627
30.58,237.875,35.295
30.61,235.98,34.974
30.64,234.05,34.642
30.67,232.05,34.378
30.71,230.365,34.092
30.74,228.821,33.817
30.77,226.996,33.427
30.8,224.75,33.21
30.84,223.592,33.015
30.87,221.977,32.648
30.9,219.977,32.385
30.93,218.362,32.064
30.97,216.502,31.789
31.0,214.713,31.526
31.03,213.098,31.182
31.07,211.449,30.873
31.1,209.308,30.598
31.13,206.851,30.266
31.16,204.465,29.819
31.2,202.359,29.315
31.23,200.183,28.937
31.26,198.042,28.673
31.29,195.866,28.33
31.33,193.655,27.963
31.36,191.374,27.505
31.39,188.356,27.127
31.42,185.689,26.772
31.46,183.443,26.256
31.49,181.126,25.764
31.52,178.74,25.431
31.55,176.178,25.168
31.59,173.616,24.824
31.62,171.054,24.332
31.65,168.036,23.85
31.68,165.053,23.427
31.72,162.175,22.968
31.75,159.367,22.453
31.78,156.77,21.96
31.81,153.928,21.582
31.85,150.699,21.158
31.88,146.593,20.563
31.91,143.188,19.944
31.94,140.276,19.36
31.98,137.643,19.062
32.01,135.818,18.821
32.04,132.976,18.375
32.07,130.098,18.168
32.11,127.641,17.745
32.14,124.588,17.435
32.17,122.903,17.092
32.2,120.061,16.473
32.24,116.27,16.095
32.27,113.217,15.637
32.3,110.304,15.087
32.34,107.181,14.514
32.37,103.566,13.918
32.4,99.46,13.369
32.43,95.319,12.739
32.47,91.212,12.04
32.5,87.703,11.387
32.53,83.913,10.825
32.56,80.263,10.425
32.6,76.929,9.932
32.63,73.524,9.439
32.66,69.98,8.947
32.69,66.4,8.557
32.73,63.312,8.133
32.76,60.469,7.664
32.79,57.24,7.171
32.82,53.906,6.782
32.86,50.537,6.358
32.89,47.238,5.842
32.92,43.729,5.247
32.95,39.973,4.674
32.99,36.324,4.261
33.02,34.534,4.009
33.05,30.779,3.139
33.08,24.391,2.646
33.12,20.706,2.119
33.15,16.705,1.352
33.18,14.635,0.871
33.21,11.967,0.16
33.25,7.159,0.08
33.28,1.93,0.218
33.31,-0.351,-0.321
33.34,-2.843,-1.512
33.38,-7.37,-1.191
33.41,-8.739,-1.501
33.44,-14.635,-2.177
33.47,-20.074,-1.787
33.51,-23.093,-1.776
33.54,-26.006,-2.199
33.57,-28.603,-2.692
33.61,-30.814,-3.23
33.64,-33.656,-3.712
33.67,-35.902,-4.319
33.7,-37.692,-5.43
33.74,-40.044,-6.679
33.77,-42.325,-7.836
33.8,-44.325,-9.119
33.83,-45.554,-10.757
33.87,-48.642,-12.475
33.9,-56.258,-12.681
33.93,-62.75,-12.406
33.96,-68.436,-12.532
34.0,-72.507,-12.578
34.03,-74.998,-12.704
34.06,-77.104,-12.727
34.09,-79.947,-12.945
34.13,-83.456,-13.288
34.16,-86.755,-13.838
34.19,-90.195,-14.388
34.22,-93.388,-14.904
34.26,-96.021,-15.454
34.29,-99.004,-16.003
34.32,-102.443,-16.416
34.35,-105.672,-16.817
34.39,-109.076,-17.321
34.42,-112.445,-17.905
34.45,-115.814,-18.489
34.48,-119.078,-18.913
34.52,-122.061,-19.337
34.55,-124.834,-19.818
34.58,-128.062,-20.334
34.61,-131.712,-20.78
34.65,-135.257,-21.239
34.68,-138.451,-21.823
34.71,-141.609,-22.441
34.74,-144.031,-22.762
34.78,-145.996,-23.037
34.81,-149.12,-23.358
34.84,-152.208,-23.736
34.88,-154.875,-24.228
34.91,-157.999,-24.733
34.94,-161.087,-25.145
34.97,-163.298,-25.638
35.01,-166.0,-26.164
35.04,-168.562,-26.416
35.07,-171.159,-26.795
35.1,-174.458,-27.184
35.14,-176.915,-27.654
35.17,-179.863,-28.284
35.2,-183.057,-28.673
35.23,-185.654,-29.109
35.27,-188.356,-29.567
35.3,-190.707,-29.922
35.33,-192.813,-30.22
35.36,-195.129,-30.449
35.4,-197.095,-30.724
35.43,-199.376,-31.148
35.46,-201.692,-31.457
35.49,-203.622,-31.697
35.53,-205.412,-31.961
35.56,-207.062,-32.27
35.59,-208.676,-32.557
35.62,-210.466,-32.786
35.66,-212.537,-33.061
35.69,-214.642,-33.439
35.72,-216.818,-33.886
35.75,-218.994,-34.286
35.79,-221.135,-34.584
35.82,-222.96,-34.905
35.85,-224.75,-35.226
35.88,-226.61,-35.524
35.92,-228.891,-35.776
35.95,-230.505,-35.97
35.98,-232.085,-36.383
36.01,-233.98,-36.612
36.05,-235.629,-36.944
36.08,-237.384,-37.07
36.11,-238.121,-37.288
36.15,-240.297,-37.654
36.18,-242.227,-37.861
36.21,-243.947,-38.227
36.24,-245.982,-38.491
36.28,-247.386,-38.846
36.31,-249.036,-39.155
36.34,-250.439,-39.27
36.37,-251.422,-39.396
36.41,-252.791,-39.59
36.44,-254.089,-39.751
36.47,-255.528,-40.003
36.5,-257.178,-40.232
36.54,-258.652,-40.507
36.57,-259.915,-40.77
36.6,-260.863,-40.965
36.63,-261.635,-41.057
36.67,-262.723,-41.114
36.7,-263.951,-41.309
36.73,-265.39,-41.584
36.76,-266.934,-41.824
36.8,-268.408,-42.053
36.83,-269.391,-42.271
36.86,-270.444,-42.512
36.89,-271.602,-42.649
36.93,-272.865,-42.764
36.96,-273.918,-42.878
36.99,-275.182,-43.142
37.02,-276.445,-43.348
37.06,-277.708,-43.543
37.09,-278.656,-43.634
37.12,-279.253,-43.772
37.15,-279.849,-43.817
37.19,-280.235,-43.829
37.22,-280.727,-43.806
37.25,-281.534,-43.886
37.28,-282.411,-43.989
37.32,-282.903,-44.161
37.35,-283.324,-44.184
37.38,-283.464,-44.218
37.41,-283.71,-44.184
37.45,-283.569,-44.127
37.48,-283.429,-44.058
37.51,-283.78,-44.012
37.55,-284.131,-44.001
37.58,-284.166,-44.104
37.61,-283.955,-44.058
37.64,-284.166,-44.115
37.68,-284.447,-43.978
37.71,-283.218,-43.852
37.74,-283.113,-43.829
37.77,-283.324,-43.669
37.81,-283.324,-43.669
37.84,-283.043,-43.623
37.87,-281.92,-43.451
37.9,-280.727,-43.245
37.94,-279.814,-42.878
37.97,-278.305,-42.546
38.0,-277.393,-42.386
38.03,-277.042,-42.271
38.07,-276.585,-42.225
38.1,-275.848,-42.111
38.13,-274.339,-41.904
38.16,-272.374,-41.641
38.2,-270.865,-41.251
38.23,-269.531,-40.828
38.26,-268.233,-40.541
38.29,-266.759,-40.358
38.33,-265.179,-40.152
38.36,-263.741,-39.888
38.39,-262.407,-39.613
38.42,-260.722,-39.315
38.46,-258.932,-39.063
38.49,-257.458,-38.754
38.52,-256.195,-38.502
38.55,-255.037,-38.296
38.59,-253.528,-38.147
38.62,-252.335,-38.021
38.65,-251.317,-37.757
38.68,-249.492,-37.402
38.72,-247.527,-37.185
38.75,-246.263,-36.887
38.78,-245.0,-36.578
38.82,-243.806,-36.337
38.85,-242.017,-36.051
38.88,-240.016,-35.821
38.91,-238.542,-35.501
38.95,-236.612,-35.077
38.98,-234.612,-34.745
39.01,-232.716,-34.424
39.04,-230.646,-34.138
39.08,-228.645,-33.725
39.11,-226.54,-33.347
39.14,-225.136,-33.141
39.17,-223.486,-32.9
39.21,-221.205,-32.614
39.24,-219.17,-32.236
39.27,-217.415,-31.869
39.3,-215.976,-31.652
39.34,-214.537,-31.445
39.37,-212.677,-31.148
39.4,-210.712,-30.827
39.43,-208.606,-30.518
39.47,-206.184,-30.162
39.5,-203.973,-29.739
39.53,-201.938,-29.235
39.56,-199.586,-28.857
39.6,-197.375,-28.593
39.63,-195.27,-28.261
39.66,-193.304,-27.906
39.69,-191.269,-27.505
39.73,-188.321,-27.161
39.76,-185.408,-26.795
39.79,-183.057,-26.245
39.82,-180.775,-25.729
39.86,-178.529,-25.374
39.89,-175.932,-25.099
39.92,-173.37,-24.801
39.95,-170.914,-24.332
39.99,-168.071,-23.873
40.02,-165.263,-23.495
40.05,-162.491,-23.037
40.09,-159.648,-22.533
40.12,-157.051,-22.052
40.15,-154.243,-21.662
40.18,-151.085,-21.273
40.22,-147.926,-20.769
40.25,-144.662,-20.162
40.28,-141.153,-19.612
40.31,-138.31,-19.234
40.35,-135.608,-18.764
40.38,-132.976,-18.466
40.41,-130.73,-18.008
40.44,-127.396,-17.699
40.48,-124.974,-17.458
40.51,-122.798,-17.046
40.54,-120.377,-16.622
40.57,-116.937,-16.129
40.61,-113.638,-15.774
40.64,-110.866,-15.236
40.67,-107.672,-14.629
40.7,-104.092,-14.033
40.74,-100.021,-13.437
40.77,-95.88,-12.83
40.8,-92.09,-12.177
40.83,-88.475,-11.49
40.87,-84.72,-10.974
40.9,-81.105,-10.528
40.93,-77.245,-10.001
40.96,-74.928,-9.783
41.0,-74.121,-9.565
41.03,-71.805,-9.462
41.06,-69.383,-9.428
41.09,-66.225,-8.844
41.13,-61.487,-8.168
41.16,-57.626,-7.503
41.19,-53.906,-6.679
41.22,-49.414,-5.888
41.26,-44.606,-5.075
41.29,-39.096,-4.17
41.32,-33.691,-3.517
41.36,-29.48,-2.795
41.39,-23.83,-1.89
41.42,-18.987,-1.466
41.45,-16.039,-0.779
41.49,-11.862,-0.401
41.52,-8.669,-0.298
41.55,-4.773,-0.08
41.58,-0.983,-0.126
41.62,0.491,0.069
41.65,1.018,0.916
41.68,4.387,1.02
41.71,5.896,1.1
41.75,9.546,1.959
41.78,15.196,1.867
41.81,19.408,1.856
41.84,24.251,2.028
41.88,27.69,2.28
41.91,30.006,2.91
41.94,32.603,3.586
41.97,35.201,4.101
42.01,37.376,4.892
42.04,39.552,6.071
42.07,41.553,7.4
42.1,43.448,8.683
42.14,44.781,10.047
42.17,47.694,11.559
42.2,54.959,11.96
42.23,61.592,11.925
42.27,67.523,12.212
42.3,71.489,12.303
42.33,73.033,12.498
42.36,74.928,12.544
42.4,78.227,12.693
42.43,82.193,12.956
42.46,85.281,13.54
42.49,88.44,14.193
42.53,91.528,14.709
42.56,94.511,15.179
42.59,97.354,15.637
42.63,100.443,16.164
42.66,103.987,16.645
42.69,107.742,17.103
42.72,111.287,17.676
42.76,114.691,18.295
42.79,117.885,18.867
42.82,121.394,19.326
42.85,124.272,19.646
42.89,126.869,20.139
42.92,130.309,20.631
42.95,133.923,21.055
42.98,137.292,21.548
43.02,140.346,22.075
43.05,143.083,22.613
43.08,145.61,22.957
43.11,147.54,23.152
43.15,150.313,23.507
43.18,153.682,23.919
43.21,157.262,24.561
43.24,160.35,25.053
43.28,162.596,25.489
43.31,164.807,25.912
43.34,167.299,26.29
43.37,170.001,26.634
43.41,173.055,26.886
43.44,172.142,26.485
43.47,168.001,26.199
43.5,167.685,25.775
43.54,168.913,25.271
43.57,171.194,25.672
43.6,175.055,26.382
43.63,176.564,27.184
43.67,180.074,28.421
43.7,185.197,29.051
43.73,188.181,29.968
43.76,193.234,30.976
43.8,197.13,31.411
43.83,199.657,31.961
43.86,203.061,32.247
43.9,204.991,32.419
43.93,207.202,32.74
43.96,209.869,32.843
43.99,212.151,33.152
44.03,214.993,33.599
44.06,217.31,34.046
44.09,219.556,34.538
44.12,222.118,34.825
44.16,223.627,35.02
44.19,225.276,35.409
44.22,227.487,35.615
44.25,229.417,35.867
44.29,231.558,36.154
44.32,233.067,36.44
44.35,234.401,36.784
44.38,236.331,37.001
44.42,237.56,37.116
44.45,239.139,37.448
44.48,241.139,37.7
44.51,242.613,38.021
44.55,244.614,38.307
44.58,246.193,38.514
44.61,247.948,38.937
44.64,249.948,39.235
44.68,251.527,39.476
44.71,252.896,39.682
44.74,254.335,39.923
44.77,256.125,40.198
44.81,257.634,40.415
44.84,258.932,40.621
44.87,260.126,40.77
44.9,260.828,40.896
44.94,261.354,40.965
44.97,262.091,40.965
45.0,262.968,41.022
45.03,264.337,41.251
45.07,265.811,41.595
45.1,267.531,41.939
45.13,268.584,42.134
45.17,270.058,42.443
45.2,270.935,42.592
45.23,272.234,42.809
45.26,272.971,42.729
45.3,273.532,42.878
45.33,274.796,42.97
45.36,276.129,43.245
45.39,277.287,43.371
45.43,278.27,43.623
45.46,278.972,43.657
45.49,279.182,43.783
45.52,279.709,43.703
45.56,279.849,43.691
45.59,280.692,43.714
45.62,281.253,43.817
45.65,281.955,43.966
45.69,282.271,44.047
45.72,282.727,44.092
45.75,282.938,44.092
45.78,282.832,44.047
45.82,282.657,43.989
45.85,283.359,43.989
45.88,283.71,43.989
45.91,283.815,44.092
45.95,283.99,44.127
45.98,284.201,44.15
46.01,284.236,44.069
46.04,283.464,43.921
46.08,282.727,43.806
46.11,282.973,43.691
46.14,283.113,43.588
46.17,282.516,43.554
46.21,281.709,43.428
46.24,280.341,43.176
46.27,279.147,42.855
46.3,278.13,42.534
46.34,277.182,42.374
46.37,276.866,42.317
46.4,276.27,42.214
46.43,275.287,42.088
46.47,274.094,41.893
46.5,272.479,41.675
46.53,271.146,41.343
46.57,269.742,40.965
46.6,268.373,40.679
46.63,267.32,40.53
46.66,266.197,40.358
46.7,264.899,40.163
46.73,263.635,39.9
46.76,261.916,39.613
46.79,260.161,39.338
46.83,258.792,39.029
46.86,257.704,38.754
46.89,256.406,38.536
46.92,254.861,38.376
46.96,253.493,38.181
46.99,252.124,37.872
47.02,250.51,37.563
47.05,248.685,37.299
47.09,247.246,37.093
47.12,246.158,36.807
47.15,244.543,36.486
47.18,242.789,36.245
47.22,241.315,35.993
47.25,239.525,35.661
47.28,237.56,35.283
47.31,235.384,34.871
47.35,233.348,34.573
47.38,231.558,34.229
47.41,229.558,33.851
47.44,227.487,33.519
47.48,225.592,33.244
47.51,223.592,32.981
47.54,221.591,32.625
47.57,219.661,32.247
47.61,217.696,31.927
47.64,215.906,31.663
47.67,214.116,31.4
47.7,212.502,31.113
47.74,210.957,30.804
47.77,208.711,30.54
47.8,206.325,30.243
47.84,204.079,29.807
47.87,202.078,29.338
47.9,200.043,28.971
47.93,197.972,28.731
47.97,195.901,28.433
48.0,193.936,28.032
48.03,191.199,27.551
48.06,188.145,27.173
48.1,185.619,26.772
48.13,183.337,26.245
48.16,181.056,25.775
48.19,178.74,25.466
48.23,176.213,25.214
48.26,173.721,24.87
48.29,171.089,24.377
48.32,168.246,23.931
48.36,165.474,23.541
48.39,162.631,23.06
48.42,159.753,22.567
48.45,157.016,21.995
48.49,153.156,21.491
48.52,150.594,21.25
48.55,148.242,20.666
48.58,145.049,20.322
48.62,142.557,19.875
48.65,138.766,19.406
48.68,136.52,19.211
48.71,135.257,18.718
48.75,132.52,18.421
48.78,129.817,18.168
48.81,126.273,17.687
48.84,122.939,17.16
48.88,119.955,16.462
48.91,116.376,15.866
48.94,112.761,15.396
48.97,110.094,14.984
49.01,107.777,14.503
49.04,104.198,14.033
49.07,100.197,13.621
49.11,96.161,12.991
49.14,92.23,12.315
49.17,88.791,11.616
49.2,84.895,11.032
49.24,81.351,10.619
49.27,78.017,10.092
49.3,74.367,9.577
49.33,70.787,9.084
49.37,67.137,8.626
49.4,63.487,8.111
49.43,59.978,7.549
49.46,56.398,6.965
49.5,52.818,6.507
49.53,49.379,6.037
49.56,45.834,5.522
49.59,42.325,4.972
49.63,38.921,4.525
49.66,35.692,4.135
49.69,34.323,4.078
49.72,32.182,3.471
49.76,26.357,2.99
49.79,22.707,2.623
49.82,18.846,1.81
49.85,16.354,1.26
49.89,14.214,0.367
49.92,9.09,-0.069
49.95,2.632,0.149
49.98,-0.386,-0.389
50.02,-3.755,-1.764
50.05,-8.914,-1.272
50.08,-9.616,-1.352
50.11,-13.722,-1.902
50.15,-18.285,-1.707
50.18,-21.935,-1.753
50.21,-25.374,-2.177
50.24,-28.603,-2.692
50.28,-31.2,-3.219
50.31,-34.007,-3.677
50.34,-35.832,-4.319
50.38,-37.411,-5.43
50.41,-39.587,-6.656
50.44,-41.974,-7.755
50.47,-43.904,-8.993
50.51,-45.097,-10.608
50.54,-47.729,-12.429
50.57,-55.345,-12.796
50.6,-62.083,-12.452
50.64,-67.839,-12.624
50.67,-72.752,-12.704
50.7,-75.139,-12.761
50.73,-77.104,-12.83
50.77,-80.193,-13.014
50.8,-83.421,-13.323
50.83,-86.72,-13.896
50.86,-90.405,-14.411
50.9,-93.388,-14.915
50.93,-95.985,-15.476
50.96,-98.969,-16.003
50.99,-102.197,-16.393
51.03,-105.426,-16.794
51.06,-108.9,-17.309
51.09,-112.41,-17.894
51.12,-115.744,-18.501
51.16,-119.218,-18.97
51.19,-122.202,-19.394
51.22,-124.939,-19.898
51.25,-128.168,-20.391
51.29,-131.537,-20.78
51.32,-135.011,-21.284
51.35,-139.223,-21.949
51.38,-141.96,-22.43
51.42,-143.961,-22.9
51.45,-145.786,-22.957
51.48,-148.383,-23.358
51.51,-152.699,-23.759
51.55,-155.402,-24.274
51.58,-158.244,-24.824
51.61,-160.631,-25.179
51.65,-163.017,-25.672
51.68,-165.86,-26.084
51.71,-168.597,-26.428
51.74,-171.44,-26.806
51.78,-174.388,-27.23
51.81,-176.95,-27.757
51.84,-180.144,-28.341
51.87,-183.127,-28.742
51.91,-185.829,-29.177
51.94,-188.567,-29.613
51.97,-190.813,-29.991
52.0,-192.953,-30.277
52.04,-195.164,-30.483
52.07,-197.025,-30.747
52.1,-199.271,-31.159
52.13,-201.692,-31.445
52.17,-203.552,-31.72
52.2,-205.307,-31.984
52.23,-206.816,-32.27
52.26,-208.466,-32.568
52.3,-210.536,-32.832
52.33,-212.677,-33.107
52.36,-214.748,-33.53
52.39,-216.783,-33.977
52.43,-219.099,-34.367
52.46,-221.451,-34.676
52.49,-223.521,-35.031
52.52,-225.136,-35.386
52.56,-227.171,-35.718
52.59,-229.382,-35.936
52.62,-231.032,-36.165
52.65,-232.681,-36.497
52.69,-234.401,-36.761
52.72,-235.664,-36.944
52.75,-237.103,-37.105
52.78,-238.507,-37.299
52.82,-240.051,-37.597
52.85,-241.911,-37.872
52.88,-243.666,-38.124
52.92,-245.28,-38.399
52.95,-246.79,-38.754
52.98,-248.299,-39.018
53.01,-249.492,-39.155
53.05,-250.79,-39.304
53.08,-252.299,-39.533
53.11,-254.054,-39.842
53.14,-255.739,-40.117
53.18,-257.248,-40.404
53.21,-258.792,-40.679
53.24,-260.126,-40.931
53.27,-261.179,-41.103
53.31,-262.021,-41.171
53.34,-263.109,-41.229
53.37,-264.372,-41.435
53.4,-265.987,-41.71
53.44,-267.461,-41.962
53.47,-268.864,-42.191
53.5,-269.812,-42.397
53.53,-270.865,-42.615
53.57,-271.848,-42.741
53.6,-272.9,-42.798
53.63,-273.883,-42.89
53.66,-275.111,-43.119
53.7,-276.27,-43.325
53.73,-277.568,-43.52
53.76,-278.375,-43.634
53.79,-279.112,-43.795
53.83,-279.709,-43.84
53.86,-280.235,-43.863
53.89,-280.621,-43.863
53.92,-281.499,-43.943
53.96,-282.201,-44.058
53.99,-282.762,-44.195
54.02,-283.253,-44.23
54.05,-283.71,-44.31
54.09,-283.955,-44.276
54.12,-283.64,-44.218
54.15,-283.324,-44.138
54.18,-283.955,-44.104
54.22,-284.341,-44.069
54.25,-284.341,-44.173
54.28,-283.955,-44.104
54.32,-284.236,-44.195
54.35,-284.517,-43.989
54.38,-282.973,-43.863
54.41,-282.657,-43.772
54.45,-282.762,-43.588
54.48,-282.797,-43.588
54.51,-282.411,-43.52
54.54,-281.218,-43.382
54.58,-279.99,-43.142
54.61,-278.937,-42.809
54.64,-277.884,-42.523
54.67,-277.217,-42.397
54.71,-276.831,-42.34
54.74,-276.34,-42.294
54.77,-275.533,-42.145
54.8,-273.953,-41.939
54.84,-272.198,-41.641
54.87,-270.619,-41.24
54.9,-269.075,-40.793
54.93,-267.636,-40.495
54.97,-266.338,-40.312
55.0,-264.934,-40.117
55.03,-263.53,-39.888
55.06,-262.056,-39.625
55.1,-260.547,-39.384
55.13,-258.968,-39.121
55.16,-257.494,-38.869
55.19,-256.546,-38.628
55.23,-255.423,-38.422
55.26,-254.089,-38.342
55.29,-253.001,-38.181
55.32,-251.808,-37.872
55.36,-249.843,-37.528
55.39,-248.018,-37.276
55.42,-246.719,-36.979
55.45,-245.351,-36.692
55.49,-244.122,-36.429
55.52,-242.473,-36.165
55.55,-240.753,-35.982
55.59,-239.104,-35.615
55.62,-236.682,-35.18
55.65,-234.647,-34.768
55.68,-232.822,-34.447
55.72,-231.418,-34.241
55.75,-229.523,-33.851
55.78,-227.382,-33.599
55.81,-226.013,-33.359
55.85,-223.978,-33.072
55.88,-221.732,-32.74
55.91,-219.731,-32.27
55.94,-217.59,-31.869
55.98,-215.695,-31.594
56.01,-214.116,-31.342
56.04,-212.361,-31.022
56.07,-210.431,-30.747
56.11,-208.36,-30.472
56.14,-205.904,-30.162
56.17,-203.728,-29.739
56.2,-201.657,-29.246
56.24,-199.341,-28.879
56.27,-197.34,-28.639
56.3,-195.551,-28.33
56.33,-193.304,-27.929
56.37,-190.813,-27.516
56.4,-187.9,-27.115
56.43,-185.268,-26.749
56.46,-182.951,-26.21
56.5,-180.46,-25.695
56.53,-178.178,-25.374
56.56,-175.757,-25.111
56.59,-173.265,-24.79
56.63,-170.598,-24.332
56.66,-167.79,-23.873
56.69,-165.053,-23.484
56.72,-162.105,-23.003
56.76,-159.332,-22.51
56.79,-156.805,-22.018
56.82,-153.893,-21.605
56.86,-150.839,-21.261
56.89,-147.365,-20.643
56.92,-143.434,-20.047
56.95,-140.732,-19.543
56.99,-138.345,-19.154
57.02,-135.854,-18.89
57.05,-133.853,-18.627
57.08,-131.046,-18.157
57.12,-127.536,-17.882
57.15,-125.29,-17.538
57.18,-122.658,-17.011
57.21,-119.885,-16.53
57.25,-116.516,-16.003
57.28,-113.217,-15.637
57.31,-110.69,-15.179
57.34,-107.777,-14.594
57.38,-104.092,-14.079
57.41,-100.162,-13.54
57.44,-96.056,-12.933
57.47,-92.406,-12.257
57.51,-88.545,-11.547
57.54,-84.93,-11.055
57.57,-81.526,-10.619
57.6,-78.403,-10.207
57.64,-75.349,-9.737
57.67,-71.945,-9.325
57.7,-68.33,-8.901
57.73,-64.716,-8.397
57.77,-60.995,-7.755
57.8,-57.1,-7.091
57.83,-52.994,-6.484
57.86,-48.677,-5.854
57.9,-44.466,-5.201
57.93,-40.605,-4.536
57.96,-36.464,-3.975
57.99,-32.849,-3.574
58.03,-30.392,-3.311
58.06,-27.374,-2.726
58.09,-22.672,-2.268
58.13,-19.443,-1.844
58.16,-16.565,-1.249
58.19,-14.67,-0.676
58.22,-11.511,-0.126
58.26,-6.563,-0.034
58.29,-1.158,-0.149
58.32,0.597,0.504
58.35,3.755,1.558
58.39,7.51,1.123
58.42,8.739,1.615
58.45,14.565,2.062
58.48,19.688,1.764
58.52,23.479,1.879
58.55,26.041,2.199
58.58,28.462,2.749
58.61,31.235,3.23
58.65,34.077,3.666
58.68,36.324,4.41
58.71,38.289,5.556
58.74,40.605,6.782
58.78,42.921,7.939
58.81,44.571,9.256
58.84,45.589,11.009
58.87,48.572,12.704
58.91,56.152,12.887
58.94,63.101,12.567
58.97,68.822,12.704
59.0,73.805,12.83
59.04,76.227,12.819
59.07,77.49,12.865
59.1,80.473,13.082
59.13,84.018,13.334
59.17,87.212,13.884
59.2,90.932,14.434
59.23,93.774,14.938
59.26,96.442,15.591
59.3,99.741,16.084
59.33,102.829,16.45
59.36,106.023,16.897
59.4,109.322,17.367
59.43,112.515,17.939
59.46,115.849,18.432
59.49,119.043,18.856
59.53,122.202,19.348
59.56,125.255,19.898
59.59,128.519,20.402
59.62,132.133,20.883
59.66,135.748,21.388
59.69,139.047,21.983
59.72,141.89,22.51
59.75,144.382,22.842
59.79,146.382,23.014
59.82,148.979,23.369
59.85,152.348,23.759
59.88,155.191,24.228
59.92,157.753,24.607
59.95,160.139,25.088
59.98,163.052,25.534
60.01,164.491,25.775
60.05,165.755,25.97
60.08,167.439,25.981
60.11,169.58,26.268
60.14,172.879,26.772
60.18,176.353,27.344
60.21,179.266,27.963
60.24,182.074,28.605
60.27,185.092,29.28
60.31,188.496,29.83
60.34,191.901,30.243
60.37,194.814,30.701
60.4,197.937,31.216
60.44,200.639,31.64
60.47,202.991,31.972
60.5,205.377,32.19
60.53,207.237,32.373
60.57,208.641,32.637
60.6,210.466,32.855
60.63,212.361,33.038
60.67,214.432,33.37
60.7,216.608,33.748
60.73,218.292,34.138
60.76,220.012,34.412
60.8,221.696,34.584
60.83,222.995,34.802
60.86,224.504,35.1
60.89,226.399,35.317
60.93,228.049,35.535
60.96,229.944,35.856
60.99,231.137,36.131
61.02,233.067,36.6
61.06,235.454,36.772
61.09,236.893,37.127
61.12,238.367,37.357
61.15,239.139,37.563
61.19,241.139,37.826
61.22,243.034,37.906
61.25,244.438,38.273
61.28,246.298,38.628
61.32,247.878,38.903
61.35,249.141,39.109
61.38,250.685,39.327
61.41,252.335,39.59
61.45,254.019,39.877
61.48,255.774,40.152
61.51,257.353,40.392
61.54,258.897,40.713
61.58,260.477,40.965
61.61,261.354,41.103
61.64,262.337,41.206
61.67,263.425,41.251
61.71,264.758,41.515
61.74,266.338,41.767
61.77,267.847,42.007
61.8,269.075,42.202
61.84,270.023,42.42
61.87,270.97,42.592
61.9,272.023,42.706
61.93,273.181,42.775
61.97,274.339,42.97
62.0,275.638,43.21
62.03,277.147,43.474
62.07,278.27,43.646
62.1,279.112,43.795
62.13,279.709,43.875
62.16,280.13,43.886
62.2,280.516,43.863
62.23,281.007,43.852
62.26,281.779,43.921
62.29,282.622,44.069
62.33,283.113,44.173
62.36,283.359,44.241
62.39,283.745,44.253
62.42,283.92,44.241
62.46,283.429,44.115
62.49,283.183,44.069
62.52,284.026,44.024
62.55,284.517,44.092
62.59,284.622,44.207
62.62,284.727,44.264
62.65,284.552,44.184
62.68,284.622,44.184
62.72,284.763,44.081
62.75,284.236,44.047
62.78,284.587,44.024
62.81,284.482,43.921
62.85,284.166,43.909
62.88,283.324,43.691
62.91,282.06,43.451
62.94,280.867,43.073
62.98,279.323,42.718
63.01,278.375,42.523
63.04,277.954,42.374
63.07,277.147,42.248
63.11,275.778,42.088
63.14,274.199,41.87
63.17,272.514,41.572
63.2,271.111,41.229
63.24,269.707,40.862
63.27,268.268,40.633
63.3,267.039,40.461
63.34,265.776,40.255
63.37,264.513,40.049
63.4,263.249,39.785
63.43,261.53,39.545
63.47,259.985,39.304
63.5,258.757,38.983
63.53,257.458,38.72
63.56,256.02,38.525
63.6,254.475,38.319
63.63,253.072,38.078
63.66,251.668,37.735
63.69,249.808,37.437
63.73,247.948,37.173
63.76,246.228,36.864
63.79,244.754,36.52
63.82,242.754,36.074
63.86,240.718,35.867
63.89,239.42,35.558
63.92,237.349,35.214
63.95,235.384,34.894
63.99,233.243,34.527
64.02,231.383,34.309
64.05,229.909,34.012
64.08,228.575,33.748
64.12,226.645,33.45
64.15,224.715,33.324
64.18,223.767,33.084
64.21,222.047,32.706
64.25,220.117,32.442
64.28,218.468,32.167
64.31,216.818,31.892
64.34,215.274,31.594
64.38,213.625,31.239
64.41,211.519,30.941
64.44,209.308,30.655
64.47,206.992,30.22
64.51,204.535,29.716
64.54,202.184,29.28
64.57,199.937,28.948
64.61,197.832,28.639
64.64,195.621,28.261
64.67,193.445,27.883
64.7,191.058,27.505
64.74,188.251,27.173
64.77,185.619,26.76
64.8,183.337,26.21
64.83,180.74,25.741
64.87,178.319,25.454
64.9,176.038,25.145
64.93,173.651,24.778
64.96,170.879,24.32
65.0,167.931,23.919
65.03,165.123,23.484
65.06,162.175,22.968
65.09,159.508,22.441
65.13,156.876,22.018
65.16,154.138,21.697
65.19,151.155,21.273
65.22,147.716,20.689
65.26,144.487,20.196
65.29,141.399,19.646
65.32,138.065,19.257
65.35,135.959,18.844
65.39,133.046,18.295
65.42,130.379,18.134
65.45,127.852,17.722
65.48,124.834,17.447
65.52,122.903,17.023
65.55,119.745,16.473
65.58,116.235,16.141
65.61,113.463,15.648
65.65,110.796,15.121
65.68,107.812,14.594
65.71,104.198,14.102
65.74,100.267,13.586
65.78,96.196,12.899
65.81,92.23,12.2
65.84,88.686,11.559
65.88,84.755,11.02
65.91,81.105,10.562
65.94,77.666,10.001
65.97,74.156,9.508
66.01,70.541,9.05
66.04,66.716,8.569
66.07,63.031,8.03
66.1,59.592,7.435
66.14,56.082,6.919
66.17,52.643,6.518
66.2,49.484,6.083
66.23,46.115,5.544
66.27,42.184,4.983
66.3,38.289,4.502
66.33,35.095,4.09
66.36,33.411,3.769
66.4,29.445,2.978
66.43,23.795,2.623
66.46,20.636,2.165
66.49,17.513,1.466
66.53,16.319,0.871
66.56,13.652,0.309
66.59,9.476,0.241
66.62,4.176,0.103
66.66,0.105,-0.263
66.69,-2.211,-1.455
66.72,-7.37,-1.398
66.75,-9.335,-1.478
66.79,-15.021,-2.051
66.82,-20.32,-1.673
66.85,-23.022,-1.821
66.88,-25.9,-2.348
66.92,-28.778,-2.761
66.95,-31.165,-3.127
66.98,-33.691,-3.597
67.01,-35.411,-4.387
67.05,-37.447,-5.522
67.08,-40.009,-6.61
67.11,-42.255,-7.664
67.15,-44.044,-9.05
67.18,-45.448,-10.78
67.21,-47.765,-12.555
67.24,-54.994,-12.991
67.28,-62.154,-12.578
67.31,-67.804,-12.704
67.34,-73.033,-12.773
67.37,-75.841,-12.761
67.41,-77.315,-12.83
67.44,-80.052,-13.071
67.47,-83.456,-13.323
67.5,-86.755,-13.804
67.54,-90.44,-14.354
67.57,-93.564,-14.927
67.6,-96.161,-15.534
67.63,-99.284,-16.049
67.67,-102.548,-16.381
67.7,-105.672,-16.828
67.73,-109.076,-17.378
67.76,-112.585,-17.962
67.8,-115.955,-18.443
67.83,-119.043,-18.867
67.86,-121.886,-19.348
67.89,-124.693,-19.807
67.93,-127.922,-20.265
67.96,-131.502,-20.677
67.99,-134.836,-21.204
68.02,-138.135,-21.846
68.06,-141.574,-22.419
68.09,-144.031,-22.728
68.12,-146.101,-23.049
68.15,-148.874,-23.392
68.19,-151.892,-23.793
68.22,-155.051,-24.217
68.25,-158.455,-24.733
68.28,-161.263,-25.191
68.32,-163.228,-25.741
68.35,-166.071,-26.176
68.38,-168.527,-26.348
68.42,-171.23,-26.772
68.45,-174.458,-27.184
68.48,-176.88,-27.665
68.51,-180.003,-28.249
68.55,-183.057,-28.627
68.58,-185.513,-29.131
68.61,-188.216,-29.59
68.64,-190.567,-29.888
68.68,-192.848,-30.174
68.71,-194.989,-30.426
68.74,-196.884,-30.758
68.77,-199.306,-31.148
68.81,-201.727,-31.411
68.84,-203.552,-31.686
68.87,-205.132,-32.007
68.9,-206.781,-32.27
68.94,-208.466,-32.488
68.97,-210.536,-32.728
69.0,-212.537,-33.061
69.03,-214.607,-33.519
69.07,-216.853,-33.931
69.1,-219.099,-34.286
69.13,-221.275,-34.619
69.16,-223.1,-34.985
69.2,-224.89,-35.283
69.23,-226.715,-35.524
69.26,-228.821,-35.718
69.29,-230.119,-35.948
69.33,-232.05,-36.383
69.36,-233.91,-36.543
69.39,-235.524,-36.887
69.42,-237.209,-37.047
69.46,-238.051,-37.334
69.49,-240.086,-37.631
69.52,-241.771,-37.769
69.55,-243.596,-38.113
69.59,-245.421,-38.41
69.62,-246.86,-38.788
69.65,-248.544,-39.018
69.69,-249.913,-39.144
69.72,-251.106,-39.384
69.75,-252.791,-39.636
69.78,-254.405,-39.865
69.82,-256.09,-40.152
69.85,-257.774,-40.427
69.88,-259.178,-40.713
69.91,-260.371,-40.931
69.95,-261.249,-41.022
69.98,-262.056,-41.045
70.01,-262.968,-41.16
70.04,-264.162,-41.355
70.08,-265.811,-41.595
70.11,-267.355,-41.813
70.14,-268.513,-42.099
70.17,-269.496,-42.363
70.21,-270.549,-42.523
70.24,-271.637,-42.592
70.27,-272.655,-42.66
70.3,-273.602,-42.855
70.34,-274.901,-43.073
70.37,-276.199,-43.268
70.4,-277.498,-43.451
70.43,-278.34,-43.634
70.47,-279.077,-43.772
70.5,-279.674,-43.817
70.53,-280.2,-43.806
70.56,-280.656,-43.829
70.6,-281.534,-43.921
70.63,-282.236,-44.012
70.66,-282.867,-44.127
70.69,-283.113,-44.127
70.73,-283.324,-44.195
70.76,-283.64,-44.173
70.79,-283.464,-44.115
70.82,-283.253,-43.966
70.86,-283.499,-43.966
70.89,-283.85,-43.966
70.92,-283.885,-44.058
70.95,-283.745,-43.989
70.99,-284.026,-44.092
71.02,-284.201,-43.955
71.05,-282.938,-43.863
71.09,-282.867,-43.772
71.12,-283.113,-43.623
71.15,-283.148,-43.669
71.18,-282.762,-43.6
71.22,-281.604,-43.428
71.25,-280.481,-43.142
71.28,-279.463,-42.832
71.31,-278.34,-42.569
71.35,-277.638,-42.408
71.38,-277.147,-42.294
71.41,-276.48,-42.202
71.44,-275.427,-42.134
71.48,-274.234,-41.973
71.51,-272.655,-41.618
71.54,-271.075,-41.217
71.57,-269.321,-40.839
71.61,-267.776,-40.61
71.64,-266.794,-40.369
71.67,-265.671,-40.14
71.7,-264.407,-39.98
71.74,-263.004,-39.785
71.77,-261.143,-39.499
71.8,-259.424,-39.178
71.83,-258.09,-38.823
71.87,-256.862,-38.617
71.9,-255.774,-38.456
71.93,-254.3,-38.262
71.96,-253.107,-38.044
72.0,-251.598,-37.746
72.03,-249.281,-37.471
72.06,-247.702,-37.196
72.09,-246.649,-36.83
72.13,-245.245,-36.555
72.16,-243.842,-36.383
72.19,-241.806,-36.074
72.22,-239.806,-35.787
72.26,-238.297,-35.352
72.29,-236.191,-34.974
72.32,-234.261,-34.733
72.36,-232.506,-34.412
72.39,-230.821,-34.092
72.42,-228.996,-33.748
72.45,-226.82,-33.53
72.49,-225.276,-33.29
72.52,-223.17,-32.855
72.55,-221.17,-32.557
72.58,-219.064,-32.064
72.62,-216.537,-31.824
72.65,-215.906,-31.64
72.68,-214.677,-31.285
72.71,-212.747,-31.193
72.75,-211.028,-30.976
72.78,-208.571,-30.644
72.81,-206.255,-30.174
72.84,-204.219,-29.658
72.88,-201.727,-29.235
72.91,-199.376,-28.925
72.94,-197.481,-28.559
72.97,-195.41,-28.158
73.01,-193.129,-27.848
73.04,-190.707,-27.528
73.07,-187.97,-27.161
73.1,-185.478,-26.68
73.14,-182.951,-26.153
73.17,-180.424,-25.775
73.2,-178.354,-25.466
73.23,-176.143,-25.111
73.27,-173.616,-24.744
73.3,-170.844,-24.354
73.33,-167.86,-23.965
73.36,-165.158,-23.484
73.4,-162.35,-22.888
73.43,-159.262,-22.43
73.46,-156.735,-22.098
73.49,-154.208,-21.674
73.53,-151.085,-21.193
73.56,-147.856,-20.7
73.59,-144.557,-20.208
73.63,-141.188,-19.726
73.66,-138.696,-19.291
73.69,-136.205,-18.787
73.72,-133.748,-18.547
73.76,-131.01,-18.18
73.79,-127.536,-17.825
73.82,-125.15,-17.378
73.85,-122.833,-16.943
73.89,-120.096,-16.576
73.92,-116.551,-16.129
73.95,-113.533,-15.683
73.98,-110.901,-15.075
74.02,-107.707,-14.606
74.05,-103.987,-14.125
74.08,-100.021,-13.529
74.11,-96.091,-12.819
74.15,-92.125,-12.12
74.18,-88.159,-11.57
74.21,-84.685,-11.055
74.24,-81.21,-10.482
74.28,-77.666,-9.989
74.31,-74.051,-9.531
74.34,-70.226,-9.073
74.37,-66.47,-8.534
74.41,-62.856,-7.927
74.44,-59.171,-7.332
74.47,-55.415,-6.885
74.5,-51.941,-6.369
74.54,-48.045,-5.751
74.57,-44.22,-5.201
74.6,-40.465,-4.697
74.63,-36.499,-4.135
74.67,-33.2,-3.746
74.7,-31.375,-3.379
74.73,-27.655,-2.807
74.76,-23.058,-2.6
74.8,-20.32,-2.131
74.83,-18.004,-1.317
74.86,-16.495,-0.745
74.9,-13.371,-0.412
74.93,-9.441,-0.241
74.96,-4.071,0.08
74.99,0.0,0.149
75.03,1.544,1.191
75.06,6.352,1.398
75.09,8.879,1.386
75.12,14.319,2.005
75.16,20.531,1.902
75.19,23.233,1.959
75.22,25.514,2.417
75.25,29.024,2.704
75.29,31.656,2.921
75.32,33.516,3.643
75.35,35.657,4.605
75.38,37.938,5.544
75.42,40.324,6.461
75.45,42.184,7.606
75.48,43.694,9.142
75.51,45.168,10.825
75.55,47.589,12.372
75.58,54.608,12.945
75.61,62.154,12.613
75.64,67.769,12.727
75.68,73.279,12.807
75.71,75.63,12.67
75.74,76.543,12.819
75.77,79.666,13.048
75.81,83.456,13.22
75.84,86.615,13.678
75.87,90.23,14.319
75.9,93.143,14.915
75.94,95.915,15.522
75.97,99.284,15.946
76.0,102.232,16.29
76.03,105.18,16.828
76.07,108.795,17.367
76.1,112.234,17.825
76.13,115.569,18.329
76.17,118.692,18.821
76.2,121.675,19.394
76.23,124.974,19.875
76.26,128.308,20.265
76.3,131.572,20.735
76.33,135.152,21.376
76.36,138.907,21.983
76.39,142.101,22.464
76.43,144.522,22.797
76.46,146.733,23.175
76.49,149.295,23.484
76.52,152.664,23.954
76.56,156.314,24.274
76.59,158.139,24.675
76.62,160.315,25.214
76.65,162.737,25.512
76.69,165.123,25.775
76.72,167.369,26.027
76.75,169.685,26.428
76.78,172.318,26.84
76.82,175.301,27.333
76.85,178.705,27.871
76.88,181.863,28.478
76.91,184.706,29.177
76.95,188.075,29.681
76.98,190.672,29.991
77.01,193.129,30.369
77.04,195.761,30.724
77.08,198.218,31.102
77.11,200.71,31.4
77.14,202.885,31.606
77.17,204.465,31.915
77.21,206.325,32.213
77.24,207.834,32.362
77.27,209.483,32.568
77.3,211.343,32.809
77.34,213.133,33.175
77.37,215.274,33.576
77.4,217.31,33.886
77.44,219.17,34.229
77.47,220.995,34.55
77.5,222.328,34.813
77.53,224.048,35.065
77.57,226.259,35.237
77.6,228.084,35.558
77.63,230.26,36.039
77.66,231.979,36.291
77.7,233.418,36.635
77.73,235.594,36.875
77.76,237.279,37.196
77.79,238.823,37.46
77.83,239.981,37.643
77.86,241.982,37.861
77.89,243.596,38.055
77.92,245.245,38.479
77.96,247.141,38.743
77.99,248.579,38.937
78.02,249.773,39.132
78.05,251.071,39.384
78.09,252.721,39.636
78.12,254.581,39.877
78.15,256.371,40.163
78.18,257.88,40.472
78.22,259.283,40.782
78.25,260.722,40.976
78.28,261.6,41.034
78.31,262.442,41.16
78.35,263.495,41.286
78.38,264.793,41.481
78.41,266.338,41.652
78.44,267.741,41.881
78.48,268.935,42.191
78.51,270.093,42.42
78.54,271.111,42.546
78.57,272.198,42.649
78.61,273.181,42.786
78.64,274.304,43.016
78.67,275.638,43.199
78.7,277.077,43.394
78.74,278.13,43.565
78.77,278.972,43.772
78.8,279.498,43.817
78.84,279.99,43.829
78.87,280.305,43.737
78.9,280.586,43.76
78.93,281.323,43.817
78.97,282.166,43.943
79.0,282.622,44.024
79.03,282.832,44.104
79.06,283.113,44.15
79.1,283.464,44.161
79.13,283.183,44.035
79.16,282.973,43.966
79.19,283.604,43.978
79.23,284.026,44.047
79.26,284.201,44.127
79.29,284.412,44.15
79.32,284.061,44.058
79.36,283.955,44.104
79.39,284.447,43.989
79.42,284.096,43.955
79.45,284.377,43.966
79.49,284.306,43.909
79.52,284.026,43.886
79.55,283.043,43.646
79.58,281.815,43.382
79.62,280.656,42.993
79.65,279.042,42.66
79.68,277.989,42.42
79.71,277.533,42.237
79.75,276.515,42.076
79.78,275.217,42.042
79.81,274.023,41.836
79.84,272.409,41.526
79.88,270.97,41.171
79.91,269.426,40.873
79.94,268.057,40.679
79.97,267.075,40.45
80.01,265.952,40.22
80.04,264.723,40.072
80.07,263.354,39.865
80.11,261.635,39.602
80.14,260.126,39.258
80.17,258.617,38.903
80.2,257.248,38.697
80.24,255.984,38.491
80.27,254.51,38.262
80.3,253.107,37.975
80.33,251.352,37.712
80.37,249.597,37.494
80.4,248.053,37.162
80.43,246.298,36.795
80.46,244.894,36.509
80.5,243.034,36.188
80.53,241.28,35.993
80.56,240.051,35.673
80.59,237.946,35.26
80.63,235.419,34.928
80.66,233.278,34.573
80.69,231.769,34.275
80.72,230.47,33.943
80.76,229.102,33.794
80.79,227.206,33.611
80.82,225.346,33.473
80.85,224.258,33.129
80.89,222.469,32.728
80.92,220.503,32.522
80.95,219.064,32.236
80.98,217.099,31.846
81.02,215.063,31.491
81.05,213.168,31.136
81.08,211.133,30.861
81.11,208.957,30.506
81.15,206.5,30.059
81.18,203.973,29.578
81.21,201.482,29.189
81.24,199.271,28.868
81.28,197.446,28.524
81.31,195.41,28.169
81.34,193.269,27.871
81.38,190.637,27.539
81.41,187.83,27.161
81.44,185.513,26.68
81.47,183.337,26.187
81.51,180.846,25.832
81.54,178.635,25.534
81.57,176.318,25.145
81.6,173.792,24.778
81.64,170.984,24.343
81.67,168.001,23.965
81.7,165.404,23.507
81.73,162.666,22.945
81.77,159.543,22.453
81.8,156.665,22.086
81.83,154.173,21.685
81.86,150.874,21.101
81.9,146.698,20.471
81.93,143.329,19.99
81.96,140.521,19.474
81.99,138.135,19.142
82.03,136.345,18.799
82.06,133.186,18.432
82.09,130.519,18.363
82.12,128.273,17.871
82.16,125.114,17.481
82.19,123.184,17.092
82.22,120.166,16.553
82.25,116.586,16.221
82.29,113.849,15.671
82.32,110.971,15.087
82.35,107.848,14.617
82.38,104.268,14.125
82.42,100.267,13.529
82.45,96.196,12.83
82.48,92.195,12.143
82.51,88.37,11.57
82.55,84.65,11.02
82.58,81.175,10.493
82.61,77.701,9.943
82.65,74.016,9.508
82.68,70.226,9.073
82.71,66.716,8.546
82.74,63.312,7.973
82.78,59.697,7.469
82.81,56.117,6.999
82.84,52.818,6.564
82.87,49.66,6.026
82.91,46.15,5.522
82.94,42.43,5.086
82.97,39.026,4.628
83.0,35.551,4.078
83.04,33.551,3.872
83.07,30.814,3.242
83.1,24.812,2.761
83.13,21.162,2.36
83.17,18.32,1.409
83.2,15.933,0.733
83.23,12.669,0.458
83.26,8.809,0.183
83.3,2.983,-0.046
83.33,-0.105,-0.401
83.36,-2.878,-1.478
83.39,-7.405,-1.237
83.43,-9.511,-1.546
83.46,-15.793,-1.936
83.49,-20.215,-1.707
83.52,-23.058,-2.108
83.56,-26.637,-2.52
83.59,-29.726,-2.658
83.62,-31.621,-3.047
83.65,-33.34,-3.712
83.69,-34.569,-4.594
83.72,-37.025,-5.476
83.75,-39.552,-6.278
83.78,-41.588,-7.458
83.82,-43.553,-9.05
83.85,-45.413,-10.631
83.88,-47.624,-12.212
83.92,-54.713,-12.876
83.95,-62.224,-12.624
83.98,-67.909,-12.761
84.01,-73.068,-12.796
84.05,-75.63,-12.761
84.08,-77.034,-12.887
84.11,-80.052,-13.117
84.14,-83.702,-13.311
84.18,-86.966,-13.758
84.21,-90.335,-14.377
84.24,-93.494,-14.984
84.27,-96.196,-15.511
84.31,-99.284,-15.958
84.34,-102.408,-16.313
84.37,-105.426,-16.84
84.4,-109.041,-17.378
84.44,-112.621,-17.859
84.47,-115.814,-18.352
84.5,-118.762,-18.879
84.53,-121.64,-19.394
84.57,-124.693,-19.795
84.6,-127.957,-20.185
84.63,-131.361,-20.666
84.66,-134.871,-21.273
84.7,-138.38,-21.903
84.73,-141.82,-22.384
84.76,-144.101,-22.693
84.79,-145.926,-23.106
84.83,-149.084,-23.484
84.86,-152.348,-23.793
84.89,-155.191,-24.171
84.92,-158.139,-24.733
84.96,-160.947,-25.225
84.99,-163.123,-25.683
85.02,-166.0,-26.027
85.05,-168.317,-26.245
85.09,-170.668,-26.737
85.12,-173.862,-27.138
85.15,-176.599,-27.551
85.19,-179.547,-28.1
85.22,-182.741,-28.627
85.25,-185.197,-29.177
85.28,-188.005,-29.601
85.32,-190.427,-29.773
85.35,-192.392,-30.117
85.38,-194.778,-30.46
85.41,-196.849,-30.758
85.45,-199.271,-31.09
85.48,-201.552,-31.319
85.51,-203.131,-31.697
85.54,-205.096,-32.053
85.58,-206.921,-32.236
85.61,-208.711,-32.476
85.64,-210.677,-32.774
85.67,-212.502,-33.129
85.71,-214.572,-33.542
85.74,-216.959,-33.863
85.77,-219.135,-34.206
85.8,-221.1,-34.653
85.84,-223.1,-35.008
85.87,-224.96,-35.226
85.9,-226.75,-35.443
85.93,-228.751,-35.741
85.97,-230.4,-36.051
86.0,-232.401,-36.417
86.03,-234.155,-36.555
86.06,-235.454,-36.887
86.1,-237.068,-37.07
86.13,-237.91,-37.299
86.16,-240.227,-37.574
86.19,-241.982,-37.723
86.23,-243.491,-38.158
86.26,-245.316,-38.468
86.29,-246.79,-38.731
86.32,-248.579,-38.949
86.36,-250.053,-39.155
86.39,-251.247,-39.453
86.42,-252.966,-39.671
86.45,-254.51,-39.865
86.49,-255.984,-40.117
86.52,-257.458,-40.381
86.55,-259.038,-40.667
86.59,-260.336,-40.85
86.62,-261.179,-40.954
86.65,-261.88,-41.057
86.68,-262.898,-41.206
86.72,-264.162,-41.355
86.75,-265.811,-41.549
86.78,-267.25,-41.801
86.81,-268.443,-42.134
86.85,-269.461,-42.351
86.88,-270.549,-42.477
86.91,-271.602,-42.534
86.94,-272.479,-42.683
86.98,-273.602,-42.855
87.01,-274.971,-43.073
87.04,-276.34,-43.245
87.07,-277.603,-43.474
87.11,-278.445,-43.68
87.14,-279.182,-43.817
87.17,-279.849,-43.84
87.2,-280.305,-43.806
87.24,-280.621,-43.817
87.27,-281.499,-43.909
87.3,-282.236,-43.978
87.33,-282.867,-44.092
87.37,-283.113,-44.138
87.4,-283.289,-44.207
87.43,-283.534,-44.161
87.46,-283.429,-44.069
87.5,-283.218,-43.966
87.53,-283.534,-43.978
87.56,-283.885,-43.989
87.59,-283.99,-44.058
87.63,-283.78,-43.989
87.66,-284.026,-44.092
87.69,-284.306,-43.966
87.72,-283.043,-43.886
87.76,-283.008,-43.783
87.79,-283.148,-43.623
87.82,-283.043,-43.657
87.86,-282.727,-43.6
87.89,-281.709,-43.417
87.92,-280.621,-43.165
87.95,-279.674,-42.878
87.99,-278.445,-42.603
88.02,-277.673,-42.431
88.05,-277.287,-42.282
88.08,-276.515,-42.225
88.12,-275.462,-42.134
88.15,-274.094,-41.904
88.18,-272.479,-41.549
88.21,-270.935,-41.16
88.25,-269.286,-40.85
88.28,-267.987,-40.644
88.31,-267.18,-40.438
88.34,-266.092,-40.22
88.38,-264.548,-40.049
88.41,-263.074,-39.842
88.44,-261.319,-39.499
88.47,-259.529,-39.144
88.51,-258.09,-38.811
88.54,-256.686,-38.571
88.57,-255.493,-38.399
88.6,-254.089,-38.17
88.64,-252.791,-37.929
88.67,-251.106,-37.7
88.7,-249.036,-37.402
88.73,-247.281,-37.07
88.77,-245.947,-36.715
88.8,-244.684,-36.452
88.83,-243.42,-36.326
88.86,-241.631,-36.051
88.9,-239.806,-35.799
88.93,-238.472,-35.421
88.96,-236.261,-35.065
88.99,-234.331,-34.802
89.03,-232.857,-34.47
89.06,-231.207,-34.126
89.09,-229.137,-33.817
89.13,-226.926,-33.588
89.16,-225.452,-33.301
89.19,-223.521,-32.866
89.22,-221.626,-32.602
89.26,-219.661,-32.202
89.29,-217.239,-31.961
89.32,-216.292,-31.709
89.35,-214.677,-31.285
89.39,-212.642,-31.159
89.42,-211.028,-30.93
89.45,-208.501,-30.529
89.48,-205.798,-30.036
89.52,-203.587,-29.567
89.55,-201.376,-29.177
89.58,-199.271,-28.857
89.61,-197.34,-28.513
89.65,-195.305,-28.158
89.68,-193.024,-27.871
89.71,-190.602,-27.562
89.74,-187.935,-27.138
89.78,-185.478,-26.68
89.81,-183.092,-26.187
89.84,-180.6,-25.821
89.87,-178.459,-25.5
89.91,-176.143,-25.099
89.94,-173.546,-24.721
89.97,-170.808,-24.354
90.0,-167.79,-23.942
90.04,-165.193,-23.472
90.07,-162.596,-22.9
90.1,-159.438,-22.441
90.13,-156.595,-22.109
90.17,-154.103,-21.685
90.2,-151.295,-21.193
90.23,-147.646,-20.62
90.26,-143.645,-20.127
90.3,-140.802,-19.646
90.33,-138.556,-19.177
90.36,-136.31,-18.787
90.4,-133.888,-18.604
90.43,-130.94,-18.249
90.46,-127.641,-17.916
90.49,-125.465,-17.458
90.53,-122.868,-16.977
90.56,-120.096,-16.633
90.59,-116.621,-16.118
90.62,-113.498,-15.637
90.66,-110.831,-15.053
90.69,-107.637,-14.583
90.72,-104.092,-14.136
90.75,-100.267,-13.529
90.79,-96.056,-12.807
90.82,-92.16,-12.177
90.85,-88.124,-11.547
90.88,-84.369,-11.009
90.92,-81.0,-10.425
90.95,-77.385,-9.886
90.98,-73.735,-9.474
91.01,-70.155,-9.05
91.05,-66.365,-8.5
91.08,-62.785,-7.939
91.11,-59.241,-7.4
91.14,-55.731,-6.954
91.18,-52.327,-6.461
91.21,-48.782,-5.911
91.24,-45.203,-5.396
91.27,-41.623,-4.914
91.31,-37.762,-4.41
91.34,-34.253,-3.895
91.37,-32.112,-3.608
91.4,-29.726,-3.116
91.44,-24.391,-2.635
91.47,-20.671,-2.314
91.5,-17.969,-1.386
91.53,-15.617,-0.699
91.57,-12.529,-0.493
91.6,-8.984,-0.206
91.63,-3.194,0.103
91.67,0.175,0.321
91.7,2.597,1.455
91.73,7.721,1.386
91.76,10.107,1.512
91.8,16.074,1.947
91.83,20.952,1.787
91.86,23.268,2.016
91.89,25.725,2.429
91.93,29.024,2.646
91.96,31.305,2.875
91.99,33.13,3.62
92.02,35.516,4.582
92.06,37.938,5.453
92.09,40.184,6.369
92.12,42.149,7.549
92.15,43.518,9.096
92.19,45.168,10.745
92.22,47.449,12.28
92.25,54.222,12.945
92.28,62.083,12.704
92.32,67.979,12.761
92.35,73.033,12.83
92.38,75.49,12.716
92.41,76.437,12.784
92.45,79.245,13.002
92.48,83.351,13.185
92.51,86.72,13.655
92.54,90.23,14.331
92.58,93.178,14.961
92.61,95.915,15.534
92.64,99.074,15.946
92.67,102.127,16.301
92.71,105.145,16.817
92.74,108.865,17.367
92.77,112.41,17.825
92.8,115.639,18.317
92.84,118.587,18.856
92.87,121.64,19.406
92.9,124.939,19.852
92.94,128.238,20.242
92.97,131.537,20.712
93.0,135.046,21.365
93.03,138.907,21.972
93.07,142.065,22.43
93.1,144.347,22.774
93.13,146.452,23.14
93.16,148.874,23.404
93.2,152.348,23.85
93.23,156.139,24.206
93.26,158.139,24.652
93.29,160.315,25.248
93.33,162.912,25.58
93.36,165.334,25.855
93.39,167.86,26.164
93.42,170.422,26.565
93.46,173.09,27.035
93.49,176.143,27.516
93.52,179.477,28.032
93.55,182.355,28.593
93.59,185.197,29.269
93.62,188.637,29.704
93.65,191.55,30.059
93.68,194.252,30.506
93.72,196.954,30.953
93.75,199.516,31.377
93.78,202.219,31.686
93.81,204.605,31.961
93.85,206.535,32.305
93.88,208.746,32.683
93.91,211.449,33.049
93.94,214.397,33.45
93.98,216.994,33.931
94.01,219.24,34.435
94.04,221.346,34.79
94.07,223.592,35.031
94.11,225.241,35.157
94.14,226.505,35.409
94.17,227.592,35.478
94.21,228.47,35.558
94.24,230.19,35.695
94.27,231.804,35.948
94.3,233.348,36.314
94.34,234.822,36.578
94.37,235.875,36.784
94.4,237.244,37.013
94.43,238.402,37.196
94.47,239.7,37.494
94.5,241.701,37.689
94.53,243.315,37.929
94.56,245.0,38.33
94.6,246.544,38.64
94.63,248.228,38.914
94.66,250.159,39.132
94.69,251.247,39.35
94.73,252.756,39.693
94.76,254.686,39.911
94.79,256.686,40.22
94.82,258.617,40.541
94.86,259.95,40.862
94.89,261.038,41.057
94.92,261.951,41.103
94.95,262.477,41.068
94.99,263.46,41.171
95.02,264.513,41.297
95.05,266.057,41.584
95.08,267.882,41.813
95.12,269.18,42.156
95.15,270.514,42.512
95.18,271.707,42.718
95.21,272.83,42.798
95.25,273.708,42.878
95.28,274.901,43.05
95.31,276.164,43.245
95.34,277.638,43.428
95.38,278.796,43.611
95.41,279.955,43.829
95.44,280.551,43.932
95.47,280.937,43.978
95.51,281.288,43.921
95.54,281.674,43.875
95.57,282.13,43.909
95.61,282.938,44.047
95.64,283.78,44.161
95.67,284.201,44.241
95.7,284.201,44.264
95.74,284.131,44.253
95.77,284.236,44.161
95.8,284.061,44.024
95.83,284.166,44.001
95.87,284.657,44.081
95.9,285.114,44.15
95.93,285.114,44.195
95.96,284.763,44.092
96.0,284.447,44.092
96.03,283.955,43.703
96.06,275.533,41.985
96.09,264.056,40.198
96.13,259.073,38.284
96.16,257.002,37.276
96.19,257.95,37.586
96.22,257.002,37.872
96.26,253.844,38.582
96.29,255.528,39.373
96.32,258.932,39.968
96.35,262.196,40.919
96.39,266.057,41.733
96.42,268.549,42.363
96.45,270.303,42.775
96.48,271.075,42.626
96.52,270.9,42.26
96.55,270.724,41.778
96.58,270.023,41.389
96.61,269.672,41.171
96.65,269.391,40.896
96.68,267.987,40.633
96.71,266.583,40.461
96.74,265.495,40.198
96.78,263.776,39.854
96.81,261.986,39.487
96.84,260.652,39.189
96.88,259.389,38.949
96.91,257.915,38.72
96.94,256.335,38.479
96.97,254.967,38.193
97.01,253.247,37.952
97.04,251.317,37.689
97.07,249.562,37.311
97.1,247.878,36.933
97.14,246.228,36.658
97.17,244.684,36.452
97.2,243.245,36.234
97.23,241.806,35.959
97.27,240.297,35.695
97.3,238.542,35.432
97.33,236.507,35.123
97.36,234.752,34.802
97.4,233.418,34.435
97.43,231.137,34.092
97.46,229.137,33.931
97.49,227.733,33.565
97.53,225.557,33.152
97.56,223.03,32.74
97.59,220.468,32.339
97.62,218.468,31.984
97.66,216.713,31.583
97.69,214.783,31.251
97.72,212.431,30.964
97.75,209.975,30.689
97.79,207.974,30.357
97.82,205.974,29.876
97.85,203.166,29.498
97.88,201.727,29.361
97.92,200.113,28.96
97.95,197.902,28.742
97.98,195.726,28.295
98.01,193.375,28.055
98.05,191.83,27.745
98.08,189.83,27.39
98.11,186.777,26.817
98.15,182.986,26.359
98.18,180.846,25.878
98.21,178.705,25.374
98.24,176.389,24.985
98.28,174.178,24.755
98.31,171.826,24.446
98.34,168.983,24.251
98.37,166.878,23.736
98.41,162.807,23.037
98.44,159.753,22.671
98.47,157.402,22.086
98.5,154.665,21.72
98.54,152.032,21.227
98.57,148.418,20.723
98.6,144.838,20.322
98.63,142.241,19.887
98.67,139.749,19.371
98.7,137.257,19.016
98.73,134.801,18.741
98.76,131.923,18.421
98.8,128.975,18.02
98.83,125.922,17.447
98.86,122.623,16.931
98.89,119.324,16.427
98.93,115.744,15.854
98.96,112.691,15.328
98.99,110.094,14.835
99.02,106.865,14.423
99.06,103.11,14.022
99.09,99.425,13.449
99.12,95.81,12.784
99.15,91.985,12.2
99.19,88.3,11.685
99.22,84.72,11.123
99.25,81.456,10.585
99.28,78.087,10.069
99.32,74.612,9.68
99.35,71.313,9.279
99.38,67.909,8.752
99.42,64.259,8.191
99.45,60.68,7.71
99.48,57.381,7.251
99.51,54.152,6.747
99.55,50.783,6.209
99.58,47.238,5.728
99.61,43.694,5.258
99.64,40.184,4.777
99.68,36.78,4.273
99.71,35.201,4.067
99.74,31.691,3.334
99.77,25.584,2.967
99.81,22.145,2.383
99.84,18.53,1.42
99.87,16.074,0.836
99.9,12.599,0.435
99.94,8.563,0.16
99.97,2.878,-0.023
100.0,-0.105,-0.367
100.03,-2.667,-1.455
100.07,-7.335,-1.26
100.1,-9.09,-1.398
100.13,-13.863,-1.707
100.16,-17.442,-1.627
100.2,-20.39,-1.97
100.23,-24.496,-2.303
100.26,-28.532,-2.406
100.29,-31.129,-2.795
100.33,-33.376,-3.574
100.36,-35.306,-4.479
100.39,-37.692,-5.373
100.42,-40.114,-6.289
100.46,-42.009,-7.526
100.49,-43.553,-9.13
100.52,-45.413,-10.757
100.55,-47.905,-12.28
100.59,-54.959,-12.83
100.62,-62.119,-12.521
100.65,-67.558,-12.613
100.69,-72.507,-12.59
100.72,-74.893,-12.578
100.75,-76.578,-12.784
100.78,-79.807,-13.036
100.82,-83.421,-13.277
100.85,-86.51,-13.747
100.88,-89.809,-14.354
100.91,-92.722,-14.915
100.95,-95.494,-15.442
100.98,-98.933,-15.866
101.01,-101.952,-16.267
101.04,-105.005,-16.851
101.08,-108.655,-17.378
101.11,-112.164,-17.848
101.14,-115.498,-18.363
101.17,-118.622,-18.902
101.21,-121.64,-19.429
101.24,-124.799,-19.852
101.27,-127.922,-20.208
101.3,-131.151,-20.7
101.34,-134.52,-21.307
101.37,-138.731,-21.972
101.4,-141.609,-22.304
101.43,-143.469,-22.728
101.47,-144.838,-22.842
101.5,-146.768,-23.186
101.53,-151.12,-23.495
101.56,-154.314,-23.862
101.6,-157.297,-24.595
101.63,-159.824,-25.145
101.66,-162.21,-25.66
101.69,-165.123,-25.97
101.73,-167.86,-26.313
101.76,-170.387,-26.737
101.79,-173.16,-27.173
101.82,-175.897,-27.528
101.86,-178.88,-28.009
101.89,-181.934,-28.559
101.92,-184.671,-29.12
101.96,-187.584,-29.544
101.99,-190.181,-29.83
102.02,-192.322,-30.185
102.05,-194.673,-30.563
102.09,-196.954,-30.861
102.12,-199.376,-31.182
102.15,-201.727,-31.457
102.18,-203.447,-31.812
102.22,-205.167,-32.133
102.25,-206.992,-32.316
102.28,-208.676,-32.499
102.31,-210.641,-32.832
102.35,-212.677,-33.187
102.38,-214.783,-33.599
102.41,-217.134,-33.954
102.44,-219.099,-34.309
102.48,-220.995,-34.733
102.51,-223.276,-35.1
102.54,-225.241,-35.306
102.57,-227.242,-35.615
102.61,-229.277,-35.936
102.64,-230.856,-36.257
102.67,-232.681,-36.555
102.7,-234.752,-36.784
102.74,-235.875,-36.944
102.77,-237.138,-37.288
102.8,-238.998,-37.448
102.83,-240.332,-37.631
102.87,-242.543,-37.964
102.9,-244.298,-38.273
102.93,-245.491,-38.617
102.96,-246.825,-38.788
103.0,-248.228,-38.926
103.03,-249.632,-39.132
103.06,-251.141,-39.407
103.09,-252.756,-39.682
103.13,-254.335,-39.9
103.16,-255.704,-40.175
103.19,-257.353,-40.495
103.22,-259.003,-40.759
103.26,-260.266,-40.965
103.29,-261.284,-41.057
103.32,-262.056,-41.206
103.36,-263.074,-41.32
103.39,-264.337,-41.492
103.42,-266.022,-41.675
103.45,-267.461,-41.95
103.49,-268.759,-42.294
103.52,-269.812,-42.5
103.55,-270.935,-42.626
103.58,-271.953,-42.683
103.62,-272.83,-42.844
103.65,-273.848,-42.993
103.68,-275.146,-43.165
103.71,-276.515,-43.348
103.75,-277.744,-43.6
103.78,-278.691,-43.806
103.81,-279.428,-43.932
103.84,-280.095,-43.943
103.88,-280.481,-43.943
103.91,-280.867,-43.955
103.94,-281.639,-44.035
103.97,-282.411,-44.115
104.01,-283.148,-44.23
104.04,-283.534,-44.322
104.07,-283.885,-44.402
104.1,-284.061,-44.39
104.14,-283.885,-44.241
104.17,-283.464,-44.127
104.2,-283.885,-44.15
104.23,-284.131,-44.115
104.27,-284.166,-44.184
104.3,-283.99,-44.081
104.33,-284.026,-44.173
104.36,-284.447,-44.069
104.4,-283.078,-43.921
104.43,-282.692,-43.817
104.46,-282.797,-43.646
104.49,-282.938,-43.68
104.53,-282.516,-43.623
104.56,-281.358,-43.462
104.59,-280.2,-43.187
104.63,-279.218,-42.912
104.66,-278.27,-42.66
104.69,-277.638,-42.523
104.72,-277.182,-42.374
104.76,-276.41,-42.328
104.79,-275.603,-42.294
104.82,-274.48,-42.065
104.85,-272.83,-41.721
104.89,-271.251,-41.343
104.92,-269.566,-41.011
104.95,-268.268,-40.782
104.98,-267.461,-40.541
105.02,-266.197,-40.312
105.05,-264.688,-40.163
105.08,-263.179,-39.923
105.11,-261.424,-39.602
105.15,-259.705,-39.247
105.18,-258.195,-38.914
105.21,-256.862,-38.72
105.24,-255.809,-38.536
105.28,-254.37,-38.307
105.31,-253.001,-38.09
105.34,-251.387,-37.838
105.37,-249.281,-37.54
105.41,-247.632,-37.219
105.44,-246.439,-36.841
105.47,-244.859,-36.578
105.5,-243.456,-36.429
105.54,-241.806,-36.177
105.57,-240.788,-36.016
105.6,-239.455,-35.638
105.63,-236.858,-35.363
105.67,-234.822,-34.985
105.7,-232.892,-34.538
105.73,-231.348,-34.172
105.76,-229.417,-33.84
105.8,-227.066,-33.633
105.83,-225.452,-33.347
105.86,-223.451,-32.889
105.9,-221.556,-32.66
105.93,-219.661,-32.293
105.96,-217.099,-31.995
105.99,-216.116,-31.755
106.03,-214.713,-31.342
106.06,-212.607,-31.228
106.09,-210.887,-30.987
106.12,-208.466,-30.586
106.16,-206.044,-30.128
106.19,-203.763,-29.658
106.22,-201.411,-29.292
106.25,-199.376,-28.937
106.29,-197.481,-28.582
106.32,-195.515,-28.261
106.35,-193.129,-27.986
106.38,-190.602,-27.631
106.42,-187.97,-27.173
106.45,-185.408,-26.691
106.48,-182.846,-26.21
106.51,-180.214,-25.844
106.55,-178.249,-25.477
106.58,-176.108,-25.099
106.61,-173.581,-24.79
106.64,-170.844,-24.446
106.68,-167.825,-24.034
106.71,-165.088,-23.507
106.74,-162.35,-22.923
106.77,-159.262,-22.51
106.81,-156.911,-22.201
106.84,-154.559,-21.754
106.87,-151.366,-21.261
106.9,-147.926,-20.792
106.94,-144.557,-20.322
106.97,-141.399,-19.807
107.0,-139.047,-19.314
107.03,-136.24,-18.81
107.07,-133.643,-18.65
107.1,-131.291,-18.272
107.13,-127.747,-17.813
107.17,-125.079,-17.435
107.2,-122.482,-16.943
107.23,-119.499,-16.565
107.26,-116.341,-16.038
107.3,-113.217,-15.511
107.33,-109.988,-14.972
107.36,-106.689,-14.537
107.39,-103.075,-13.987
107.43,-99.355,-13.38
107.46,-95.529,-12.704
107.49,-91.493,-12.12
107.52,-87.563,-11.547
107.56,-83.983,-10.974
107.59,-80.508,-10.367
107.62,-76.859,-9.898
107.65,-73.279,-9.508
107.69,-70.015,-9.05
107.72,-66.365,-8.477
107.75,-62.715,-7.95
107.78,-59.065,-7.469
107.82,-55.626,-6.999
107.85,-52.502,-6.484
107.88,-49.063,-5.934
107.91,-45.448,-5.499
107.95,-42.009,-5.052
107.98,-38.254,-4.479
108.01,-34.779,-4.021
108.04,-33.2,-3.792
108.08,-30.182,-3.219
108.11,-24.777,-2.818
108.14,-21.268,-2.291
108.17,-18.004,-1.34
108.21,-15.266,-0.756
108.24,-12.038,-0.481
108.27,-8.142,-0.046
108.3,-2.036,0.103
108.34,0.386,0.55
108.37,3.86,1.604
108.4,8.247,1.237
108.44,10.458,1.524
108.47,16.039,1.879
108.5,20.11,1.821
108.53,22.636,2.039
108.57,25.339,2.291
108.6,28.708,2.429
108.63,30.814,2.818
108.66,32.814,3.631
108.7,35.236,4.468
108.73,37.868,5.235
108.76,40.079,6.175
108.79,42.009,7.48
108.83,43.658,9.061
108.86,45.448,10.562
108.89,47.273,12.177
108.92,53.59,13.162
108.96,61.943,12.933
108.99,67.909,12.922
109.02,73.174,12.956
109.05,75.771,12.876
109.09,77.069,12.968
109.12,79.947,13.14
109.15,83.842,13.288
109.18,86.931,13.712
109.22,90.23,14.4
109.25,93.318,14.972
109.28,96.161,15.511
109.31,99.284,15.923
109.35,102.092,16.347
109.38,105.18,16.885
109.41,108.83,17.355
109.44,112.34,17.813
109.48,115.569,18.34
109.51,118.622,18.902
109.54,121.675,19.429
109.57,124.974,19.852
109.61,128.133,20.242
109.64,131.396,20.78
109.67,134.836,21.33
109.71,137.924,21.823
109.74,141.679,22.384
109.77,144.312,22.682
109.8,146.172,23.255
109.84,149.681,23.576
109.87,152.138,23.805
109.9,154.98,24.263
109.93,157.858,24.687
109.97,160.561,25.202
110.0,163.123,25.615
110.03,165.86,25.97
110.06,167.86,26.279
110.1,170.422,26.76
110.13,173.616,27.173
110.16,177.231,27.711
110.19,181.232,28.398
110.23,185.233,29.28
110.26,188.742,29.956
110.29,191.655,30.426
110.32,194.006,30.701
110.36,196.147,30.941
110.39,198.253,31.159
110.42,200.394,31.319
110.45,202.289,31.434
110.49,203.587,31.583
110.52,204.605,31.801
110.55,205.728,31.938
110.58,206.746,31.984
110.62,207.693,32.087
110.65,208.852,32.282
110.68,209.869,32.534
110.71,211.519,32.832
110.75,213.309,33.061
110.78,215.063,33.519
110.81,217.45,34.012
110.84,219.45,34.401
110.88,221.591,34.813
110.91,224.118,35.146
110.94,226.083,35.581
110.97,228.61,36.039
111.01,230.47,36.211
111.04,232.506,36.658
111.07,235.419,36.944
111.11,236.858,37.311
111.14,238.577,37.609
111.17,239.841,37.689
111.2,241.595,37.964
111.24,243.631,38.181
111.27,245.21,38.502
111.3,246.965,38.766
111.33,248.685,38.972
111.37,249.843,39.247
111.4,251.317,39.545
111.43,253.107,39.716
111.46,254.51,39.923
111.5,256.16,40.22
111.53,257.634,40.472
111.56,258.968,40.77
111.59,260.793,40.976
111.63,261.67,41.08
111.66,262.582,41.309
111.69,263.741,41.423
111.72,264.899,41.572
111.76,266.338,41.687
111.79,267.39,41.927
111.82,268.549,42.202
111.85,269.812,42.386
111.89,271.005,42.523
111.92,272.163,42.683
111.95,273.181,42.901
111.98,274.164,43.084
112.02,275.322,43.199
112.05,276.48,43.348
112.08,277.498,43.543
112.11,278.481,43.703
112.15,279.358,43.829
112.18,280.095,43.886
112.21,280.551,43.921
112.24,280.797,43.932
112.28,281.218,43.966
112.31,281.85,43.966
112.34,282.236,44.001
112.38,282.797,44.115
112.41,283.324,44.207
112.44,283.85,44.31
112.47,283.92,44.23
112.51,283.464,44.195
112.54,283.78,44.184
112.57,284.306,44.161
112.6,284.306,44.15
112.64,284.096,44.104
112.67,282.622,43.772
112.7,280.937,43.531
112.73,280.411,43.107
112.77,279.007,42.832
112.8,279.253,42.901
112.83,279.428,42.89
112.86,279.112,43.119
112.9,279.428,43.119
112.93,279.077,43.153
112.96,279.323,43.245
112.99,279.533,43.187
113.03,279.639,43.233
113.06,280.376,43.256
113.09,280.27,43.21
113.12,279.533,43.176
113.16,278.761,42.878
113.19,277.217,42.454
113.22,275.462,42.03
113.25,273.602,41.584
113.29,271.777,41.206
113.32,270.338,40.828
113.35,268.689,40.495
113.38,266.618,40.266
113.42,264.758,39.98
113.45,262.688,39.613
113.48,260.828,39.235
113.51,259.038,38.914
113.55,257.353,38.685
113.58,256.16,38.502
113.61,254.651,38.216
113.65,252.896,37.987
113.68,251.212,37.78
113.71,249.457,37.505
113.74,247.807,37.127
113.78,245.456,36.658
113.81,243.666,36.429
113.84,242.192,36.028
113.87,239.665,35.73
113.91,238.577,35.489
113.94,236.893,35.077
113.97,234.436,34.894
114.0,232.751,34.596
114.04,231.207,34.241
114.07,229.663,33.943
114.1,228.119,33.828
114.13,226.329,33.588
114.17,224.329,33.29
114.2,223.346,33.003
114.23,221.767,32.637
114.26,219.626,32.465
114.3,218.117,32.167
114.33,216.467,31.789
114.36,214.853,31.514
114.39,213.274,31.308
114.43,211.694,31.102
114.46,209.729,30.747
114.49,207.343,30.311
114.52,204.886,29.91
114.56,202.675,29.544
114.59,200.674,29.143
114.62,198.744,28.753
114.65,196.568,28.398
114.69,194.182,28.112
114.72,191.655,27.711
114.75,188.812,27.207
114.78,186.18,26.749
114.82,183.688,26.302
114.85,181.126,25.935
114.88,178.951,25.546
114.92,176.494,25.088
114.95,173.616,24.744
114.98,170.773,24.366
115.01,167.65,23.896
115.05,165.018,23.381
115.08,162.315,22.842
115.11,159.192,22.464
115.14,156.49,22.121
115.18,154.138,21.685
115.21,151.12,21.158
115.24,146.979,20.609
115.27,143.434,20.139
115.31,140.732,19.578
115.34,138.275,19.119
115.37,136.029,18.764
115.4,132.73,18.432
115.44,130.168,18.283
115.47,127.852,17.768
115.5,124.834,17.378
115.53,122.903,17.103
115.57,120.166,16.656
115.6,116.832,16.255
115.63,113.954,15.683
115.66,111.006,15.167
115.7,108.128,14.766
115.73,104.654,14.251
115.76,100.618,13.598
115.79,96.617,12.876
115.83,92.476,12.246
115.86,88.756,11.696
115.89,85.036,11.055
115.92,81.421,10.493
115.96,77.841,9.989
115.99,74.156,9.577
116.02,70.612,9.119
116.05,67.067,8.557
116.09,63.522,8.007
116.12,59.978,7.572
116.15,56.538,7.091
116.19,53.239,6.621
116.22,49.94,6.083
116.25,46.361,5.625
116.28,42.676,5.144
116.32,39.096,4.617
116.35,35.622,4.055
116.38,33.762,3.895
116.41,31.129,3.288
116.45,25.128,2.818
116.48,21.619,2.394
116.51,18.741,1.42
116.54,16.039,0.836
116.58,12.915,0.538
116.61,8.669,0.023
116.64,2.176,-0.103
116.67,-0.281,-0.63
