Trigger_Date,2023/07/06
Trigger_Time,T 08:51:51.842 PDT
Samples_Per_Cycle,512
Microseconds_Per_Sample,32.497
Time (ms),Voltage (V),Current (A)
-16.64,-77.174,-13.861
-16.61,-79.21,-13.964
-16.57,-81.807,-14.171
-16.54,-85.176,-14.56
-16.51,-88.686,-15.167
-16.48,-92.09,-15.866
-16.44,-95.073,-16.439
-16.41,-97.67,-16.92
-16.38,-100.653,-17.447
-16.35,-104.233,-18.008
-16.31,-107.742,-18.558
-16.28,-111.392,-19.142
-16.25,-114.902,-19.658
-16.22,-117.323,-20.139
-16.18,-119.815,-20.666
-16.15,-122.833,-21.021
-16.12,-126.062,-21.422
-16.09,-129.466,-21.892
-16.05,-132.309,-22.419
-16.02,-135.081,-23.026
-15.99,-138.065,-23.495
-15.96,-140.627,-23.828
-15.92,-143.224,-24.263
-15.89,-146.312,-24.755
-15.86,-149.541,-25.294
-15.83,-152.664,-25.809
-15.79,-155.577,-26.302
-15.76,-158.42,-26.817
-15.73,-161.052,-27.321
-15.7,-163.579,-27.791
-15.66,-166.281,-28.135
-15.63,-168.773,-28.364
-15.6,-166.983,-27.826
-15.57,-162.877,-27.516
-15.53,-165.404,-27.425
-15.5,-167.825,-26.921
-15.47,-168.282,-27.574
-15.44,-172.563,-28.41
-15.4,-173.862,-28.822
-15.37,-175.055,-29.796
-15.34,-179.652,-30.323
-15.31,-182.881,-30.93
-15.27,-187.057,-31.95
-15.24,-190.988,-32.568
-15.21,-193.094,-33.152
-15.18,-195.972,-33.588
-15.14,-198.604,-33.759
-15.11,-200.323,-34.08
-15.08,-203.201,-34.481
-15.05,-206.219,-34.779
-15.01,-208.711,-35.214
-14.98,-211.133,-35.684
-14.95,-213.133,-36.119
-14.92,-215.239,-36.555
-14.88,-217.801,-36.864
-14.85,-219.626,-37.059
-14.82,-221.556,-37.494
-14.79,-224.083,-37.838
-14.75,-225.522,-38.124
-14.72,-227.452,-38.468
-14.69,-229.523,-38.674
-14.66,-230.751,-38.972
-14.62,-232.33,-39.27
-14.59,-233.629,-39.441
-14.56,-235.173,-39.693
-14.53,-237.384,-39.945
-14.49,-238.928,-40.266
-14.46,-240.648,-40.736
-14.43,-242.683,-41.022
-14.4,-244.193,-41.274
-14.36,-245.491,-41.503
-14.33,-246.684,-41.755
-14.3,-248.72,-42.076
-14.27,-250.755,-42.34
-14.23,-252.019,-42.603
-14.2,-253.282,-42.867
-14.17,-254.686,-43.119
-14.14,-255.914,-43.313
-14.1,-256.967,-43.462
-14.07,-258.195,-43.6
-14.04,-259.389,-43.772
-14.01,-260.512,-44.001
-13.97,-261.6,-44.207
-13.94,-262.617,-44.367
-13.91,-263.916,-44.516
-13.88,-265.039,-44.734
-13.84,-266.127,-44.986
-13.81,-267.18,-45.192
-13.78,-268.338,-45.307
-13.75,-269.18,-45.433
-13.71,-270.409,-45.673
-13.68,-271.286,-45.822
-13.65,-272.725,-46.097
-13.62,-273.708,-46.143
-13.58,-274.55,-46.429
-13.55,-275.146,-46.361
-13.52,-274.69,-46.441
-13.49,-275.638,-46.406
-13.45,-276.445,-46.406
-13.42,-277.147,-46.555
-13.39,-277.463,-46.636
-13.36,-277.814,-46.75
-13.32,-278.165,-46.75
-13.29,-278.305,-46.716
-13.26,-278.024,-46.624
-13.23,-277.814,-46.59
-13.19,-278.27,-46.578
-13.16,-278.516,-46.544
-13.13,-278.41,-46.578
-13.1,-278.41,-46.567
-13.06,-278.481,-46.59
-13.03,-278.586,-46.555
-13.0,-278.27,-46.475
-12.97,-278.059,-46.418
-12.93,-278.13,-46.372
-12.9,-278.165,-46.349
-12.87,-278.094,-46.326
-12.84,-277.463,-46.166
-12.8,-276.515,-45.994
-12.77,-275.497,-45.708
-12.74,-274.304,-45.456
-12.71,-273.743,-45.215
-12.67,-273.286,-45.02
-12.64,-272.444,-44.94
-12.61,-271.181,-44.803
-12.58,-270.023,-44.585
-12.54,-268.829,-44.218
-12.51,-267.426,-43.921
-12.48,-266.057,-43.657
-12.45,-264.828,-43.439
-12.41,-263.881,-43.222
-12.38,-262.933,-43.027
-12.35,-262.021,-42.878
-12.32,-260.722,-42.672
-12.28,-258.862,-42.386
-12.25,-257.283,-42.042
-12.22,-256.09,-41.687
-12.19,-254.932,-41.435
-12.15,-253.563,-41.229
-12.12,-251.878,-40.988
-12.09,-250.264,-40.656
-12.06,-248.72,-40.289
-12.02,-246.544,-39.9
-11.99,-244.438,-39.613
-11.96,-243.35,-39.304
-11.93,-241.946,-38.949
-11.89,-240.227,-38.685
-11.86,-238.612,-38.468
-11.83,-237.279,-38.273
-11.8,-235.98,-37.987
-11.76,-234.085,-37.631
-11.73,-232.541,-37.379
-11.7,-231.067,-37.116
-11.67,-229.277,-36.818
-11.63,-227.347,-36.44
-11.6,-225.311,-35.993
-11.57,-223.416,-35.65
-11.54,-221.556,-35.329
-11.5,-219.45,-34.962
-11.47,-217.59,-34.596
-11.44,-215.906,-34.183
-11.41,-213.835,-33.863
-11.37,-211.8,-33.599
-11.34,-209.764,-33.255
-11.31,-208.009,-32.912
-11.28,-206.219,-32.522
-11.24,-203.271,-32.087
-11.21,-200.639,-31.755
-11.18,-199.025,-31.308
-11.15,-197.446,-30.93
-11.11,-195.761,-30.655
-11.08,-193.655,-30.414
-11.05,-191.515,-30.151
-11.02,-189.479,-29.762
-10.98,-186.987,-29.28
-10.95,-184.636,-28.845
-10.92,-182.214,-28.364
-10.89,-179.547,-27.952
-10.85,-177.547,-27.528
-10.82,-175.511,-27.058
-10.79,-172.774,-26.703
-10.76,-169.966,-26.336
-10.72,-167.334,-25.924
-10.69,-164.702,-25.374
-10.66,-161.964,-24.847
-10.63,-159.052,-24.332
-10.59,-156.595,-24.057
-10.56,-154.349,-23.553
-10.53,-150.629,-23.014
-10.5,-148.067,-22.613
-10.46,-145.435,-22.018
-10.43,-142.241,-21.685
-10.4,-139.749,-21.25
-10.37,-137.433,-20.757
-10.33,-134.45,-20.265
-10.3,-131.361,-19.91
-10.27,-128.729,-19.474
-10.24,-125.606,-18.925
-10.2,-122.552,-18.421
-10.17,-119.92,-17.882
-10.14,-116.516,-17.378
-10.11,-113.463,-17.0
-10.07,-111.076,-16.519
-10.04,-108.374,-15.992
-10.01,-105.005,-15.522
-9.98,-101.952,-15.133
-9.94,-98.407,-14.514
-9.91,-94.196,-13.85
-9.88,-90.265,-13.059
-9.85,-86.334,-12.326
-9.81,-82.404,-11.708
-9.78,-78.824,-11.135
-9.75,-75.63,-10.585
-9.72,-72.296,-10.035
-9.68,-68.295,-9.531
-9.65,-64.435,-9.061
-9.62,-61.171,-8.534
-9.59,-58.258,-8.019
-9.55,-55.24,-7.503
-9.52,-51.59,-7.045
-9.49,-48.291,-6.667
-9.46,-45.203,-6.106
-9.42,-41.588,-5.51
-9.39,-38.254,-4.995
-9.36,-35.657,-4.651
-9.33,-35.13,-4.731
-9.29,-37.482,-5.121
-9.26,-34.218,-4.342
-9.23,-22.461,-3.322
-9.2,-15.617,-2.429
-9.16,-11.266,-0.653
-9.13,-7.195,-0.298
-9.1,-4.808,-0.252
-9.07,-0.667,0.103
-9.03,1.404,1.134
-9.0,6.633,1.638
-8.97,10.107,1.272
-8.94,13.863,1.695
-8.9,16.881,1.294
-8.87,16.67,1.432
-8.84,21.759,2.44
-8.81,29.059,2.486
-8.77,31.796,2.44
-8.74,32.639,3.104
-8.71,34.288,3.906
-8.68,35.902,4.674
-8.64,38.394,5.51
-8.61,41.518,6.438
-8.58,44.15,7.767
-8.55,45.975,9.405
-8.51,47.694,11.181
-8.48,49.309,12.887
-8.45,51.555,14.675
-8.42,58.925,15.35
-8.38,66.4,14.823
-8.35,71.103,14.571
-8.32,75.595,14.377
-8.29,78.227,14.148
-8.25,79.561,14.171
-8.22,82.158,14.354
-8.19,86.018,14.652
-8.16,89.423,15.144
-8.12,92.441,15.854
-8.09,95.248,16.507
-8.06,97.845,17.034
-8.03,100.969,17.516
-7.99,104.759,18.031
-7.96,108.199,18.581
-7.93,111.217,19.222
-7.9,114.27,19.726
-7.86,116.937,20.093
-7.83,119.85,20.54
-7.8,123.254,21.055
-7.77,126.553,21.64
-7.73,129.607,22.121
-7.7,132.695,22.671
-7.67,135.994,23.129
-7.64,137.994,23.564
-7.6,140.942,24.194
-7.57,144.768,24.538
-7.54,147.26,24.927
-7.51,149.786,25.443
-7.47,152.524,25.912
-7.44,155.051,26.313
-7.41,157.718,26.737
-7.38,160.526,27.092
-7.34,162.701,27.505
-7.31,165.088,28.02
-7.28,167.755,28.375
-7.25,170.422,28.765
-7.21,173.23,29.189
-7.18,176.003,29.762
-7.15,178.81,30.357
-7.12,181.548,30.884
-7.08,184.18,31.239
-7.05,186.531,31.594
-7.02,188.847,31.984
-6.99,191.093,32.396
-6.95,193.726,32.786
-6.92,196.288,33.107
-6.89,198.148,33.45
-6.86,199.973,33.851
-6.82,201.517,34.069
-6.79,203.131,34.275
-6.76,205.307,34.481
-6.73,207.307,34.836
-6.69,209.273,35.272
-6.66,211.238,35.707
-6.63,213.414,36.074
-6.6,215.555,36.429
-6.56,217.064,36.726
-6.53,218.643,37.105
-6.5,220.854,37.345
-6.47,222.679,37.586
-6.43,224.609,37.883
-6.4,226.329,38.262
-6.37,227.908,38.617
-6.34,230.014,38.972
-6.3,231.418,39.132
-6.27,232.927,39.487
-6.24,234.331,39.59
-6.21,235.103,39.911
-6.17,237.665,40.163
-6.14,239.104,40.289
-6.11,240.858,40.805
-6.08,242.824,41.08
-6.04,243.666,41.4
-6.01,245.351,41.675
-5.98,247.491,41.859
-5.95,248.965,42.156
-5.91,250.475,42.534
-5.88,252.194,42.821
-5.85,253.809,43.096
-5.82,255.353,43.325
-5.78,256.195,43.474
-5.75,257.072,43.68
-5.72,258.476,43.817
-5.69,259.915,43.978
-5.65,261.319,44.161
-5.62,262.126,44.402
-5.59,263.319,44.677
-5.56,264.653,44.86
-5.52,265.846,45.009
-5.49,266.934,45.192
-5.46,267.987,45.41
-5.43,269.04,45.627
-5.39,270.303,45.799
-5.36,271.532,45.96
-5.33,272.655,46.143
-5.3,273.392,46.315
-5.26,273.918,46.429
-5.23,274.585,46.452
-5.2,274.936,46.406
-5.17,275.322,46.441
-5.13,276.059,46.521
-5.1,277.007,46.681
-5.07,277.638,46.773
-5.04,277.989,46.865
-5.0,278.375,46.933
-4.97,278.656,46.956
-4.94,278.761,46.956
-4.91,279.147,46.945
-4.87,279.744,46.979
-4.84,280.341,47.105
-4.81,280.481,47.151
-4.78,280.551,47.197
-4.74,280.411,47.048
-4.71,280.586,47.082
-4.68,280.516,46.853
-4.65,278.902,46.727
-4.61,279.639,46.739
-4.58,280.025,46.544
-4.55,279.077,46.578
-4.52,278.516,46.441
-4.48,277.673,46.28
-4.45,277.182,46.086
-4.42,276.094,45.765
-4.39,274.831,45.57
-4.35,274.48,45.433
-4.32,273.848,45.249
-4.29,272.479,45.078
-4.26,271.251,44.78
-4.22,269.672,44.47
-4.19,268.022,44.161
-4.16,266.408,43.817
-4.13,265.144,43.497
-4.09,264.091,43.199
-4.06,262.617,43.004
-4.03,261.389,42.878
-4.0,260.512,42.683
-3.96,259.143,42.408
-3.93,257.564,42.134
-3.9,256.195,41.87
-3.87,254.861,41.629
-3.83,253.528,41.355
-3.8,252.124,41.045
-3.77,250.65,40.747
-3.74,248.965,40.495
-3.7,246.965,40.163
-3.67,245.035,39.762
-3.64,243.456,39.361
-3.61,242.052,39.063
-3.57,240.192,38.743
-3.54,238.612,38.617
-3.51,238.156,38.376
-3.48,235.805,37.952
-3.44,233.278,37.666
-3.41,230.927,37.127
-3.38,229.207,36.864
-3.35,228.47,36.463
-3.31,226.575,36.2
-3.28,224.644,35.993
-3.25,222.293,35.673
-3.22,220.924,35.455
-3.18,219.836,35.008
-3.15,217.485,34.676
-3.12,215.73,34.435
-3.09,214.186,34.115
-3.05,212.326,33.794
-3.02,210.641,33.439
-2.99,208.852,33.084
-2.96,206.395,32.751
-2.92,204.008,32.385
-2.89,202.043,31.95
-2.86,200.183,31.503
-2.83,198.112,31.113
-2.79,195.866,30.85
-2.76,194.041,30.586
-2.73,192.603,30.266
-2.7,190.532,29.819
-2.66,187.479,29.441
-2.63,185.092,29.086
-2.6,182.986,28.559
-2.57,180.284,28.02
-2.53,178.143,27.585
-2.5,175.932,27.173
-2.47,173.16,26.886
-2.44,170.563,26.485
-2.4,167.931,25.958
-2.37,165.369,25.466
-2.34,162.456,24.985
-2.31,159.543,24.595
-2.27,157.332,24.194
-2.24,155.191,23.702
-2.21,152.454,23.301
-2.18,149.295,22.854
-2.14,146.417,22.51
-2.11,144.101,21.96
-2.08,141.153,21.433
-2.05,138.205,20.906
-2.01,135.046,20.505
-1.98,132.8,20.093
-1.95,129.466,19.509
-1.92,126.799,19.142
-1.88,124.413,18.604
-1.85,121.149,18.226
-1.82,117.639,17.733
-1.79,115.112,17.309
-1.75,113.147,16.748
-1.72,110.129,16.37
-1.69,107.005,16.015
-1.66,103.671,15.454
-1.62,99.53,14.72
-1.59,95.564,13.987
-1.56,91.774,13.243
-1.53,87.949,12.635
-1.49,84.93,12.154
-1.46,81.877,11.559
-1.43,78.192,11.078
-1.4,74.683,10.654
-1.36,71.033,10.092
-1.33,67.278,9.554
-1.3,64.154,8.924
-1.27,60.645,8.317
-1.23,56.784,7.79
-1.2,52.713,7.194
-1.17,48.958,6.575
-1.14,45.448,5.923
-1.1,41.869,5.35
-1.07,38.113,4.857
-1.04,34.674,4.41
-1.01,32.603,4.193
-0.97,34.499,4.571
-0.94,33.025,3.838
-0.91,22.075,2.978
-0.88,15.372,2.532
-0.84,12.599,0.745
-0.81,8.353,0.16
-0.78,6.844,0.607
-0.75,3.369,0.137
-0.71,-0.035,-0.412
-0.68,-2.808,-1.535
-0.65,-8.563,-1.443
-0.62,-11.757,-1.638
-0.58,-17.021,-1.936
-0.55,-18.495,-1.363
-0.52,-21.548,-2.016
-0.49,-28.568,-2.451
-0.45,-32.358,-2.669
-0.42,-32.884,-3.345
-0.39,-33.937,-4.067
-0.36,-35.587,-4.571
-0.32,-37.552,-5.258
-0.29,-40.114,-6.392
-0.26,-43.202,-7.801
-0.23,-45.764,-9.199
-0.19,-47.554,-10.699
-0.16,-48.677,-12.372
-0.13,-50.046,-14.4
-0.1,-56.749,-15.305
-0.06,-64.33,-14.709
-0.03,-69.348,-14.434
0.0,-74.261,-14.308
0.03,-77.455,-14.216
0.06,-79.561,-14.274
0.1,-81.807,-14.354
0.13,-84.825,-14.617
0.16,-88.51,-15.156
0.19,-92.195,-15.832
0.23,-95.248,-16.485
0.26,-98.056,-17.034
0.29,-100.934,-17.55
0.32,-104.057,-18.077
0.36,-107.462,-18.627
0.39,-110.901,-19.119
0.42,-114.059,-19.589
0.45,-116.937,-20.093
0.49,-119.569,-20.586
0.52,-122.307,-21.032
0.55,-125.395,-21.445
0.58,-128.624,-21.846
0.62,-131.502,-22.361
0.65,-134.731,-23.003
0.68,-137.784,-23.53
0.71,-140.872,-24.091
0.75,-144.206,-24.538
0.78,-146.593,-24.996
0.81,-149.049,-25.489
0.84,-152.138,-25.97
0.88,-155.858,-26.382
0.91,-157.753,-26.646
0.94,-159.402,-27.195
0.97,-161.298,-27.321
1.01,-162.35,-27.505
1.04,-164.632,-27.654
1.07,-167.018,-27.894
1.1,-169.826,-28.524
1.14,-173.265,-29.154
1.17,-176.248,-29.819
1.2,-178.88,-30.403
1.23,-181.583,-30.976
1.27,-184.706,-31.571
1.3,-187.935,-32.041
1.33,-190.672,-32.476
1.36,-193.55,-32.935
1.4,-196.252,-33.324
1.43,-198.183,-33.748
1.46,-200.359,-34.115
1.49,-202.57,-34.298
1.53,-204.43,-34.504
1.56,-206.255,-34.813
1.59,-207.869,-35.123
1.62,-209.659,-35.432
1.66,-211.729,-35.707
1.69,-213.589,-36.005
1.72,-215.52,-36.429
1.75,-217.52,-36.818
1.79,-219.17,-37.116
1.82,-220.924,-37.379
1.85,-222.749,-37.609
1.88,-224.118,-37.872
1.92,-225.627,-38.239
1.95,-227.838,-38.514
1.98,-229.312,-38.72
2.01,-230.611,-39.052
2.05,-232.19,-39.35
2.08,-233.769,-39.613
2.11,-235.278,-39.877
2.14,-236.998,-40.083
2.18,-238.156,-40.312
2.21,-239.735,-40.644
2.24,-241.034,-40.839
2.27,-242.824,-41.171
2.31,-244.614,-41.32
2.34,-245.526,-41.629
2.37,-247.211,-41.973
2.4,-248.965,-42.248
2.44,-250.685,-42.546
2.47,-252.51,-42.844
2.5,-253.914,-43.142
2.53,-255.353,-43.462
2.57,-256.827,-43.68
2.6,-258.125,-43.875
2.63,-259.669,-44.069
2.66,-260.828,-44.276
2.7,-261.775,-44.493
2.73,-263.004,-44.654
2.76,-264.232,-44.757
2.79,-265.46,-44.963
2.83,-266.548,-45.204
2.86,-267.566,-45.433
2.89,-268.654,-45.559
2.92,-269.987,-45.742
2.96,-271.181,-45.925
2.99,-272.163,-46.189
3.02,-273.006,-46.292
3.05,-273.602,-46.361
3.09,-274.304,-46.418
3.12,-274.796,-46.464
3.15,-275.182,-46.498
3.18,-275.954,-46.613
3.22,-276.901,-46.67
3.25,-277.322,-46.796
3.28,-277.814,-46.899
3.31,-278.2,-47.002
3.35,-278.796,-47.025
3.38,-279.042,-47.036
3.41,-279.498,-47.082
3.44,-280.06,-47.162
3.48,-280.586,-47.243
3.51,-280.516,-47.22
3.54,-280.095,-47.082
3.57,-280.095,-47.059
3.61,-280.06,-46.853
3.64,-278.726,-46.739
3.67,-279.604,-46.773
3.7,-279.639,-46.555
3.74,-279.077,-46.75
3.77,-279.358,-46.67
3.8,-278.621,-46.601
3.83,-278.481,-46.498
3.87,-277.708,-46.235
3.9,-276.48,-46.017
3.93,-275.603,-45.776
3.96,-274.725,-45.524
4.0,-274.059,-45.318
4.03,-273.006,-45.1
4.06,-271.497,-44.917
4.09,-269.882,-44.608
4.13,-268.198,-44.23
4.16,-267.004,-43.863
4.19,-265.565,-43.565
4.22,-264.337,-43.417
4.26,-263.354,-43.245
4.29,-262.021,-43.027
4.32,-260.757,-42.775
4.35,-259.073,-42.454
4.39,-257.283,-42.145
4.42,-255.739,-41.801
4.45,-254.089,-41.435
4.48,-252.861,-41.16
4.52,-251.212,-40.839
4.55,-249.281,-40.656
4.58,-248.193,-40.427
4.61,-246.649,-40.026
4.65,-244.473,-39.705
4.68,-242.964,-39.453
4.71,-241.595,-39.132
4.74,-240.051,-38.903
4.78,-238.577,-38.536
4.81,-236.752,-38.284
4.84,-235.875,-38.078
4.87,-233.734,-37.677
4.91,-231.488,-37.448
4.94,-230.26,-36.99
4.97,-228.224,-36.589
5.0,-226.118,-36.337
5.04,-224.188,-35.982
5.07,-222.679,-35.695
5.1,-221.346,-35.306
5.13,-219.31,-35.043
5.17,-217.731,-34.825
5.2,-215.414,-34.401
5.23,-214.081,-34.241
5.26,-213.589,-33.863
5.3,-211.238,-33.622
5.33,-209.203,-33.45
5.36,-207.518,-33.084
5.39,-205.412,-32.614
5.43,-203.201,-32.167
5.46,-201.271,-31.812
5.49,-199.341,-31.503
5.52,-197.411,-31.159
5.56,-195.586,-30.804
5.59,-193.796,-30.449
5.62,-191.374,-30.094
5.65,-188.742,-29.739
5.69,-186.426,-29.292
5.72,-184.039,-28.719
5.75,-181.267,-28.169
5.78,-178.74,-27.791
5.82,-176.74,-27.436
5.85,-174.423,-27.035
5.88,-171.651,-26.577
5.91,-168.527,-26.084
5.95,-165.509,-25.638
5.98,-162.912,-25.156
6.01,-160.28,-24.607
6.04,-157.718,-24.148
6.08,-155.472,-23.77
6.11,-152.524,-23.392
6.14,-149.611,-23.049
6.17,-147.365,-22.567
6.21,-144.347,-21.949
6.24,-140.662,-21.502
6.27,-138.416,-21.113
6.3,-135.783,-20.528
6.34,-132.73,-20.093
6.37,-129.887,-19.555
6.4,-126.518,-19.085
6.43,-123.781,-18.707
6.47,-121.184,-18.18
6.5,-118.13,-17.699
6.53,-115.218,-17.218
6.56,-112.48,-16.828
6.6,-110.199,-16.507
6.63,-107.462,-16.038
6.66,-104.373,-15.58
6.69,-101.004,-14.938
6.73,-96.582,-14.308
6.76,-92.616,-13.632
6.79,-89.072,-12.876
6.82,-85.878,-12.212
6.86,-81.842,-11.513
6.89,-77.315,-10.997
6.92,-73.946,-10.482
6.95,-70.576,-9.829
6.99,-66.927,-9.29
7.02,-63.663,-8.844
7.05,-60.399,-8.385
7.08,-57.065,-7.962
7.12,-53.871,-7.435
7.15,-50.642,-6.908
7.18,-47.168,-6.392
7.21,-43.518,-5.877
7.25,-39.833,-5.292
7.28,-36.183,-4.651
7.31,-33.34,-4.25
7.34,-34.148,-4.559
7.38,-34.885,-4.353
7.41,-25.444,-3.15
7.44,-15.828,-2.6
7.47,-12.704,-0.997
7.51,-7.581,-0.069
7.54,-5.545,-0.71
7.57,-3.51,-0.206
7.6,0.0,0.435
7.64,2.071,1.283
7.67,6.879,1.363
7.7,9.967,1.707
7.73,16.67,2.028
7.77,19.653,1.191
7.8,20.32,1.65
7.83,25.62,2.532
7.86,30.252,2.658
7.9,31.726,2.956
7.93,33.797,3.46
7.96,35.376,3.964
7.99,36.499,4.914
8.03,38.85,5.991
8.06,41.974,7.034
8.09,45.027,8.237
8.12,47.098,9.783
8.16,48.361,11.685
8.19,49.554,13.724
8.22,53.59,15.236
8.25,61.627,15.27
8.29,67.944,14.778
8.32,72.928,14.709
8.35,77.385,14.468
8.38,79.28,14.262
8.42,80.684,14.297
8.45,83.492,14.514
8.48,87.282,14.904
8.51,90.967,15.488
8.55,94.055,16.118
8.58,96.547,16.737
8.61,98.969,17.298
8.64,102.127,17.813
8.68,105.988,18.272
8.71,109.462,18.787
8.74,112.585,19.394
8.77,115.288,19.921
8.81,117.85,20.391
8.84,120.903,20.769
8.87,124.342,21.204
8.9,127.466,21.754
8.94,130.765,22.419
8.97,134.064,22.9
9.0,136.626,23.323
9.03,138.942,23.747
9.07,141.364,24.183
9.1,144.803,24.698
9.13,148.347,25.133
9.16,151.225,25.615
9.2,153.577,26.142
9.23,156.876,26.829
9.26,160.21,27.23
9.29,162.07,27.619
9.33,164.772,28.043
9.36,167.229,28.33
9.39,169.405,28.776
9.42,172.458,29.189
9.46,175.441,29.59
9.49,177.968,30.117
9.52,180.53,30.689
9.55,182.916,31.171
9.59,185.619,31.56
9.62,188.216,31.835
9.65,190.321,32.224
9.68,192.778,32.706
9.72,195.094,33.061
9.75,197.13,33.404
9.78,199.341,33.679
9.81,201.025,33.943
9.85,202.429,34.275
9.88,204.254,34.538
9.91,206.29,34.745
9.94,208.29,35.077
9.98,210.255,35.466
10.01,211.94,35.879
10.04,214.046,36.303
10.07,216.081,36.566
10.11,217.555,36.83
10.14,219.38,37.208
10.17,221.24,37.483
10.2,222.925,37.792
10.24,225.136,38.044
10.27,226.54,38.296
10.3,228.154,38.697
10.33,229.488,38.914
10.37,231.067,39.224
10.4,232.857,39.384
10.43,234.471,39.762
10.46,236.401,40.083
10.5,237.805,40.438
10.53,239.876,40.747
10.56,241.771,41.011
10.59,243.42,41.332
10.63,244.333,41.595
10.66,245.912,41.847
10.69,247.983,42.042
10.72,249.808,42.351
10.76,251.598,42.729
10.79,253.142,43.084
10.82,254.686,43.394
10.85,256.055,43.543
10.89,256.757,43.634
10.92,257.88,43.829
10.95,259.319,43.978
10.98,260.617,44.195
11.02,261.74,44.333
11.05,262.617,44.528
11.08,263.881,44.768
11.11,264.969,44.986
11.15,266.127,45.181
11.18,267.285,45.307
11.21,268.233,45.479
11.24,269.391,45.719
11.28,270.584,45.937
11.31,271.918,46.109
11.34,272.865,46.246
11.37,273.602,46.406
11.41,274.164,46.498
11.44,274.655,46.532
11.47,275.111,46.498
11.5,275.462,46.521
11.54,276.199,46.613
11.57,276.831,46.727
11.6,277.322,46.853
11.63,277.814,46.922
11.67,278.41,46.991
11.7,278.691,47.002
11.73,278.656,47.048
11.76,279.112,47.059
11.8,279.709,47.071
11.83,279.744,47.048
11.86,279.814,47.082
11.89,279.955,47.071
11.93,280.025,47.071
11.96,280.06,46.991
11.99,279.919,46.945
12.02,279.955,46.956
12.06,280.727,47.059
12.09,280.551,46.933
12.12,279.182,46.807
12.15,278.867,46.613
12.19,278.34,46.338
12.22,277.042,46.109
12.25,275.848,45.822
12.28,274.936,45.513
12.32,274.023,45.341
12.35,272.971,45.158
12.38,271.707,44.997
12.41,270.549,44.688
12.45,268.759,44.322
12.48,267.18,44.047
12.51,265.706,43.726
12.54,264.372,43.462
12.58,263.495,43.245
12.61,262.231,43.016
12.64,260.933,42.867
12.67,259.529,42.615
12.71,257.915,42.34
12.74,256.792,42.03
12.77,255.388,41.733
12.8,253.984,41.526
12.84,252.65,41.297
12.87,251.282,41.034
12.9,249.738,40.679
12.93,247.737,40.335
12.97,245.772,40.026
13.0,244.263,39.705
13.03,242.859,39.35
13.06,241.245,39.006
13.1,239.139,38.662
13.13,238.226,38.617
13.16,237.209,38.25
13.19,234.471,37.918
13.23,232.33,37.483
13.26,229.944,37.001
13.29,228.961,36.83
13.32,227.838,36.486
13.36,225.943,36.303
13.39,224.083,35.948
13.42,222.047,35.707
13.45,220.924,35.455
13.49,219.135,35.077
13.52,217.064,34.733
13.55,215.379,34.332
13.58,213.274,33.966
13.62,211.414,33.691
13.65,209.869,33.347
13.68,207.904,32.969
13.71,205.623,32.625
13.75,203.447,32.293
13.78,201.306,31.927
13.81,199.481,31.526
13.84,197.832,31.171
13.88,195.901,30.861
13.91,193.585,30.586
13.94,191.76,30.254
13.97,189.619,29.807
14.01,187.022,29.361
14.04,184.671,28.937
14.07,182.179,28.478
14.1,179.793,28.055
14.14,177.827,27.608
14.17,175.371,27.15
14.2,172.423,26.783
14.23,169.615,26.382
14.27,167.018,25.901
14.3,164.421,25.328
14.33,161.403,24.824
14.36,158.701,24.423
14.4,156.279,24.045
14.43,153.682,23.61
14.46,151.05,23.14
14.49,148.207,22.671
14.53,145.329,22.281
14.56,142.873,21.857
14.59,140.24,21.388
14.62,137.538,20.895
14.66,134.415,20.368
14.69,131.116,19.921
14.72,127.992,19.394
14.75,124.904,18.799
14.79,122.482,18.34
14.82,119.183,17.699
14.85,114.832,17.275
14.88,112.375,16.851
14.92,110.023,16.21
14.95,106.9,15.82
14.98,104.338,15.488
15.01,101.285,15.053
15.05,97.53,14.526
15.08,93.634,13.804
15.11,89.738,13.048
15.14,86.264,12.464
15.18,83.035,11.891
15.21,79.526,11.341
15.24,76.086,10.791
15.27,72.472,10.207
15.31,68.506,9.68
15.34,64.961,9.176
15.37,61.768,8.569
15.4,58.083,7.95
15.44,54.468,7.4
15.47,50.642,6.873
15.5,47.098,6.346
15.53,43.483,5.739
15.57,39.903,5.121
15.6,36.253,4.605
15.63,33.797,4.342
15.66,34.569,4.697
15.7,36.464,4.628
15.73,28.322,3.494
15.76,19.337,3.23
15.79,15.968,1.959
15.83,12.564,0.848
15.86,11.581,0.596
15.89,8.809,-0.023
15.92,2.351,-0.115
15.96,-0.421,-0.664
15.99,-4.948,-1.764
16.02,-10.072,-1.294
16.05,-13.441,-1.707
16.09,-17.056,-1.443
16.12,-16.635,-1.42
16.15,-22.917,-2.612
16.18,-31.516,-2.6
16.22,-33.376,-2.612
16.25,-33.235,-3.54
16.28,-34.604,-4.296
16.31,-35.481,-4.892
16.35,-37.762,-5.682
16.38,-41.132,-6.667
16.41,-44.36,-8.088
16.44,-46.536,-9.691
16.48,-48.116,-11.387
16.51,-49.344,-13.082
16.54,-51.555,-14.961
16.57,-59.276,-15.625
16.61,-66.821,-15.018
16.64,-71.594,-14.789
16.67,-76.332,-14.583
16.7,-79.034,-14.388
16.74,-80.403,-14.411
16.77,-83.0,-14.549
16.8,-86.44,-14.743
16.83,-89.633,-15.236
16.87,-92.792,-15.935
16.9,-95.845,-16.599
16.93,-98.688,-17.149
16.96,-101.601,-17.63
17.0,-104.794,-18.146
17.03,-108.163,-18.73
17.06,-111.427,-19.28
17.09,-114.516,-19.761
17.13,-117.534,-20.219
17.16,-120.236,-20.654
17.19,-122.798,-21.17
17.22,-126.132,-21.674
17.26,-129.572,-22.075
17.29,-132.52,-22.579
17.32,-135.783,-23.243
17.35,-138.837,-23.782
17.39,-141.75,-24.354
17.42,-145.224,-24.801
17.45,-147.961,-25.225
17.48,-150.418,-25.729
17.52,-153.857,-26.325
17.55,-157.086,-26.669
17.58,-158.876,-27.047
17.61,-161.403,-27.493
17.65,-163.509,-27.768
17.68,-165.439,-28.146
17.71,-168.211,-28.433
17.74,-171.265,-28.857
17.78,-174.458,-29.452
17.81,-177.371,-30.14
17.84,-180.319,-30.77
17.87,-183.232,-31.262
17.91,-185.97,-31.697
17.94,-188.496,-32.121
17.97,-190.883,-32.545
18.0,-193.304,-32.889
18.04,-195.831,-33.187
18.07,-197.762,-33.45
18.1,-199.2,-33.794
18.13,-200.85,-34.034
18.17,-202.534,-34.172
18.2,-204.008,-34.332
18.23,-205.553,-34.607
18.26,-207.378,-34.974
18.3,-209.273,-35.329
18.33,-211.133,-35.673
18.36,-213.239,-36.051
18.39,-215.099,-36.452
18.43,-216.643,-36.807
18.46,-218.327,-37.093
18.49,-220.573,-37.357
18.52,-222.82,-37.677
18.56,-224.434,-38.067
18.59,-226.048,-38.456
18.62,-228.119,-38.766
18.65,-229.558,-38.937
18.69,-231.032,-39.224
18.72,-232.787,-39.51
18.75,-234.225,-39.797
18.78,-235.875,-40.083
18.82,-237.524,-40.266
18.85,-239.069,-40.61
18.88,-240.894,-40.931
18.91,-242.332,-41.217
18.95,-244.017,-41.481
18.98,-245.386,-41.629
19.01,-246.79,-41.962
19.04,-248.509,-42.248
19.08,-250.089,-42.546
19.11,-251.878,-42.844
19.14,-253.738,-43.142
19.17,-254.967,-43.417
19.21,-256.055,-43.669
19.24,-257.318,-43.84
19.27,-258.757,-43.989
19.3,-260.301,-44.195
19.34,-261.284,-44.425
19.37,-262.091,-44.665
19.4,-263.46,-44.791
19.43,-264.758,-44.929
19.47,-265.881,-45.135
19.5,-266.934,-45.387
19.53,-268.022,-45.57
19.56,-269.075,-45.719
19.6,-270.409,-45.891
19.63,-271.497,-46.063
19.66,-272.549,-46.303
19.69,-273.251,-46.429
19.73,-273.848,-46.498
19.76,-274.55,-46.51
19.79,-274.866,-46.544
19.82,-275.287,-46.613
19.86,-276.27,-46.727
19.89,-277.077,-46.807
19.92,-277.568,-46.91
19.95,-277.884,-47.014
19.99,-278.27,-47.071
20.02,-278.586,-47.071
20.05,-278.761,-47.048
20.08,-279.182,-47.071
20.12,-279.674,-47.128
20.15,-280.025,-47.208
20.18,-279.919,-47.174
20.21,-279.639,-47.094
20.25,-279.639,-46.991
20.28,-279.323,-46.865
20.31,-278.586,-46.727
20.34,-278.445,-46.681
20.38,-278.621,-46.532
20.41,-278.2,-46.578
20.44,-278.586,-46.624
20.47,-277.673,-46.464
20.51,-277.007,-46.406
20.54,-276.62,-46.109
20.57,-275.322,-45.879
20.6,-274.374,-45.696
20.64,-274.129,-45.524
20.67,-273.427,-45.295
20.7,-272.093,-45.123
20.73,-270.619,-44.894
20.77,-269.145,-44.585
20.8,-267.741,-44.195
20.83,-266.127,-43.806
20.86,-264.793,-43.565
20.9,-263.846,-43.359
20.93,-262.407,-43.165
20.96,-261.389,-43.016
20.99,-260.406,-42.752
21.03,-258.476,-42.431
21.06,-256.511,-42.156
21.09,-255.212,-41.801
21.12,-253.914,-41.469
21.16,-252.686,-41.217
21.19,-251.036,-40.999
21.22,-249.562,-40.816
21.25,-248.228,-40.507
21.29,-246.333,-40.094
21.32,-244.368,-39.774
21.35,-243.069,-39.487
21.38,-241.56,-39.212
21.42,-240.367,-38.983
21.45,-238.718,-38.64
21.48,-236.998,-38.433
21.51,-235.735,-38.136
21.55,-233.453,-37.769
21.58,-231.628,-37.437
21.61,-230.084,-36.967
21.64,-228.119,-36.704
21.68,-226.259,-36.394
21.71,-224.223,-36.096
21.74,-223.521,-35.89
21.77,-222.258,-35.547
21.81,-219.907,-35.352
21.84,-218.011,-35.088
21.87,-216.397,-34.687
21.9,-214.677,-34.252
21.94,-212.888,-33.908
21.97,-210.922,-33.576
22.0,-208.676,-33.267
22.03,-206.641,-32.866
22.07,-204.184,-32.316
22.1,-201.657,-31.904
22.13,-199.481,-31.526
22.16,-197.586,-31.182
22.2,-195.656,-30.85
22.23,-193.726,-30.483
22.26,-191.655,-30.151
22.29,-189.268,-29.842
22.33,-186.566,-29.452
22.36,-184.355,-28.983
22.39,-182.249,-28.398
22.42,-179.442,-27.963
22.46,-177.161,-27.642
22.49,-175.23,-27.276
22.52,-172.528,-26.806
22.55,-169.615,-26.348
22.59,-166.983,-25.912
22.62,-164.316,-25.489
22.65,-161.613,-24.985
22.68,-158.841,-24.446
22.72,-156.49,-24.045
22.75,-154.279,-23.679
22.78,-151.506,-23.346
22.81,-148.734,-22.945
22.85,-146.031,-22.373
22.88,-142.627,-21.788
22.91,-139.539,-21.365
22.94,-137.222,-20.883
22.98,-133.958,-20.265
23.01,-131.046,-19.864
23.04,-128.87,-19.394
23.07,-125.676,-18.993
23.11,-122.903,-18.695
23.14,-120.412,-18.134
23.17,-116.762,-17.538
23.2,-113.393,-17.08
23.24,-110.971,-16.645
23.27,-108.374,-16.141
23.3,-105.356,-15.66
23.33,-101.917,-15.098
23.37,-97.881,-14.491
23.4,-94.02,-13.896
23.43,-90.3,-13.14
23.46,-86.685,-12.452
23.5,-83.0,-11.788
23.53,-79.034,-11.261
23.56,-75.595,-10.757
23.59,-72.296,-10.184
23.63,-68.716,-9.623
23.66,-65.172,-9.153
23.69,-61.768,-8.66
23.72,-58.434,-8.168
23.76,-55.24,-7.618
23.79,-51.836,-7.068
23.82,-48.502,-6.587
23.85,-45.203,-6.14
23.89,-41.974,-5.625
23.92,-38.324,-5.029
23.95,-34.92,-4.525
23.98,-32.99,-4.365
24.02,-34.92,-4.777
24.05,-34.674,-4.376
24.08,-24.567,-3.219
24.11,-16.039,-2.669
24.15,-12.529,-1.088
24.18,-8.037,-0.321
24.21,-6.458,-0.458
24.24,-2.667,-0.023
24.28,0.351,0.664
24.31,4.106,1.65
24.34,9.406,1.466
24.37,13.477,1.753
24.41,19.127,1.684
24.44,18.776,1.111
24.47,20.32,2.142
24.5,27.831,2.726
24.54,32.077,2.463
24.57,32.112,2.852
24.6,33.481,3.677
24.63,35.306,4.41
24.67,37.622,5.258
24.7,40.781,6.175
24.73,43.764,7.32
24.76,45.624,8.867
24.8,46.957,10.642
24.83,48.677,12.372
24.86,50.502,14.205
24.89,55.45,15.66
24.93,63.979,15.568
24.96,69.769,15.03
24.99,74.191,14.789
25.02,77.701,14.411
25.06,79.526,14.319
25.09,81.842,14.423
25.12,85.422,14.709
25.15,88.931,15.133
25.19,91.949,15.763
25.22,94.617,16.439
25.25,97.389,17.011
25.28,100.513,17.493
25.32,104.022,17.997
25.35,107.426,18.569
25.38,110.725,19.222
25.41,114.024,19.772
25.45,116.832,20.162
25.48,119.499,20.597
25.51,122.517,21.113
25.54,125.781,21.594
25.58,129.045,22.121
25.61,132.8,22.693
25.64,135.608,23.14
25.67,137.643,23.679
25.71,140.346,24.16
25.74,143.89,24.572
25.77,147.189,24.973
25.8,150.208,25.615
25.84,153.12,26.119
25.87,155.191,26.6
25.9,158.876,27.15
25.93,161.789,27.367
25.97,163.263,27.906
26.0,166.106,28.364
26.03,168.317,28.524
26.06,170.352,28.891
26.1,173.581,29.292
26.13,176.248,29.819
26.16,178.951,30.472
26.19,181.863,30.953
26.23,184.25,31.342
26.26,186.461,31.743
26.29,188.707,32.121
26.32,191.164,32.534
26.36,194.006,32.866
26.39,196.042,33.187
26.42,197.621,33.565
26.45,199.411,33.908
26.49,201.341,34.138
26.52,203.271,34.355
26.55,205.202,34.619
26.58,207.062,35.031
26.62,209.238,35.455
26.65,211.133,35.787
26.68,213.028,36.165
26.71,215.309,36.543
26.75,216.818,36.83
26.78,218.011,37.162
26.81,220.082,37.345
26.84,222.012,37.551
26.88,223.907,37.964
26.91,225.908,38.353
26.94,227.312,38.662
26.97,229.277,39.029
27.01,231.067,39.189
27.04,231.874,39.453
27.07,233.699,39.785
27.1,235.805,40.026
27.14,237.524,40.346
27.17,239.42,40.702
27.2,240.999,41.034
27.23,242.578,41.412
27.27,244.193,41.607
27.3,245.596,41.778
27.33,247.246,42.03
27.36,248.86,42.328
27.4,250.299,42.626
27.43,251.878,42.89
27.46,253.458,43.142
27.49,255.037,43.417
27.53,256.055,43.611
27.56,256.757,43.817
27.59,258.441,43.989
27.62,260.02,44.127
27.66,260.968,44.379
27.69,261.951,44.631
27.72,263.144,44.837
27.75,264.653,45.009
27.79,265.916,45.169
27.82,266.759,45.421
27.85,267.882,45.627
27.88,268.935,45.788
27.92,270.198,45.925
27.95,271.356,46.097
27.98,272.514,46.338
28.01,273.322,46.51
28.05,273.988,46.601
28.08,274.62,46.624
28.11,275.041,46.624
28.14,275.322,46.67
28.18,275.883,46.727
28.21,276.761,46.819
28.24,277.322,46.876
28.27,277.638,46.968
28.31,278.059,47.059
28.34,278.516,47.117
28.37,278.621,47.082
28.4,278.621,47.059
28.44,279.077,47.082
28.47,279.604,47.128
28.5,279.674,47.197
28.53,279.744,47.185
28.57,279.779,47.128
28.6,279.884,47.117
28.63,279.639,47.036
28.66,279.393,46.979
28.7,279.674,46.968
28.73,280.2,46.968
28.76,279.358,46.853
28.79,278.551,46.807
28.83,278.551,46.613
28.86,277.814,46.361
28.89,276.375,46.097
28.92,275.217,45.811
28.96,274.374,45.616
28.99,273.918,45.41
29.02,272.514,45.146
29.05,271.111,44.952
29.09,269.637,44.677
29.12,268.092,44.39
29.15,266.689,44.035
29.18,265.355,43.703
29.21,264.232,43.508
29.25,263.179,43.336
29.28,261.916,43.187
29.31,260.828,42.97
29.34,259.283,42.626
29.38,257.458,42.328
29.41,256.265,42.065
29.44,255.072,41.79
29.47,253.493,41.469
29.51,251.843,41.183
29.54,250.404,40.931
29.57,248.86,40.69
29.6,247.176,40.381
29.64,245.491,40.003
29.67,243.771,39.602
29.7,241.876,39.304
29.73,240.297,39.018
29.77,238.577,38.697
29.8,237.7,38.491
29.83,235.945,38.101
29.86,233.488,37.849
29.9,231.137,37.391
29.93,229.803,37.127
29.96,229.172,36.726
29.99,226.926,36.52
30.03,225.241,36.429
30.06,223.943,36.131
30.09,222.293,35.764
30.12,220.538,35.421
30.16,218.608,35.054
30.19,216.467,34.722
30.22,214.677,34.332
30.25,212.782,33.908
30.29,210.782,33.507
30.32,208.781,33.233
30.35,206.816,32.958
30.38,204.57,32.545
30.42,202.324,32.098
30.45,200.288,31.72
30.48,198.218,31.388
30.51,196.428,31.136
30.55,194.919,30.793
30.58,193.059,30.449
30.61,190.813,30.117
30.64,188.11,29.739
30.68,185.583,29.326
30.71,183.548,28.799
30.74,181.337,28.238
30.77,178.775,27.848
30.81,176.424,27.528
30.84,173.897,27.127
30.87,171.265,26.669
30.9,168.597,26.153
30.94,165.755,25.706
30.97,162.701,25.202
31.0,159.683,24.721
31.03,157.578,24.217
31.07,155.191,23.724
31.1,152.278,23.392
31.13,149.435,23.037
31.16,146.593,22.567
31.2,144.171,22.086
31.23,141.609,21.594
31.26,138.731,21.204
31.29,135.432,20.723
31.33,132.379,20.196
31.36,129.607,19.578
31.39,126.343,19.016
31.42,123.395,18.65
31.46,121.078,18.226
31.49,117.358,17.584
31.52,113.919,17.16
31.55,111.848,16.656
31.59,109.041,16.244
31.62,106.093,15.935
31.65,103.355,15.408
31.68,99.53,14.766
31.72,95.354,14.125
31.75,91.634,13.483
31.78,87.949,12.773
31.81,84.509,12.109
31.85,81.175,11.501
31.88,77.42,10.974
31.91,73.805,10.551
31.94,70.261,9.966
31.98,66.681,9.382
32.01,63.382,8.832
32.04,59.872,8.305
32.07,56.503,7.87
32.11,53.275,7.332
32.14,49.835,6.782
32.17,46.396,6.232
32.2,42.676,5.705
32.24,38.921,5.155
32.27,35.657,4.628
32.3,33.691,4.342
32.33,35.762,4.846
32.37,36.253,4.605
32.4,26.181,3.631
32.43,18.109,3.093
32.46,15.021,1.352
32.5,11.055,0.389
32.53,9.09,0.584
32.56,5.159,0.08
32.59,0.526,-0.435
32.63,-2.597,-1.501
32.66,-8.423,-1.501
32.69,-11.511,-1.661
32.72,-17.126,-1.959
32.76,-18.109,-0.951
32.79,-19.022,-1.707
32.82,-26.918,-2.738
32.85,-32.533,-2.807
32.89,-32.779,-3.276
32.92,-33.867,-3.906
32.95,-35.201,-4.261
32.98,-36.078,-5.098
33.02,-38.64,-6.255
33.05,-42.465,-7.446
33.08,-45.834,-8.649
33.11,-47.484,-10.115
33.15,-48.291,-11.994
33.18,-49.274,-14.125
33.21,-54.713,-15.465
33.24,-62.961,-15.121
33.28,-68.436,-14.732
33.31,-73.454,-14.629
33.34,-77.209,-14.411
33.37,-79.28,-14.297
33.41,-81.175,-14.319
33.44,-83.983,-14.549
33.47,-87.422,-15.041
33.5,-91.212,-15.671
33.54,-94.582,-16.278
33.57,-97.073,-16.863
33.6,-99.6,-17.47
33.63,-102.864,-18.008
33.67,-106.409,-18.466
33.7,-109.988,-19.005
33.73,-113.287,-19.532
33.76,-115.849,-20.07
33.8,-118.517,-20.597
33.83,-121.5,-20.941
33.86,-124.518,-21.33
33.89,-127.747,-21.834
33.93,-130.905,-22.441
33.96,-134.38,-23.094
33.99,-137.643,-23.576
34.02,-139.925,-23.999
34.06,-142.978,-24.607
34.09,-146.487,-25.065
34.12,-148.944,-25.523
34.15,-151.857,-25.993
34.19,-155.542,-26.485
34.22,-157.718,-26.806
34.25,-159.367,-27.436
34.28,-163.544,-27.883
34.32,-165.088,-27.917
34.35,-167.088,-28.582
34.38,-170.808,-28.868
34.41,-172.844,-29.383
34.45,-176.143,-30.025
34.48,-179.372,-30.437
34.51,-181.548,-30.987
34.54,-184.145,-31.537
34.58,-186.671,-31.846
34.61,-188.882,-32.213
34.64,-191.374,-32.476
34.67,-193.375,-32.82
34.71,-195.691,-33.278
34.74,-198.077,-33.633
34.77,-199.586,-33.863
34.8,-201.762,-34.252
34.84,-204.359,-34.538
34.87,-205.763,-34.928
34.9,-208.29,-35.443
34.93,-210.992,-35.753
34.97,-212.852,-36.177
35.0,-214.993,-36.658
35.03,-217.169,-37.047
35.06,-219.521,-37.46
35.1,-222.153,-37.792
35.13,-224.329,-38.136
35.16,-226.154,-38.559
35.19,-228.084,-38.926
35.23,-230.049,-39.212
35.26,-232.085,-39.51
35.29,-234.05,-39.797
35.32,-235.173,-40.049
35.36,-236.156,-40.255
35.39,-237.384,-40.369
35.42,-238.788,-40.427
35.45,-240.297,-40.713
35.49,-242.403,-41.08
35.52,-243.526,-41.343
35.55,-244.614,-41.629
35.58,-245.912,-41.721
35.62,-246.825,-41.939
35.65,-248.334,-42.202
35.68,-250.089,-42.5
35.71,-251.668,-42.752
35.75,-252.861,-43.027
35.78,-254.686,-43.405
35.81,-256.265,-43.669
35.84,-257.809,-44.047
35.88,-258.792,-44.047
35.91,-259.213,-44.253
35.94,-261.424,-44.47
35.97,-262.477,-44.642
36.01,-263.811,-44.974
36.04,-265.109,-45.1
36.07,-266.548,-45.387
36.1,-267.496,-45.524
36.14,-268.057,-45.742
36.17,-269.075,-45.765
36.2,-270.198,-45.891
36.23,-271.461,-46.051
36.27,-272.514,-46.338
36.3,-273.602,-46.544
36.33,-274.409,-46.647
36.36,-274.866,-46.704
36.4,-275.252,-46.75
36.43,-275.813,-46.773
36.46,-276.34,-46.83
36.49,-277.217,-46.91
36.53,-278.094,-47.059
36.56,-278.796,-47.22
36.59,-279.077,-47.3
36.62,-279.182,-47.346
36.66,-279.498,-47.288
36.69,-279.568,-47.197
36.72,-279.358,-47.128
36.75,-279.533,-47.14
36.79,-280.235,-47.174
36.82,-280.516,-47.22
36.85,-280.341,-47.243
36.88,-280.165,-47.208
36.92,-280.165,-47.197
36.95,-279.814,-46.991
36.98,-279.112,-46.876
37.01,-279.428,-46.807
37.05,-279.498,-46.773
37.08,-278.972,-46.75
37.11,-278.059,-46.567
37.14,-277.147,-46.303
37.18,-276.691,-46.177
37.21,-274.831,-45.501
37.24,-264.337,-43.577
37.27,-254.686,-42.065
37.31,-254.44,-40.61
37.34,-253.072,-39.797
37.37,-249.878,-40.026
37.4,-246.544,-39.934
37.44,-244.333,-40.049
37.47,-246.825,-40.484
37.5,-248.404,-40.828
37.53,-248.264,-41.618
37.57,-250.861,-42.271
37.6,-253.668,-42.626
37.63,-254.686,-42.947
37.66,-254.16,-42.901
37.7,-253.036,-42.603
37.73,-253.282,-42.225
37.76,-253.387,-41.813
37.79,-252.861,-41.664
37.83,-251.984,-41.492
37.86,-250.439,-41.263
37.89,-249.702,-41.045
37.92,-248.86,-40.644
37.96,-246.474,-40.266
37.99,-244.754,-40.037
38.02,-243.982,-39.728
38.05,-242.929,-39.476
38.09,-241.595,-39.235
38.12,-240.051,-39.018
38.15,-238.823,-38.846
38.18,-237.419,-38.514
38.22,-235.033,-38.113
38.25,-233.594,-37.769
38.28,-232.436,-37.448
38.31,-230.681,-37.231
38.35,-228.961,-36.979
38.38,-227.277,-36.6
38.41,-225.522,-36.234
38.44,-223.17,-35.833
38.48,-220.503,-35.421
38.51,-218.433,-34.962
38.54,-216.818,-34.516
38.57,-214.888,-34.115
38.61,-212.466,-33.805
38.64,-210.291,-33.53
38.67,-208.395,-33.129
38.7,-205.763,-32.625
38.74,-203.271,-32.247
38.77,-200.99,-31.812
38.8,-198.709,-31.491
38.83,-197.305,-31.159
38.87,-195.34,-30.758
38.9,-193.199,-30.518
38.93,-190.988,-30.197
38.96,-189.058,-29.933
39.0,-186.987,-29.452
39.03,-184.987,-29.109
39.06,-182.074,-28.501
39.09,-178.775,-28.158
39.13,-177.336,-27.654
39.16,-175.301,-27.173
39.19,-172.247,-26.749
39.22,-169.72,-26.52
39.26,-166.983,-25.912
39.29,-163.544,-25.477
39.32,-161.789,-24.95
39.35,-158.981,-24.423
39.39,-156.349,-24.194
39.42,-153.752,-23.713
39.45,-150.874,-23.289
39.48,-148.453,-22.797
39.52,-145.645,-22.327
39.55,-142.487,-21.914
39.58,-139.749,-21.433
39.61,-136.696,-20.78
39.65,-133.327,-20.219
39.68,-130.344,-19.749
39.71,-127.361,-19.268
39.74,-124.062,-18.73
39.78,-120.973,-18.203
39.81,-118.025,-17.653
39.84,-114.796,-17.229
39.87,-112.164,-16.885
39.91,-109.848,-16.416
39.94,-106.444,-15.843
39.97,-102.654,-15.362
40.0,-99.039,-14.743
40.04,-95.248,-14.102
40.07,-91.739,-13.403
40.1,-88.089,-12.693
40.13,-84.474,-12.143
40.17,-80.859,-11.616
40.2,-77.28,-11.1
40.23,-74.297,-10.596
40.26,-71.173,-10.012
40.3,-67.102,-9.531
40.33,-63.628,-9.084
40.36,-60.399,-8.489
40.39,-57.24,-7.962
40.43,-54.257,-7.446
40.46,-50.783,-6.988
40.49,-47.519,-6.587
40.52,-44.185,-6.003
40.56,-40.395,-5.384
40.59,-37.025,-4.88
40.62,-35.06,-4.594
40.65,-35.797,-4.949
40.69,-38.289,-5.121
40.72,-31.059,-4.032
40.75,-20.425,-3.46
40.78,-16.495,-2.165
40.82,-12.248,-0.79
40.85,-10.599,-0.573
40.88,-7.44,0.092
40.91,-1.228,0.218
40.95,1.334,1.18
40.98,7.756,1.879
41.01,12.248,1.363
41.04,16.144,1.695
41.08,17.583,1.1
41.11,16.705,1.558
41.14,23.654,2.715
41.17,31.235,2.543
41.21,32.674,2.6
41.24,33.27,3.437
41.27,34.639,4.158
41.3,35.973,4.937
41.34,38.956,5.808
41.37,42.29,6.736
41.4,44.571,8.122
41.43,46.571,9.898
41.47,48.151,11.524
41.5,48.782,13.22
41.53,51.204,15.007
41.56,58.469,15.476
41.6,65.593,14.881
41.63,70.576,14.56
41.66,74.823,14.239
41.69,77.104,14.067
41.73,79.07,14.148
41.76,81.877,14.331
41.79,85.632,14.72
41.82,89.212,15.27
41.86,92.441,16.015
41.89,95.424,16.725
41.92,98.372,17.309
41.95,101.671,17.79
41.99,105.321,18.317
42.02,108.62,18.89
42.05,111.954,19.555
42.08,114.972,19.956
42.12,117.815,20.425
42.15,120.657,20.78
42.18,123.5,21.353
42.21,126.799,21.811
42.25,129.887,22.315
42.28,133.292,22.831
42.31,136.661,23.404
42.34,138.766,23.839
42.38,141.223,24.481
42.41,144.978,24.79
42.44,147.751,25.225
42.47,150.769,25.729
42.51,153.436,26.29
42.54,156.419,26.795
42.57,158.771,27.127
42.6,161.227,27.539
42.64,163.789,27.94
42.67,166.281,28.387
42.7,168.808,28.776
42.73,171.651,29.166
42.77,174.458,29.635
42.8,177.301,30.231
42.83,180.109,30.85
42.86,182.881,31.342
42.9,185.303,31.663
42.93,187.479,31.984
42.96,189.655,32.35
42.99,192.181,32.797
43.03,194.778,33.118
43.06,196.779,33.439
43.09,198.499,33.794
43.12,200.323,34.126
43.16,201.903,34.355
43.19,203.903,34.619
43.22,205.869,34.825
43.25,207.518,35.214
43.29,209.483,35.627
43.32,211.308,35.959
43.35,213.274,36.314
43.38,215.45,36.6
43.42,216.362,36.841
43.45,217.731,37.219
43.48,219.836,37.391
43.51,221.977,37.712
43.55,224.399,38.124
43.58,226.434,38.617
43.61,228.119,39.052
43.64,230.154,39.419
43.68,231.488,39.545
43.71,233.208,39.945
43.74,236.191,40.278
43.77,237.489,40.598
43.81,238.893,40.954
43.84,240.613,41.091
43.87,242.157,41.343
43.9,243.526,41.584
43.94,244.508,41.778
43.97,245.947,41.95
44.0,247.597,42.122
44.03,249.071,42.454
44.07,250.79,42.832
44.1,252.44,43.165
44.13,254.089,43.474
44.16,255.669,43.726
44.2,256.476,43.898
44.23,257.494,44.161
44.26,259.389,44.344
44.29,260.687,44.47
44.33,261.53,44.677
44.36,262.582,44.871
44.39,263.846,45.112
44.42,265.355,45.295
44.46,266.408,45.456
44.49,267.355,45.65
44.52,268.303,45.834
44.55,269.25,46.028
44.59,270.444,46.154
44.62,271.742,46.326
44.65,272.865,46.532
44.68,273.567,46.739
44.72,274.164,46.83
44.75,274.76,46.842
44.78,275.041,46.796
44.81,275.462,46.842
44.85,276.199,46.922
44.88,277.007,47.071
44.91,277.603,47.14
44.94,277.919,47.231
44.98,278.235,47.288
45.01,278.481,47.311
45.04,278.551,47.288
45.07,278.691,47.254
45.11,279.147,47.243
45.14,279.498,47.3
45.17,279.428,47.288
45.2,279.393,47.311
45.24,279.112,47.117
45.27,278.656,47.105
45.3,279.112,47.002
45.33,278.305,46.922
45.37,278.902,47.036
45.4,279.253,46.922
45.43,278.937,47.048
45.46,278.656,46.922
45.5,277.884,46.842
45.53,277.744,46.613
45.56,276.445,46.28
45.59,275.392,46.109
45.63,275.111,45.948
45.66,274.304,45.742
45.69,272.76,45.49
45.72,271.251,45.146
45.76,269.566,44.826
45.79,268.092,44.493
45.82,266.373,44.092
45.85,264.969,43.795
45.89,264.091,43.554
45.92,262.582,43.348
45.95,261.214,43.233
45.98,260.231,42.97
46.02,258.441,42.626
46.05,256.651,42.34
46.08,255.247,42.042
46.11,253.949,41.767
46.15,252.545,41.446
46.18,250.966,41.183
46.21,249.387,40.931
46.24,247.842,40.702
46.28,246.333,40.392
46.31,244.93,40.083
46.34,243.561,39.774
46.37,242.157,39.522
46.41,239.981,39.201
46.44,238.367,38.949
46.47,237.279,38.525
46.5,235.454,38.25
46.54,233.488,37.883
46.57,231.102,37.586
46.6,230.4,37.334
46.63,228.856,36.898
46.67,226.469,36.692
46.7,224.785,36.429
46.73,223.206,36.119
46.76,221.767,35.787
46.8,220.012,35.386
46.83,217.766,35.054
46.86,215.906,34.733
46.89,213.94,34.332
46.93,212.01,33.931
46.96,210.08,33.542
46.99,208.115,33.267
47.02,206.184,32.981
47.06,203.903,32.58
47.09,201.727,32.179
47.12,199.867,31.743
47.15,197.726,31.434
47.19,196.007,31.193
47.22,194.287,30.85
47.25,192.392,30.483
47.28,189.97,30.048
47.32,187.022,29.67
47.35,184.671,29.235
47.38,182.495,28.65
47.41,179.933,28.112
47.45,177.617,27.757
47.48,175.266,27.39
47.51,172.388,27.001
47.54,169.58,26.497
47.58,167.123,26.016
47.61,164.597,25.546
47.64,161.508,25.122
47.67,158.771,24.687
47.71,156.77,24.194
47.74,154.033,23.702
47.77,150.945,23.358
47.8,148.067,22.911
47.84,145.224,22.373
47.87,142.381,21.811
47.9,139.293,21.284
47.93,136.134,20.826
47.97,132.976,20.334
48.0,130.589,19.864
48.03,128.027,19.337
48.06,124.693,18.913
48.1,122.166,18.65
48.13,119.569,18.111
48.16,116.06,17.584
48.19,113.673,17.195
48.23,111.182,16.691
48.26,108.023,16.347
48.29,105.251,15.889
48.32,101.917,15.202
48.36,97.6,14.503
48.39,93.283,13.792
48.42,89.317,13.082
48.45,85.913,12.406
48.49,82.755,11.753
48.52,79.07,11.192
48.55,75.174,10.757
48.58,71.559,10.23
48.62,68.085,9.646
48.65,64.54,9.038
48.68,61.241,8.534
48.71,58.083,8.122
48.75,55.099,7.71
48.78,51.941,7.206
48.81,48.817,6.713
48.84,45.203,6.186
48.88,41.869,5.716
48.91,38.359,5.132
48.94,35.692,4.731
48.97,36.288,4.949
49.01,39.307,5.224
49.04,32.533,4.261
49.07,21.478,3.62
49.1,16.951,2.28
49.14,13.477,0.733
49.17,11.441,0.676
49.2,9.511,0.286
49.23,3.123,-0.218
49.27,-0.351,-0.848
49.3,-5.264,-1.741
49.33,-10.002,-1.386
49.36,-13.547,-1.913
49.4,-17.372,-1.317
49.43,-16.354,-1.031
49.46,-21.689,-2.417
49.49,-30.077,-2.784
49.53,-32.814,-2.956
49.56,-33.34,-3.643
49.59,-35.025,-4.078
49.62,-35.762,-4.605
49.66,-37.201,-5.659
49.69,-40.254,-6.839
49.72,-44.15,-8.065
49.75,-46.992,-9.325
49.79,-48.116,-10.986
49.82,-48.642,-13.048
49.85,-51.028,-15.018
49.88,-58.574,-15.499
49.92,-65.628,-14.858
49.95,-70.612,-14.697
49.98,-75.56,-14.549
50.01,-78.262,-14.377
50.05,-79.947,-14.342
50.08,-82.228,-14.445
50.11,-85.492,-14.801
50.14,-89.177,-15.396
50.18,-92.827,-16.003
50.21,-95.74,-16.622
50.24,-98.232,-17.206
50.27,-100.969,-17.779
50.31,-104.268,-18.283
50.34,-107.988,-18.776
50.37,-111.603,-19.291
50.4,-114.34,-19.818
50.44,-116.797,-20.391
50.47,-119.92,-20.849
50.5,-122.903,-21.181
50.53,-125.816,-21.64
50.57,-129.08,-22.201
50.6,-132.695,-22.842
50.63,-135.538,-23.335
50.66,-137.854,-23.77
50.7,-140.346,-24.137
50.73,-143.645,-24.71
50.76,-147.119,-25.191
50.79,-149.751,-25.695
50.83,-153.191,-26.29
50.86,-156.49,-26.726
50.89,-158.42,-27.264
50.92,-161.368,-27.848
50.96,-164.421,-28.112
50.99,-166.457,-28.444
51.02,-168.878,-28.857
51.05,-171.721,-29.303
51.09,-174.669,-29.807
51.12,-177.652,-30.323
51.15,-180.424,-30.804
51.18,-182.6,-31.297
51.22,-184.987,-31.766
51.25,-187.479,-32.053
51.28,-190.146,-32.408
51.31,-192.848,-32.82
51.35,-196.042,-33.53
51.38,-199.551,-34.103
51.41,-201.657,-34.63
51.44,-203.658,-34.939
51.48,-204.745,-35.008
51.51,-206.009,-35.226
51.54,-208.08,-35.386
51.57,-209.764,-35.558
51.61,-211.343,-35.799
51.64,-212.782,-36.051
51.67,-214.011,-36.348
51.7,-215.204,-36.589
51.74,-216.432,-36.761
51.77,-217.871,-36.91
51.8,-218.994,-37.116
51.83,-220.468,-37.517
51.87,-222.153,-37.735
51.9,-223.17,-38.01
51.93,-225.803,-38.399
51.96,-227.487,-38.662
52.0,-228.505,-39.121
52.03,-230.19,-39.396
52.06,-232.33,-39.716
52.09,-234.296,-39.957
52.13,-235.735,-40.369
52.16,-237.63,-40.736
52.19,-239.384,-41.022
52.22,-241.209,-41.297
52.26,-243.034,-41.561
52.29,-244.543,-41.881
52.32,-246.123,-42.202
52.35,-247.667,-42.42
52.39,-249.492,-42.683
52.42,-251.282,-42.993
52.45,-252.791,-43.336
52.48,-254.265,-43.623
52.52,-255.704,-43.852
52.55,-257.353,-44.069
52.58,-258.617,-44.253
52.61,-259.669,-44.505
52.65,-260.793,-44.654
52.68,-261.74,-44.768
52.71,-263.074,-44.906
52.74,-264.267,-45.123
52.78,-265.601,-45.433
52.81,-266.829,-45.673
52.84,-267.987,-45.834
52.87,-268.935,-45.971
52.91,-269.917,-46.189
52.94,-271.075,-46.361
52.97,-272.269,-46.544
53.0,-273.322,-46.647
53.04,-274.094,-46.819
53.07,-274.796,-46.945
53.1,-275.287,-47.002
53.13,-275.568,-47.002
53.17,-276.199,-47.014
53.2,-276.901,-47.048
53.23,-277.463,-47.174
53.26,-277.919,-47.266
53.3,-278.41,-47.369
53.33,-278.937,-47.392
53.36,-279.147,-47.426
53.39,-279.007,-47.392
53.43,-279.112,-47.403
53.46,-279.639,-47.334
53.49,-279.709,-47.357
53.52,-279.814,-47.357
53.56,-279.674,-47.392
53.59,-279.709,-47.288
53.62,-279.323,-47.208
53.65,-279.498,-47.162
53.69,-279.077,-47.025
53.72,-278.516,-47.002
53.75,-278.2,-46.807
53.78,-277.217,-46.555
53.82,-275.252,-46.109
53.85,-272.374,-45.559
53.88,-270.549,-45.089
53.91,-269.777,-44.677
53.95,-268.9,-44.505
53.98,-268.092,-44.528
54.01,-267.145,-44.574
54.04,-266.829,-44.596
54.08,-266.618,-44.516
54.11,-266.197,-44.482
54.14,-265.671,-44.425
54.17,-265.039,-44.356
54.21,-265.109,-44.276
54.24,-264.969,-44.138
54.27,-264.232,-44.012
54.3,-263.039,-43.817
54.34,-261.565,-43.485
54.37,-260.161,-43.096
54.4,-258.722,-42.66
54.43,-257.037,-42.317
54.47,-255.598,-42.042
54.5,-254.089,-41.721
54.53,-252.264,-41.377
54.56,-250.404,-40.999
54.6,-248.123,-40.621
54.63,-245.912,-40.266
54.66,-244.473,-39.9
54.69,-242.824,-39.487
54.73,-240.858,-39.212
54.76,-239.104,-38.903
54.79,-236.858,-38.582
54.82,-235.419,-38.284
54.86,-233.629,-37.815
54.89,-231.242,-37.505
54.92,-229.453,-37.242
54.95,-227.768,-36.91
54.99,-226.118,-36.6
55.02,-224.609,-36.268
55.05,-222.96,-36.051
55.08,-221.17,-35.764
55.12,-219.205,-35.478
55.15,-217.801,-35.088
55.18,-215.309,-34.573
55.21,-213.625,-34.378
55.25,-212.396,-34.012
55.28,-210.15,-33.725
55.31,-208.43,-33.427
55.34,-206.535,-33.015
55.38,-204.184,-32.694
55.41,-202.254,-32.396
55.44,-200.569,-31.995
55.47,-198.393,-31.571
55.51,-196.428,-31.228
55.54,-194.603,-30.941
55.57,-192.638,-30.621
55.6,-190.497,-30.243
55.64,-188.251,-29.773
55.67,-185.408,-29.326
55.7,-182.776,-28.857
55.73,-180.249,-28.364
55.77,-178.214,-27.894
55.8,-176.073,-27.459
55.83,-173.37,-27.081
55.86,-170.352,-26.714
55.9,-167.545,-26.256
55.93,-164.983,-25.695
55.96,-162.175,-25.122
55.99,-159.087,-24.652
56.03,-156.595,-24.32
56.06,-154.489,-23.896
56.09,-151.682,-23.392
56.12,-148.663,-22.98
56.16,-145.961,-22.522
56.19,-142.522,-21.983
56.22,-139.328,-21.502
56.25,-137.222,-20.941
56.29,-134.344,-20.368
56.32,-131.116,-20.07
56.35,-128.519,-19.635
56.38,-125.5,-19.131
56.42,-122.623,-18.638
56.45,-119.991,-18.157
56.48,-116.972,-17.745
56.51,-113.989,-17.309
56.55,-111.603,-16.897
56.58,-109.357,-16.393
56.61,-106.268,-15.969
56.64,-102.829,-15.522
56.68,-98.933,-14.892
56.71,-95.178,-14.159
56.74,-91.107,-13.3
56.77,-86.931,-12.635
56.81,-83.492,-12.017
56.84,-79.912,-11.421
56.87,-76.297,-10.848
56.9,-72.823,-10.276
56.94,-69.067,-9.772
56.97,-65.382,-9.302
57.0,-62.048,-8.775
57.03,-59.03,-8.248
57.07,-56.047,-7.755
57.1,-52.538,-7.286
57.13,-48.993,-6.85
57.16,-45.659,-6.278
57.2,-42.114,-5.648
57.23,-38.499,-5.063
57.26,-35.13,-4.582
57.29,-33.27,-4.41
57.33,-35.13,-4.823
57.36,-35.551,-4.433
57.39,-25.409,-3.299
57.42,-16.284,-2.887
57.46,-12.95,-1.237
57.49,-8.423,-0.206
57.52,-6.036,-0.309
57.55,-1.685,-0.057
57.59,0.948,0.916
57.62,5.966,1.867
57.65,11.02,1.294
57.68,14.178,1.65
57.72,18.074,1.512
57.75,16.6,1.123
57.78,19.829,2.28
57.81,28.462,2.577
57.85,32.112,2.348
57.88,32.182,3.036
57.91,33.797,3.895
57.94,35.025,4.376
57.98,36.499,5.098
58.01,39.763,5.968
58.04,42.781,7.125
58.07,44.711,8.626
58.11,46.501,10.253
58.14,48.431,11.788
58.17,49.59,13.598
58.2,53.099,15.488
58.24,62.154,15.854
58.27,68.892,15.213
58.3,73.138,15.053
58.33,77.631,14.812
58.36,80.087,14.629
58.4,81.982,14.675
58.43,85.176,14.881
58.46,89.001,15.236
58.49,92.16,15.866
58.53,95.108,16.576
58.56,97.986,17.172
58.59,100.934,17.642
58.62,104.198,18.157
58.66,107.742,18.753
58.69,111.006,19.348
58.72,114.13,19.875
58.75,116.867,20.253
58.79,119.499,20.712
58.82,122.447,21.204
58.85,125.606,21.674
58.88,128.519,22.098
58.92,131.818,22.636
58.95,135.081,23.152
58.98,137.679,23.77
59.01,140.872,24.343
59.05,144.206,24.801
59.08,147.26,25.259
59.11,149.927,25.798
59.14,152.875,26.302
59.18,155.226,26.657
59.21,158.315,27.161
59.24,161.473,27.47
59.27,162.842,27.917
59.31,165.158,28.375
59.34,167.685,28.57
59.37,169.966,28.902
59.4,172.949,29.395
59.44,175.897,29.945
59.47,178.529,30.575
59.5,181.197,31.033
59.53,183.548,31.434
59.57,186.075,31.892
59.6,188.637,32.247
59.63,190.707,32.614
59.66,193.199,32.981
59.7,195.48,33.29
59.73,197.235,33.668
59.76,199.271,34.069
59.79,201.306,34.286
59.83,202.85,34.504
59.86,204.605,34.768
59.89,206.325,35.111
59.92,208.501,35.501
59.96,210.641,35.844
59.99,212.466,36.2
60.02,214.432,36.612
60.05,216.046,36.933
60.09,217.274,37.208
60.12,219.521,37.471
60.15,221.661,37.689
60.18,223.276,38.113
60.22,225.066,38.456
60.25,226.68,38.766
60.28,228.645,39.052
60.31,230.26,39.281
60.35,231.418,39.602
60.38,233.173,39.934
60.41,235.068,40.175
60.44,236.858,40.472
60.48,238.683,40.782
60.51,240.227,41.148
60.54,242.052,41.526
60.57,243.982,41.767
60.61,245.386,41.985
60.64,246.86,42.282
60.67,248.404,42.569
60.7,250.194,42.89
60.74,252.124,43.153
60.77,253.668,43.451
60.8,255.212,43.772
60.83,256.335,43.955
60.87,257.037,44.127
60.9,258.511,44.241
60.93,259.915,44.367
60.96,260.898,44.596
61.0,261.951,44.848
61.03,263.249,45.043
61.06,264.723,45.238
61.09,265.881,45.421
61.13,266.724,45.662
61.16,267.601,45.822
61.19,268.584,45.937
61.22,269.777,46.04
61.26,270.935,46.257
61.29,272.163,46.521
61.32,273.076,46.727
61.35,273.848,46.83
61.39,274.339,46.865
61.42,274.796,46.876
61.45,275.006,46.853
61.48,275.462,46.933
61.52,276.41,46.991
61.55,276.936,47.059
61.58,277.182,47.162
61.61,277.603,47.266
61.65,278.165,47.323
61.68,278.41,47.3
61.71,278.516,47.311
61.74,278.972,47.369
61.78,279.709,47.472
61.81,279.99,47.518
61.84,279.99,47.529
61.87,279.849,47.426
61.91,279.674,47.369
61.94,279.463,47.243
61.97,278.972,47.117
62.0,279.042,47.059
62.04,279.744,47.094
62.07,279.358,47.036
62.1,278.34,47.048
62.13,278.375,46.899
62.17,278.024,46.681
62.2,276.761,46.464
62.23,275.392,46.212
62.26,274.585,45.96
62.3,274.094,45.708
62.33,272.795,45.444
62.36,271.321,45.261
62.39,269.952,44.974
62.43,268.163,44.642
62.46,266.653,44.253
62.49,265.179,43.886
62.52,263.881,43.669
62.56,262.758,43.474
62.59,261.494,43.291
62.62,260.512,43.119
62.65,259.424,42.855
62.69,257.529,42.603
62.72,255.914,42.328
62.75,254.686,42.007
62.78,253.563,41.698
62.82,252.089,41.412
62.85,250.369,41.206
62.88,248.755,40.942
62.91,247.176,40.564
62.95,245.245,40.152
62.98,243.315,39.774
63.01,241.982,39.522
63.04,240.613,39.235
63.08,238.612,38.937
63.11,237.63,38.777
63.14,236.191,38.365
63.17,233.629,38.136
63.21,232.014,37.792
63.24,230.295,37.357
63.27,228.856,37.036
63.3,227.171,36.772
63.34,225.522,36.612
63.37,223.627,36.245
63.4,221.942,35.959
63.43,220.819,35.581
63.47,218.608,35.214
63.5,216.467,34.962
63.53,214.923,34.584
63.56,213.168,34.172
63.6,211.238,33.817
63.63,209.238,33.553
63.66,207.237,33.255
63.69,204.956,32.809
63.73,202.64,32.339
63.76,200.499,31.904
63.79,198.218,31.537
63.82,196.393,31.262
63.86,194.743,30.896
63.89,192.708,30.518
63.92,190.497,30.185
63.95,188.005,29.865
63.99,185.724,29.475
64.02,183.513,28.937
64.05,180.986,28.387
64.08,178.389,27.974
64.12,176.213,27.642
64.15,173.967,27.264
64.18,171.265,26.806
64.21,168.352,26.302
64.25,165.579,25.855
64.28,162.912,25.397
64.31,160.139,24.904
64.34,157.613,24.423
64.38,155.402,23.965
64.41,152.559,23.598
64.44,149.716,23.243
64.47,146.838,22.728
64.51,144.066,22.189
64.54,140.942,21.594
64.57,137.959,21.227
64.6,135.538,20.757
64.64,132.73,20.276
64.67,130.133,19.83
64.7,127.115,19.303
64.73,123.851,18.936
64.77,121.675,18.569
64.8,118.657,17.894
64.83,115.042,17.458
64.86,112.901,17.023
64.9,110.164,16.542
64.93,107.04,16.187
64.96,104.022,15.614
64.99,100.092,14.904
65.03,95.88,14.262
65.06,91.879,13.54
65.09,88.089,12.83
65.12,84.615,12.166
65.16,81.175,11.513
65.19,77.174,10.997
65.22,73.56,10.551
65.25,70.226,9.978
65.29,66.751,9.405
65.32,63.382,8.89
65.35,60.118,8.443
65.38,56.854,8.007
65.42,53.731,7.515
65.45,50.677,6.999
65.48,47.379,6.484
65.51,43.799,6.014
65.55,40.465,5.499
65.58,36.99,4.892
65.61,34.604,4.582
65.64,36.464,4.995
65.68,37.552,4.834
65.71,27.515,3.769
65.74,18.355,3.173
65.77,14.88,1.398
65.81,10.458,0.367
65.84,8.458,0.596
65.87,4.703,0.115
65.9,0.351,-0.504
65.94,-2.913,-1.535
65.97,-8.282,-1.42
66.0,-10.915,-1.65
66.03,-16.425,-1.913
66.07,-17.337,-0.916
66.1,-18.25,-1.673
66.13,-25.935,-2.692
66.16,-32.007,-2.807
66.2,-33.095,-3.253
66.23,-34.253,-3.826
66.26,-35.341,-4.25
66.29,-36.218,-5.086
66.33,-38.359,-6.186
66.36,-41.869,-7.366
66.39,-45.343,-8.523
66.42,-47.133,-9.932
66.46,-48.186,-11.811
66.49,-49.274,-13.896
66.52,-54.012,-15.362
66.55,-62.154,-15.121
66.59,-67.734,-14.709
66.62,-73.068,-14.675
66.65,-77.104,-14.468
66.68,-79.175,-14.388
66.72,-80.965,-14.423
66.75,-83.807,-14.663
66.78,-87.422,-15.121
66.81,-91.037,-15.717
66.85,-94.301,-16.336
66.88,-97.073,-16.92
66.91,-99.46,-17.493
66.94,-102.443,-18.031
66.98,-106.023,-18.501
67.01,-109.848,-19.016
67.04,-113.042,-19.566
67.07,-115.604,-20.139
67.11,-118.411,-20.677
67.14,-121.324,-21.021
67.17,-124.342,-21.422
67.2,-127.501,-21.914
67.24,-130.519,-22.453
67.27,-133.748,-23.106
67.3,-137.363,-23.621
67.33,-139.609,-23.965
67.37,-142.065,-24.595
67.4,-145.575,-25.053
67.43,-148.453,-25.489
67.46,-151.506,-26.004
67.5,-155.191,-26.565
67.53,-157.823,-27.024
67.56,-159.648,-27.585
67.59,-162.631,-27.986
67.63,-165.228,-28.192
67.66,-167.404,-28.57
67.69,-169.896,-28.983
67.72,-172.739,-29.487
67.76,-175.652,-29.956
67.79,-178.494,-30.472
67.82,-181.161,-30.987
67.85,-183.443,-31.526
67.89,-185.97,-31.961
67.92,-188.496,-32.236
67.95,-190.742,-32.545
67.98,-193.024,-32.958
68.02,-195.656,-33.416
68.05,-197.937,-33.84
68.08,-200.218,-34.195
68.11,-202.078,-34.424
68.15,-203.342,-34.687
68.18,-205.026,-34.985
68.21,-206.921,-35.214
68.24,-208.606,-35.455
68.28,-210.431,-35.741
68.31,-212.151,-36.096
68.34,-213.8,-36.474
68.37,-215.239,-36.738
68.41,-216.678,-36.921
68.44,-218.152,-37.105
68.47,-220.082,-37.505
68.5,-222.047,-37.838
68.54,-223.486,-38.147
68.57,-225.241,-38.445
68.6,-227.171,-38.754
68.63,-228.786,-39.132
68.67,-230.505,-39.487
68.7,-232.33,-39.774
68.73,-234.296,-40.094
68.76,-236.226,-40.427
68.8,-237.875,-40.805
68.83,-239.735,-41.171
68.86,-241.631,-41.435
68.89,-243.245,-41.629
68.93,-244.473,-41.881
68.96,-245.877,-42.168
68.99,-247.702,-42.408
69.02,-249.387,-42.649
69.06,-250.896,-42.935
69.09,-252.545,-43.291
69.12,-254.124,-43.588
69.15,-255.353,-43.829
69.19,-256.651,-44.012
69.22,-257.915,-44.184
69.25,-259.038,-44.379
69.28,-260.196,-44.596
69.32,-261.249,-44.722
69.35,-262.512,-44.894
69.38,-263.846,-45.089
69.41,-264.864,-45.353
69.45,-266.092,-45.593
69.48,-267.145,-45.753
69.51,-268.338,-45.879
69.54,-269.215,-46.051
69.58,-270.338,-46.292
69.61,-271.497,-46.487
69.64,-272.725,-46.647
69.67,-273.427,-46.727
69.71,-274.094,-46.876
69.74,-274.655,-46.933
69.77,-274.936,-46.933
69.8,-275.322,-46.945
69.84,-276.129,-46.979
69.87,-276.761,-47.059
69.9,-277.077,-47.197
69.93,-277.533,-47.288
69.97,-278.2,-47.346
70.0,-278.551,-47.369
70.03,-278.621,-47.392
70.06,-278.586,-47.392
70.1,-279.218,-47.415
70.13,-279.463,-47.369
70.16,-279.393,-47.38
70.19,-278.937,-47.277
70.23,-279.358,-47.38
70.26,-279.568,-47.162
70.29,-277.849,-47.025
70.32,-278.094,-46.991
70.36,-278.656,-46.865
70.39,-278.41,-46.968
70.42,-278.094,-46.899
70.45,-277.357,-46.75
70.49,-276.41,-46.51
70.52,-274.866,-46.166
70.55,-273.532,-45.857
70.58,-273.251,-45.627
70.62,-272.935,-45.467
70.65,-272.163,-45.479
70.68,-271.111,-45.433
70.71,-270.163,-45.238
70.75,-269.25,-44.974
70.78,-268.338,-44.7
70.81,-266.899,-44.448
70.84,-265.916,-44.299
70.88,-265.25,-44.058
70.91,-264.056,-43.817
70.94,-262.793,-43.577
70.97,-261.284,-43.279
71.01,-259.389,-42.924
71.04,-257.634,-42.557
71.07,-256.055,-42.099
71.1,-254.054,-41.733
71.14,-252.51,-41.492
71.17,-251.001,-41.217
71.2,-249.211,-40.896
71.23,-247.211,-40.495
71.27,-245.0,-40.117
71.3,-243.21,-39.797
71.33,-241.631,-39.464
71.36,-240.051,-39.189
71.4,-238.998,-38.949
71.43,-237.384,-38.651
71.46,-235.349,-38.502
71.49,-234.225,-38.239
71.53,-232.401,-37.815
71.56,-230.681,-37.528
71.59,-229.277,-37.242
71.62,-227.557,-37.036
71.66,-225.768,-36.669
71.69,-223.311,-36.211
71.72,-222.258,-35.948
71.75,-220.714,-35.512
71.79,-218.433,-35.375
71.82,-216.853,-34.951
71.85,-214.397,-34.504
71.88,-213.098,-34.229
71.92,-211.378,-33.828
71.95,-208.957,-33.645
71.98,-207.483,-33.301
72.01,-205.202,-32.786
72.05,-202.57,-32.431
72.08,-200.639,-32.064
72.11,-198.849,-31.697
72.14,-196.919,-31.354
72.18,-195.059,-30.999
72.21,-193.164,-30.689
72.24,-191.058,-30.38
72.27,-188.567,-30.002
72.31,-186.005,-29.498
72.34,-183.794,-28.983
72.37,-181.267,-28.478
72.4,-178.564,-28.089
72.44,-176.424,-27.711
72.47,-174.318,-27.253
72.5,-171.686,-26.852
72.53,-168.843,-26.474
72.57,-166.106,-26.05
72.6,-163.684,-25.58
72.63,-160.912,-24.962
72.66,-157.788,-24.481
72.7,-155.437,-24.137
72.73,-153.156,-23.702
72.76,-150.313,-23.278
72.79,-147.751,-22.831
72.83,-144.838,-22.315
72.86,-141.293,-21.846
72.89,-138.696,-21.433
72.92,-136.626,-20.861
72.96,-133.537,-20.345
72.99,-130.589,-20.001
73.02,-127.922,-19.566
73.05,-124.693,-19.085
73.09,-121.886,-18.547
73.12,-119.148,-18.031
73.15,-115.919,-17.55
73.18,-112.936,-17.172
73.22,-110.796,-16.725
73.25,-108.093,-16.175
73.28,-104.689,-15.751
73.31,-101.18,-15.213
73.35,-97.073,-14.56
73.38,-93.178,-13.77
73.41,-89.001,-12.945
73.44,-85.211,-12.303
73.48,-81.702,-11.696
73.51,-77.982,-11.135
73.54,-74.367,-10.573
73.57,-70.822,-9.966
73.61,-66.927,-9.474
73.64,-63.593,-9.05
73.67,-60.504,-8.5
73.7,-57.205,-7.962
73.74,-53.906,-7.48
73.77,-50.607,-7.011
73.8,-47.308,-6.587
73.83,-44.185,-6.014
73.87,-40.5,-5.373
73.9,-36.569,-4.846
73.93,-33.376,-4.342
73.96,-32.042,-4.284
74.0,-34.85,-4.685
74.03,-32.709,-3.723
74.06,-20.636,-2.761
74.09,-13.617,-2.348
74.13,-10.599,-0.561
74.16,-6.528,-0.183
74.19,-4.773,-0.424
74.22,-0.842,0.057
74.26,1.404,1.146
74.29,6.703,1.741
74.32,10.915,1.283
74.35,15.056,1.902
74.39,18.987,1.558
74.42,18.425,1.443
74.45,22.917,2.303
74.48,29.445,2.325
74.52,31.551,2.486
74.55,32.358,3.311
74.58,34.499,4.021
74.61,36.113,4.513
74.65,38.078,5.292
74.68,40.746,6.369
74.71,43.518,7.79
74.74,46.255,9.348
74.78,48.396,10.883
74.81,49.59,12.578
74.84,50.642,14.778
74.87,56.819,16.244
74.91,65.874,15.854
74.94,71.173,15.35
74.97,76.051,15.19
75.0,79.631,14.869
75.04,81.316,14.766
75.07,83.667,14.812
75.1,87.317,15.03
75.13,90.651,15.522
75.17,93.564,16.233
75.2,96.547,16.851
75.23,99.284,17.321
75.26,102.092,17.836
75.3,105.566,18.409
75.33,109.076,18.993
75.36,112.199,19.555
75.39,115.112,19.978
75.43,117.709,20.414
75.46,120.412,20.929
75.49,123.711,21.399
75.52,126.904,21.88
75.56,130.063,22.327
75.59,132.835,22.877
75.62,136.31,23.53
75.65,138.696,23.896
75.69,141.364,24.515
75.72,145.47,24.881
75.75,147.681,25.305
75.78,150.488,26.016
75.82,153.717,26.336
75.85,155.858,26.795
75.88,159.402,27.299
75.91,161.719,27.608
75.95,163.474,28.181
75.98,166.422,28.536
76.01,168.703,28.765
76.04,171.159,29.189
76.08,174.283,29.704
76.11,177.126,30.277
76.14,179.933,30.884
76.17,182.495,31.308
76.21,184.882,31.72
76.24,187.373,32.11
76.27,189.655,32.499
76.3,192.006,32.877
76.34,194.498,33.175
76.37,196.568,33.542
76.4,198.428,33.931
76.43,200.323,34.264
76.47,201.938,34.435
76.5,203.728,34.676
76.53,205.447,34.928
76.56,207.343,35.363
76.6,209.518,35.695
76.63,211.273,36.016
76.66,213.239,36.417
76.69,215.274,36.795
76.73,216.748,37.116
76.76,218.433,37.46
76.79,220.644,37.631
76.82,222.363,37.929
76.86,224.188,38.342
76.89,225.908,38.651
76.92,227.698,39.018
76.95,229.839,39.293
76.99,231.207,39.545
77.02,232.681,39.923
77.05,234.822,40.243
77.08,236.612,40.518
77.12,238.261,40.805
77.15,239.946,41.103
77.18,241.525,41.469
77.21,243.456,41.778
77.25,244.859,41.939
77.28,246.088,42.202
77.31,247.913,42.454
77.34,249.422,42.764
77.38,251.247,43.096
77.41,252.896,43.336
77.44,254.195,43.611
77.47,255.634,43.886
77.51,256.581,44.024
77.54,257.529,44.23
77.57,259.283,44.367
77.6,260.336,44.516
77.64,261.249,44.768
77.67,262.477,44.986
77.7,263.741,45.181
77.73,265.215,45.353
77.77,266.092,45.536
77.8,267.039,45.811
77.83,268.057,45.96
77.86,269.18,46.109
77.9,270.409,46.235
77.93,271.567,46.475
77.96,272.549,46.693
77.99,273.357,46.842
78.03,274.059,46.888
78.06,274.55,46.899
78.09,274.971,46.933
78.12,275.287,46.979
78.16,275.954,47.048
78.19,276.691,47.117
78.22,277.217,47.208
78.25,277.533,47.311
78.29,277.989,47.403
78.32,278.481,47.449
78.35,278.586,47.392
78.38,278.621,47.392
78.42,279.077,47.415
78.45,279.533,47.483
78.48,279.709,47.506
78.51,279.744,47.495
78.55,279.814,47.46
78.58,279.779,47.403
78.61,279.428,47.334
78.64,279.182,47.254
78.68,279.674,47.254
78.71,279.99,47.22
78.74,278.831,47.128
78.77,278.41,47.071
78.81,278.2,46.807
78.84,277.252,46.59
78.87,275.954,46.315
78.9,274.585,46.051
78.94,274.059,45.868
78.97,273.532,45.616
79.0,271.953,45.398
79.03,270.444,45.158
79.07,268.689,44.837
79.1,267.25,44.505
79.13,266.057,44.138
79.16,264.653,43.852
79.2,263.46,43.68
79.23,262.267,43.497
79.26,260.898,43.302
79.29,260.02,43.073
79.33,258.582,42.775
79.36,256.721,42.534
79.39,255.212,42.225
79.42,253.879,41.893
79.46,252.65,41.572
79.49,251.141,41.32
79.52,249.422,41.08
79.55,247.807,40.805
79.59,246.193,40.427
79.62,244.438,40.037
79.65,242.929,39.762
79.68,241.525,39.499
79.72,239.665,39.201
79.75,238.297,38.983
79.78,237.63,38.697
79.81,235.313,38.353
79.85,232.927,38.124
79.88,231.207,37.654
79.91,229.663,37.288
79.94,228.224,36.921
79.98,226.224,36.715
80.01,224.644,36.463
80.04,222.714,36.108
80.07,221.346,35.81
80.11,219.661,35.398
80.14,217.345,35.146
80.17,215.73,34.836
80.2,213.976,34.412
80.24,212.01,34.034
80.27,210.01,33.702
80.3,208.15,33.439
80.33,206.079,33.072
80.37,203.728,32.602
80.4,201.482,32.167
80.43,199.481,31.801
80.46,197.446,31.491
80.5,195.48,31.171
80.53,193.761,30.793
80.56,191.901,30.426
80.59,189.479,30.094
80.63,186.917,29.762
80.66,184.706,29.28
80.69,182.355,28.708
80.72,179.863,28.226
80.76,177.441,27.86
80.79,175.09,27.528
80.82,172.844,27.127
80.85,170.247,26.646
80.89,167.404,26.187
80.92,164.597,25.764
80.95,161.789,25.248
80.98,159.016,24.733
81.02,156.63,24.228
81.05,153.822,23.759
81.08,150.945,23.415
81.11,148.347,22.98
81.15,145.505,22.476
81.18,142.838,21.96
81.21,139.714,21.491
81.24,136.766,21.055
81.28,133.923,20.586
81.31,131.396,20.059
81.34,128.519,19.532
81.37,125.29,19.096
81.41,122.658,18.776
81.44,120.236,18.237
81.47,116.446,17.619
81.5,113.393,17.218
81.54,111.111,16.702
81.57,108.128,16.313
81.6,105.461,15.9
81.63,102.092,15.27
81.67,97.916,14.629
81.7,93.774,13.953
81.73,89.844,13.231
81.76,86.159,12.498
81.8,82.895,11.834
81.83,79.35,11.284
81.86,75.665,10.848
81.89,72.121,10.356
81.93,68.611,9.794
81.96,65.207,9.199
81.99,61.943,8.729
82.02,58.749,8.282
82.06,55.696,7.836
82.09,52.608,7.332
82.12,49.344,6.793
82.15,45.624,6.266
82.19,42.22,5.785
82.22,38.675,5.166
82.25,35.867,4.754
82.28,36.394,4.949
82.32,38.85,5.132
82.35,31.726,4.135
82.38,20.636,3.437
82.41,16.074,2.051
82.45,12.178,0.481
82.48,9.3,0.561
82.51,6.703,0.286
82.54,1.369,-0.241
82.58,-1.299,-1.226
82.61,-6.738,-1.581
82.64,-9.546,-1.34
82.67,-13.547,-1.936
82.71,-16.144,-1.054
82.74,-15.758,-1.237
82.77,-22.145,-2.497
82.8,-29.901,-2.692
82.84,-32.007,-2.933
82.87,-33.411,-3.597
82.9,-35.095,-3.906
82.93,-35.622,-4.582
82.97,-37.201,-5.613
83.0,-39.833,-6.713
83.03,-43.518,-7.881
83.06,-46.431,-9.119
83.1,-47.624,-10.757
83.13,-48.466,-12.807
83.16,-50.677,-14.778
83.19,-57.872,-15.431
83.23,-65.312,-14.892
83.26,-70.436,-14.778
83.29,-75.455,-14.652
83.32,-78.333,-14.48
83.36,-80.122,-14.445
83.39,-82.368,-14.56
83.42,-85.597,-14.892
83.45,-89.177,-15.431
83.49,-92.862,-16.026
83.52,-95.634,-16.622
83.55,-97.986,-17.218
83.58,-100.829,-17.79
83.62,-104.233,-18.272
83.65,-107.883,-18.764
83.68,-111.322,-19.314
83.71,-114.165,-19.864
83.75,-116.832,-20.437
83.78,-119.885,-20.883
83.81,-122.798,-21.227
83.84,-125.816,-21.697
83.88,-128.975,-22.235
83.91,-132.063,-22.808
83.94,-135.257,-23.346
83.97,-138.029,-23.747
84.01,-140.627,-24.274
84.04,-143.82,-24.836
84.07,-146.979,-25.328
84.1,-150.032,-25.821
84.14,-153.191,-26.313
84.17,-156.314,-26.817
84.2,-158.42,-27.287
84.23,-161.017,-27.826
84.27,-164.0,-28.1
84.3,-166.176,-28.421
84.33,-168.597,-28.857
84.36,-171.124,-29.28
84.4,-174.002,-29.796
84.43,-177.126,-30.266
84.46,-180.074,-30.781
84.49,-182.32,-31.331
84.53,-184.706,-31.812
84.56,-187.198,-32.121
84.59,-189.444,-32.396
84.62,-191.55,-32.728
84.66,-193.901,-33.164
84.69,-196.393,-33.576
84.72,-198.253,-33.886
84.75,-200.043,-34.16
84.79,-201.833,-34.412
84.82,-203.307,-34.687
84.85,-204.991,-34.985
84.88,-206.886,-35.214
84.92,-208.641,-35.489
84.95,-210.431,-35.856
84.98,-212.396,-36.291
85.01,-214.467,-36.692
85.05,-216.362,-37.036
85.08,-218.152,-37.299
85.11,-219.661,-37.609
85.14,-221.696,-38.01
85.18,-223.732,-38.284
85.21,-225.452,-38.559
85.24,-227.206,-38.857
85.27,-228.961,-39.189
85.31,-230.576,-39.522
85.34,-232.225,-39.831
85.37,-234.015,-40.106
85.4,-235.77,-40.369
85.44,-237.419,-40.713
85.47,-238.998,-41.045
85.5,-240.894,-41.355
85.53,-242.683,-41.561
85.57,-243.877,-41.813
85.6,-245.316,-42.111
85.63,-246.93,-42.363
85.66,-248.509,-42.603
85.7,-250.194,-42.878
85.73,-251.773,-43.153
85.76,-253.177,-43.474
85.79,-254.616,-43.737
85.83,-255.879,-43.921
85.86,-256.967,-44.069
85.89,-258.125,-44.264
85.92,-259.459,-44.493
85.96,-260.582,-44.677
85.99,-261.565,-44.848
86.02,-262.933,-44.997
86.05,-264.162,-45.261
86.09,-265.46,-45.536
86.12,-266.583,-45.731
86.15,-267.706,-45.891
86.18,-268.549,-46.017
86.22,-269.601,-46.246
86.25,-270.795,-46.418
86.28,-271.918,-46.601
86.31,-272.971,-46.704
86.35,-273.567,-46.842
86.38,-274.199,-46.956
86.41,-274.69,-46.991
86.44,-275.006,-46.968
86.48,-275.603,-47.025
86.51,-276.585,-47.117
86.54,-277.007,-47.254
86.57,-277.428,-47.346
86.61,-277.849,-47.392
86.64,-278.41,-47.426
86.67,-278.551,-47.472
86.7,-278.516,-47.46
86.74,-278.796,-47.46
86.77,-279.358,-47.426
86.8,-279.463,-47.472
86.83,-279.358,-47.415
86.87,-279.077,-47.437
86.9,-279.919,-47.415
86.93,-278.761,-47.128
86.96,-277.779,-47.14
87.0,-278.656,-47.014
87.03,-278.586,-47.014
87.06,-278.375,-47.014
87.09,-277.779,-46.91
87.13,-277.147,-46.796
87.16,-276.41,-46.578
87.19,-275.497,-46.349
87.22,-274.76,-46.086
87.26,-274.023,-45.925
87.29,-273.392,-45.776
87.32,-272.795,-45.799
87.35,-274.374,-46.028
87.39,-274.796,-46.005
87.42,-273.848,-46.2
87.45,-273.532,-46.074
87.48,-272.514,-45.822
87.52,-272.163,-45.57
87.55,-271.146,-45.146
87.58,-269.356,-44.883
87.61,-267.847,-44.505
87.64,-265.741,-44.001
87.68,-263.6,-43.52
87.71,-261.705,-43.038
87.74,-259.634,-42.626
87.77,-257.423,-42.26
87.81,-255.528,-41.904
87.84,-253.633,-41.481
87.87,-251.247,-41.091
87.9,-248.439,-40.667
87.94,-245.807,-40.22
87.97,-244.017,-39.797
88.0,-242.438,-39.396
88.03,-240.788,-39.189
88.07,-239.279,-38.983
88.1,-237.173,-38.754
88.13,-235.735,-38.502
88.16,-234.366,-38.136
88.2,-232.401,-37.849
88.23,-230.435,-37.563
88.26,-228.61,-37.242
88.29,-227.242,-36.841
88.33,-225.276,-36.463
88.36,-223.627,-36.245
88.39,-221.837,-35.89
88.42,-219.521,-35.569
88.46,-217.836,-35.134
88.49,-215.765,-34.699
88.52,-213.94,-34.412
88.55,-211.94,-34.046
88.59,-209.799,-33.714
88.62,-208.15,-33.336
88.65,-205.623,-32.855
88.68,-202.991,-32.591
88.72,-201.622,-32.247
88.75,-199.727,-31.846
88.78,-198.007,-31.56
88.81,-196.252,-31.274
88.85,-194.357,-31.022
88.88,-192.181,-30.678
88.91,-189.795,-30.174
88.94,-186.882,-29.635
88.98,-184.46,-29.189
89.01,-182.004,-28.662
89.04,-179.512,-28.249
89.07,-177.652,-27.814
89.11,-175.511,-27.447
89.14,-172.528,-27.081
89.17,-169.545,-26.703
89.2,-166.983,-26.176
89.24,-164.561,-25.649
89.27,-162.0,-25.133
89.3,-158.771,-24.71
89.33,-156.139,-24.354
89.37,-154.279,-23.885
89.4,-151.401,-23.335
89.43,-147.856,-22.911
89.46,-144.978,-22.487
89.5,-142.627,-22.006
89.53,-140.205,-21.525
89.56,-137.749,-21.101
89.59,-134.871,-20.723
89.63,-132.098,-20.379
89.66,-128.905,-19.749
89.69,-124.904,-19.073
89.72,-121.429,-18.409
89.76,-118.692,-17.882
89.79,-113.814,-16.851
89.82,-106.128,-15.854
89.85,-99.986,-14.56
89.89,-95.003,-13.506
89.92,-94.16,-13.254
89.95,-92.3,-12.716
89.98,-88.686,-12.956
90.02,-86.51,-12.67
90.05,-81.245,-12.063
90.08,-77.42,-11.788
90.11,-76.367,-11.204
90.15,-74.472,-10.711
90.18,-71.98,-10.493
90.21,-69.524,-10.241
90.24,-66.295,-9.84
90.28,-63.277,-9.416
90.31,-61.101,-8.878
90.34,-58.749,-8.408
90.37,-56.187,-8.099
90.41,-53.345,-7.664
90.44,-49.94,-7.171
90.47,-46.922,-6.587
90.5,-43.413,-5.945
90.54,-39.763,-5.453
90.57,-36.745,-4.914
90.6,-34.92,-4.628
90.63,-36.324,-4.983
90.67,-37.938,-5.063
90.7,-28.883,-3.872
90.73,-16.951,-3.001
90.76,-13.02,-1.478
90.8,-9.195,-0.069
90.83,-6.633,-0.653
90.86,-5.159,-0.378
90.89,-0.562,0.241
90.93,1.018,1.042
90.96,5.475,1.409
90.99,8.072,1.294
91.02,12.178,2.016
91.06,17.583,1.661
91.09,19.794,1.455
91.12,23.268,1.97
91.15,28.076,2.497
91.19,31.445,2.933
91.22,33.902,3.505
91.25,36.464,4.044
91.28,38.289,4.834
91.32,40.149,6.014
91.35,42.325,7.366
91.38,45.062,8.718
91.41,47.554,10.161
91.45,49.239,11.891
91.48,50.256,14.033
91.51,55.556,15.454
91.54,63.277,15.064
91.58,68.401,14.64
91.61,73.068,14.48
91.64,76.543,14.285
91.67,78.824,14.251
91.71,81.0,14.285
91.74,84.018,14.606
91.77,87.738,15.144
91.8,91.072,15.786
91.84,94.09,16.439
91.87,96.898,16.943
91.9,99.355,17.435
91.93,102.478,18.008
91.97,106.339,18.558
92.0,109.743,19.039
92.03,112.796,19.578
92.06,115.463,20.059
92.1,117.85,20.54
92.13,120.763,20.964
92.16,123.956,21.319
92.19,126.904,21.766
92.23,130.028,22.338
92.26,133.081,22.911
92.29,135.959,23.461
92.32,138.907,23.919
92.36,142.101,24.435
92.39,145.119,24.962
92.42,147.891,25.523
92.45,151.19,26.038
92.49,154.103,26.405
92.52,156.595,26.886
92.55,159.473,27.425
92.58,162.14,27.826
92.62,164.561,28.272
92.65,167.615,28.65
92.68,170.422,29.097
92.71,173.23,29.658
92.75,176.143,30.208
92.78,178.951,30.678
92.81,181.583,31.136
92.84,184.145,31.583
92.88,186.531,31.995
92.91,188.812,32.328
92.94,191.093,32.637
92.97,193.34,32.946
93.01,195.235,33.313
93.04,197.27,33.691
93.07,199.376,34.023
93.1,201.236,34.229
93.14,202.675,34.481
93.17,204.465,34.813
93.2,206.219,35.134
93.23,208.36,35.501
93.27,210.641,35.844
93.3,212.396,36.211
93.33,214.291,36.681
93.36,216.046,36.956
93.4,217.134,37.162
93.43,219.24,37.425
93.46,221.346,37.654
93.49,223.206,38.113
93.53,225.101,38.491
93.56,226.68,38.766
93.59,228.68,39.121
93.62,230.505,39.373
93.66,231.699,39.728
93.69,233.804,40.106
93.72,236.015,40.346
93.75,237.7,40.724
93.79,239.806,41.125
93.82,241.42,41.446
93.85,242.999,41.778
93.88,244.649,41.916
93.92,245.912,42.111
93.95,247.386,42.34
93.98,248.79,42.615
94.01,250.545,42.878
94.05,252.089,43.096
94.08,253.352,43.371
94.11,254.51,43.623
94.14,255.493,43.795
94.18,256.371,43.932
94.21,257.599,44.058
94.24,259.108,44.264
94.27,260.336,44.528
94.31,261.214,44.757
94.34,262.477,44.963
94.37,263.916,45.158
94.4,265.144,45.375
94.44,266.022,45.639
94.47,267.18,45.799
94.5,268.198,45.914
94.53,269.286,46.04
94.57,270.409,46.257
94.6,271.707,46.51
94.63,272.69,46.681
94.66,273.567,46.796
94.7,274.269,46.899
94.73,274.76,46.956
94.76,275.076,47.014
94.79,275.848,47.036
94.83,276.55,47.105
94.86,277.357,47.208
94.89,277.568,47.323
94.92,278.13,47.403
94.96,277.954,47.334
94.99,278.165,47.323
95.02,278.13,47.197
95.05,278.27,47.243
95.09,278.726,47.288
95.12,279.463,47.369
95.15,279.112,47.311
95.18,279.463,47.472
95.22,279.393,47.311
95.25,279.428,47.449
95.28,279.253,47.162
95.31,278.586,47.185
95.35,279.358,47.094
95.38,278.867,47.059
95.41,278.34,47.014
95.44,277.814,46.819
95.48,277.357,46.636
95.51,276.48,46.429
95.54,274.971,46.166
95.57,274.129,45.971
95.61,274.059,45.731
95.64,272.935,45.547
95.67,271.567,45.433
95.7,269.987,45.112
95.74,268.373,44.757
95.77,267.215,44.344
95.8,265.495,43.989
95.83,264.197,43.852
95.87,263.425,43.634
95.9,262.021,43.428
95.93,260.968,43.256
95.96,259.705,42.97
96.0,257.985,42.741
96.03,256.581,42.454
96.06,255.177,42.088
96.09,253.703,41.767
96.13,252.054,41.458
96.16,250.334,41.251
96.19,249.281,40.999
96.22,247.948,40.69
96.26,246.158,40.381
96.29,244.298,40.094
96.32,242.929,39.854
96.35,241.525,39.51
96.39,239.876,39.189
96.42,238.402,38.914
96.45,236.963,38.617
96.48,234.752,38.307
96.52,233.102,37.987
96.55,231.102,37.471
96.58,229.066,37.173
96.61,227.592,36.852
96.65,225.662,36.589
96.68,223.767,36.245
96.71,222.047,35.89
96.74,220.398,35.535
96.78,218.152,35.226
96.81,216.327,34.939
96.84,214.853,34.561
96.87,213.028,34.172
96.91,210.782,33.863
96.94,208.817,33.599
96.97,206.992,33.233
97.0,204.851,32.786
97.04,202.745,32.362
97.07,200.499,32.018
97.1,198.393,31.686
97.13,196.603,31.342
97.17,195.059,30.999
97.2,193.34,30.689
97.23,191.023,30.414
97.26,188.426,30.048
97.3,186.075,29.567
97.33,183.864,29.005
97.36,181.337,28.478
97.39,178.494,28.078
97.43,176.353,27.722
97.46,174.213,27.253
97.49,171.581,26.817
97.52,168.597,26.405
97.56,166.035,26.027
97.59,163.438,25.5
97.62,160.701,24.985
97.65,158.209,24.538
97.69,155.577,24.125
97.72,152.734,23.736
97.75,149.997,23.278
97.78,147.33,22.739
97.82,144.768,22.327
97.85,141.75,21.788
97.88,138.029,21.376
97.91,136.134,20.895
97.95,132.906,20.127
97.98,129.817,19.898
98.01,127.466,19.348
98.04,123.851,18.936
98.08,121.64,18.535
98.11,118.797,17.882
98.14,115.007,17.47
98.17,112.234,17.069
98.21,109.953,16.565
98.24,107.216,16.061
98.27,104.233,15.637
98.3,101.144,15.179
98.34,97.003,14.537
98.37,92.722,13.838
98.4,89.177,13.025
98.43,85.457,12.315
98.47,81.877,11.776
98.5,78.192,11.215
98.53,74.648,10.665
98.56,71.103,10.069
98.6,67.278,9.52
98.63,63.943,9.107
98.66,61.031,8.58
98.69,57.661,8.053
98.73,54.538,7.572
98.76,51.099,7.08
98.79,47.589,6.633
98.82,44.395,6.083
98.86,41.272,5.51
98.89,37.938,4.995
98.92,35.727,4.846
98.95,37.482,5.281
98.99,38.359,4.995
99.02,28.181,3.815
99.05,18.6,3.173
99.08,14.284,1.398
99.12,9.125,0.401
99.15,7.265,0.401
99.18,3.088,0.011
99.21,-0.07,-0.504
99.25,-3.369,-1.569
99.28,-8.458,-1.352
99.31,-11.125,-1.478
99.34,-15.723,-1.581
99.38,-15.512,-0.974
99.41,-17.372,-2.039
99.44,-26.497,-2.795
99.47,-32.498,-2.474
99.51,-33.025,-2.887
99.54,-33.972,-3.746
99.57,-34.955,-4.445
99.6,-36.359,-5.155
99.64,-38.71,-5.9
99.67,-41.798,-6.999
99.7,-44.781,-8.477
99.73,-46.887,-10.104
99.77,-48.537,-11.765
99.8,-49.66,-13.563
99.83,-53.52,-15.202
99.86,-61.803,-15.213
99.9,-67.699,-14.732
99.93,-72.823,-14.652
99.96,-76.859,-14.411
99.99,-78.894,-14.445
100.03,-81.0,-14.56
100.06,-83.983,-14.709
100.09,-87.282,-15.053
100.12,-90.616,-15.648
100.16,-93.88,-16.359
100.19,-96.793,-16.966
100.22,-99.495,-17.47
100.25,-102.513,-17.939
100.29,-105.777,-18.478
100.32,-109.357,-19.096
100.35,-112.831,-19.635
100.38,-115.533,-20.082
100.42,-118.271,-20.574
100.45,-120.973,-20.998
100.48,-123.851,-21.514
100.51,-127.396,-21.949
100.55,-130.87,-22.499
100.58,-134.38,-23.106
100.61,-136.836,-23.656
100.64,-138.942,-24.137
100.68,-141.75,-24.503
100.71,-145.435,-24.916
100.74,-148.242,-25.351
100.77,-150.909,-26.027
100.81,-154.805,-26.588
100.84,-157.297,-26.921
100.87,-159.157,-27.436
100.9,-162.14,-27.883
100.94,-164.597,-28.249
100.97,-167.194,-28.662
101.0,-169.931,-28.971
101.03,-172.318,-29.429
101.07,-175.125,-29.979
101.1,-178.108,-30.529
101.13,-181.091,-31.045
101.16,-183.583,-31.48
101.2,-185.794,-31.927
101.23,-188.11,-32.282
101.26,-190.356,-32.602
101.29,-192.813,-32.958
101.33,-195.445,-33.301
101.36,-197.34,-33.702
101.39,-199.06,-34.103
101.42,-200.78,-34.332
101.46,-202.394,-34.47
101.49,-203.868,-34.676
101.52,-205.553,-34.985
101.55,-207.483,-35.34
101.59,-209.518,-35.684
101.62,-211.589,-36.039
101.65,-213.379,-36.452
101.68,-215.063,-36.83
101.72,-216.853,-37.173
101.75,-218.784,-37.414
101.78,-220.889,-37.746
101.81,-222.855,-38.101
101.85,-224.434,-38.468
101.88,-226.399,-38.857
101.91,-228.751,-39.144
101.94,-230.435,-39.43
101.98,-231.874,-39.797
102.01,-233.524,-40.117
102.04,-235.419,-40.392
102.07,-237.068,-40.621
102.11,-238.612,-40.85
102.14,-239.911,-41.16
102.17,-241.595,-41.458
102.2,-243.14,-41.641
102.24,-244.508,-41.836
102.27,-245.947,-42.099
102.3,-247.491,-42.397
102.33,-248.755,-42.672
102.37,-250.51,-42.958
102.4,-252.335,-43.222
102.43,-253.844,-43.554
102.46,-255.107,-43.852
102.5,-256.265,-44.058
102.53,-257.353,-44.173
102.56,-258.757,-44.367
102.59,-260.056,-44.539
102.63,-260.968,-44.768
102.66,-262.231,-45.009
102.69,-263.776,-45.181
102.72,-264.969,-45.375
102.76,-266.092,-45.639
102.79,-267.004,-45.834
102.82,-268.092,-45.994
102.85,-269.286,-46.109
102.89,-270.409,-46.28
102.92,-271.532,-46.532
102.95,-272.549,-46.739
102.98,-273.286,-46.819
103.02,-273.813,-46.876
103.05,-274.445,-46.91
103.08,-274.725,-46.933
103.11,-275.041,-46.991
103.15,-276.129,-47.071
103.18,-276.831,-47.151
103.21,-277.498,-47.346
103.24,-277.919,-47.426
103.28,-278.41,-47.575
103.31,-278.972,-47.552
103.34,-279.147,-47.586
103.37,-279.463,-47.598
103.41,-279.919,-47.655
103.44,-280.13,-47.621
103.47,-279.849,-47.563
103.5,-279.218,-47.357
103.54,-279.568,-47.415
103.57,-279.674,-47.208
103.6,-277.849,-47.105
103.63,-278.516,-47.094
103.67,-278.972,-46.968
103.7,-278.796,-47.117
103.73,-278.445,-47.071
103.76,-277.849,-47.002
103.8,-277.638,-46.807
103.83,-276.691,-46.532
103.86,-275.427,-46.372
103.89,-275.638,-46.315
103.93,-276.094,-46.28
103.96,-276.164,-46.349
103.99,-275.252,-46.269
104.02,-273.497,-46.04
104.06,-271.777,-45.582
104.09,-270.198,-45.055
104.12,-268.338,-44.493
104.15,-266.267,-44.115
104.19,-264.653,-43.772
104.22,-262.723,-43.394
104.25,-260.968,-43.096
104.28,-259.283,-42.729
104.32,-257.143,-42.408
104.35,-255.142,-42.099
104.38,-253.282,-41.721
104.41,-251.492,-41.355
104.45,-249.843,-41.011
104.48,-247.772,-40.724
104.51,-246.368,-40.576
104.54,-245.245,-40.255
104.58,-243.14,-39.911
104.61,-241.525,-39.671
104.64,-240.472,-39.384
104.67,-238.998,-39.178
104.71,-237.77,-38.972
104.74,-236.156,-38.605
104.77,-235.068,-38.536
104.8,-234.401,-38.262
104.84,-231.979,-38.021
104.87,-230.47,-37.712
104.9,-228.751,-37.173
104.93,-226.575,-36.841
104.97,-224.82,-36.497
105.0,-222.784,-36.154
105.03,-221.31,-35.81
105.06,-219.415,-35.386
105.1,-217.59,-35.157
105.13,-215.765,-34.802
105.16,-213.484,-34.493
105.19,-212.291,-34.172
105.23,-210.431,-33.748
105.26,-208.044,-33.519
105.29,-206.606,-33.278
105.32,-204.851,-32.877
105.36,-202.534,-32.499
105.39,-200.815,-32.144
105.42,-198.955,-31.812
105.45,-196.849,-31.514
105.49,-195.024,-31.182
105.52,-193.304,-30.747
105.55,-191.129,-30.369
105.58,-188.742,-30.071
105.62,-186.426,-29.693
105.65,-184.32,-29.189
105.68,-181.934,-28.662
105.71,-179.372,-28.226
105.75,-176.669,-27.803
105.78,-174.353,-27.47
105.81,-172.353,-27.001
105.84,-169.44,-26.485
105.88,-166.422,-26.13
105.91,-164.105,-25.706
105.94,-161.333,-25.168
105.97,-158.455,-24.687
106.01,-156.174,-24.206
106.04,-153.401,-23.77
106.07,-150.383,-23.404
106.1,-148.032,-22.957
106.14,-145.329,-22.396
106.17,-142.522,-21.995
106.2,-139.96,-21.628
106.23,-137.187,-21.181
106.27,-134.485,-20.723
106.3,-132.133,-20.219
106.33,-128.87,-19.715
106.36,-126.062,-19.417
106.4,-123.219,-18.776
106.43,-119.324,-18.168
106.46,-116.341,-17.607
106.49,-113.252,-17.0
106.53,-110.094,-16.599
106.56,-107.391,-16.118
106.59,-103.882,-15.454
106.62,-99.39,-14.812
106.66,-95.459,-14.216
106.69,-91.844,-13.495
106.72,-88.019,-12.842
106.75,-85.001,-12.257
106.79,-81.807,-11.73
106.82,-78.192,-11.33
106.85,-74.858,-10.906
106.88,-71.91,-10.39
106.92,-68.752,-9.84
106.95,-65.417,-9.416
106.98,-62.154,-8.947
107.01,-59.135,-8.477
107.05,-56.223,-7.939
107.08,-52.959,-7.4
107.11,-49.309,-6.896
107.14,-45.694,-6.369
107.18,-42.044,-5.705
107.21,-38.254,-5.029
107.24,-35.587,-4.674
107.27,-36.499,-4.972
107.31,-38.043,-4.972
107.34,-29.164,-3.723
107.37,-18.074,-3.013
107.4,-14.003,-1.501
107.44,-9.055,-0.263
107.47,-6.668,-0.561
107.5,-3.79,-0.137
107.53,-0.14,0.47
107.57,2.702,1.443
107.6,8.142,1.501
107.63,11.617,1.707
107.66,17.653,1.81
107.7,18.53,0.962
107.73,19.548,1.89
107.76,26.321,2.692
107.79,30.954,2.623
107.83,31.866,2.852
107.86,32.919,3.322
107.89,34.007,3.906
107.92,35.657,4.857
107.96,39.061,5.819
107.99,42.535,6.713
108.02,44.676,7.927
108.05,45.694,9.497
108.09,46.606,11.272
108.12,47.94,13.014
108.15,50.818,14.766
108.18,58.609,15.511
108.22,66.505,15.144
108.25,71.278,14.984
108.28,75.841,14.801
108.31,78.508,14.503
108.35,80.298,14.526
108.38,83.211,14.72
108.41,87.106,15.087
108.44,90.581,15.602
108.48,93.459,16.21
108.51,95.985,16.851
108.54,98.758,17.424
108.57,101.987,17.894
108.61,105.707,18.398
108.64,109.146,18.947
108.67,112.199,19.6
108.7,114.937,20.104
108.74,117.499,20.505
108.77,120.552,20.906
108.8,123.991,21.399
108.83,127.325,21.995
108.87,130.73,22.648
108.9,134.239,23.209
108.93,136.942,23.633
108.96,138.872,24.068
109.0,141.434,24.561
109.03,145.049,24.95
109.06,147.891,25.271
109.09,150.418,25.798
109.13,152.91,26.199
109.16,155.367,26.795
109.19,159.402,27.356
109.22,162.0,27.654
109.26,163.719,28.215
109.29,166.211,28.582
109.32,168.141,28.868
109.35,170.879,29.28
109.39,174.213,29.647
109.42,177.126,30.197
109.45,179.758,30.873
109.48,182.039,31.388
109.52,184.39,31.778
109.55,187.093,32.053
109.58,189.479,32.419
109.61,191.866,32.9
109.65,194.287,33.313
109.68,196.498,33.645
109.71,198.428,33.931
109.74,200.253,34.229
109.78,201.797,34.527
109.81,203.552,34.813
109.84,205.693,35.02
109.87,207.588,35.352
109.91,209.518,35.776
109.94,211.343,36.177
109.97,213.309,36.578
110.0,215.695,36.898
110.04,217.169,37.162
110.07,218.433,37.54
110.1,220.468,37.803
110.13,222.363,38.032
110.17,224.258,38.307
110.2,225.908,38.617
110.23,227.312,38.983
110.26,229.066,39.304
110.3,230.47,39.441
110.33,231.874,39.751
110.36,233.629,39.968
110.39,234.331,40.209
110.43,236.436,40.633
110.46,238.718,40.77
110.49,239.981,41.171
110.52,241.911,41.584
110.56,243.385,41.859
110.59,245.0,42.191
110.62,247.035,42.408
110.65,248.965,42.775
110.69,250.826,43.142
110.72,252.229,43.474
110.75,253.844,43.76
110.78,255.634,43.943
110.82,256.476,44.081
110.85,257.353,44.31
110.88,258.827,44.459
110.91,260.056,44.585
110.95,261.143,44.745
110.98,262.267,44.974
111.01,263.565,45.261
111.04,265.109,45.547
111.08,266.267,45.708
111.11,267.285,45.902
111.14,268.233,46.063
111.17,269.215,46.269
111.21,270.444,46.418
111.24,271.672,46.555
111.27,272.655,46.727
111.3,273.427,46.888
111.34,273.883,47.002
111.37,274.409,47.014
111.4,274.76,46.968
111.43,275.076,46.968
111.47,275.743,47.048
111.5,276.375,47.185
111.53,276.936,47.288
111.56,277.287,47.334
111.6,277.814,47.426
111.63,278.27,47.495
111.66,278.305,47.529
111.69,278.761,47.529
111.73,279.323,47.575
111.76,279.674,47.598
111.79,279.533,47.632
111.82,279.849,47.655
111.86,280.06,47.598
111.89,279.99,47.552
111.92,279.744,47.495
111.95,279.674,47.449
111.99,280.095,47.506
112.02,280.586,47.449
112.05,279.218,47.277
112.08,278.34,47.162
112.12,278.305,46.899
112.15,277.357,46.693
112.18,275.989,46.395
112.21,274.48,46.051
112.25,273.708,45.879
112.28,273.111,45.685
112.31,271.742,45.479
112.34,270.444,45.238
112.38,268.97,44.894
112.41,267.145,44.608
112.44,265.811,44.31
112.47,264.583,43.978
112.51,263.6,43.783
112.54,262.617,43.6
112.57,261.143,43.428
112.6,259.95,43.256
112.64,258.722,42.935
112.67,257.072,42.603
112.7,255.563,42.317
112.73,254.054,42.03
112.77,252.545,41.755
112.8,251.282,41.458
112.83,249.773,41.137
112.86,247.878,40.873
112.9,245.982,40.564
112.93,244.228,40.198
112.96,242.648,39.785
112.99,241.069,39.419
113.03,239.034,39.086
113.06,237.56,38.937
113.09,237.033,38.708
113.12,234.927,38.319
113.16,232.365,38.055
113.19,230.576,37.643
113.22,228.961,37.334
113.25,227.522,37.001
113.29,226.048,36.715
113.32,224.223,36.406
113.35,221.907,36.119
113.38,220.714,35.902
113.42,219.485,35.466
113.45,217.169,35.134
113.48,215.414,34.859
113.51,213.765,34.504
113.55,211.8,34.183
113.58,210.115,33.828
113.61,208.255,33.439
113.64,205.939,33.107
113.68,203.517,32.763
113.71,201.482,32.328
113.74,199.516,31.869
113.77,197.551,31.48
113.81,195.691,31.228
113.84,193.901,30.964
113.87,192.076,30.655
113.9,189.865,30.243
113.94,187.268,29.807
113.97,184.601,29.361
114.0,182.214,28.868
114.03,179.723,28.318
114.07,177.512,27.86
114.1,175.195,27.459
114.13,172.493,27.15
114.16,169.756,26.737
114.2,167.053,26.233
114.23,164.632,25.706
114.26,161.859,25.237
114.29,159.087,24.859
114.33,156.63,24.458
114.36,154.279,23.988
114.39,151.506,23.495
114.42,148.628,23.083
114.46,145.961,22.693
114.49,143.434,22.247
114.52,140.872,21.754
114.55,138.31,21.296
114.59,135.362,20.838
114.62,132.133,20.414
114.65,129.572,19.944
114.68,126.659,19.291
114.72,123.57,18.856
114.75,120.692,18.317
114.78,116.516,17.733
114.81,113.884,17.367
114.85,112.164,16.759
114.88,109.076,16.37
114.91,106.058,16.095
114.94,102.899,15.568
114.98,98.898,14.915
115.01,95.213,14.182
115.04,91.248,13.392
115.07,87.212,12.796
115.11,83.702,12.143
115.14,79.877,11.433
115.17,76.157,10.848
115.2,72.577,10.287
115.24,68.787,9.783
115.27,65.102,9.29
115.3,61.838,8.683
115.33,58.434,8.122
115.37,55.24,7.698
115.4,52.011,7.263
115.43,48.817,6.793
115.46,45.343,6.197
115.5,41.763,5.625
115.53,37.727,5.029
115.56,34.674,4.617
115.59,34.393,4.674
115.63,37.025,4.811
115.66,30.989,3.746
115.69,20.039,3.23
115.72,15.266,2.165
115.76,11.757,0.607
115.79,9.335,0.447
115.82,7.616,0.309
115.85,2.457,0.0
115.89,-0.281,-0.55
115.92,-3.931,-1.695
115.95,-9.476,-1.352
115.98,-12.529,-1.65
116.02,-16.179,-1.558
116.05,-16.881,-1.455
116.08,-22.566,-2.394
116.11,-30.287,-2.486
116.15,-32.849,-2.635
116.18,-33.06,-3.482
116.21,-34.323,-4.204
116.24,-35.692,-4.708
116.28,-37.727,-5.43
116.31,-40.535,-6.507
116.34,-43.658,-7.927
116.37,-45.975,-9.394
116.41,-47.449,-10.94
116.44,-48.572,-12.555
