Trigger_Date,2023/07/06
Trigger_Time,T 12:52:24.444 PDT
Samples_Per_Cycle,512
Microseconds_Per_Sample,32.545
Time (ms),Voltage (V),Current (A)
-16.66,-0.351,-0.298
-16.63,-2.913,-1.569
-16.6,-7.721,-1.272
-16.57,-9.335,-1.478
-16.53,-15.126,-2.188
-16.5,-20.39,-1.799
-16.47,-23.444,-1.879
-16.44,-26.462,-2.257
-16.4,-28.883,-2.795
-16.37,-31.27,-3.368
-16.34,-33.902,-3.838
-16.31,-35.762,-4.525
-16.27,-37.727,-5.705
-16.24,-40.324,-6.919
-16.21,-42.711,-8.088
-16.17,-44.431,-9.394
-16.14,-45.589,-11.215
-16.11,-51.309,-12.246
-16.08,-58.504,-11.902
-16.04,-64.084,-11.994
-16.01,-69.594,-12.143
-15.98,-72.858,-12.292
-15.95,-74.998,-12.406
-15.91,-77.139,-12.509
-15.88,-80.333,-12.807
-15.85,-83.737,-13.254
-15.82,-87.457,-13.804
-15.78,-90.932,-14.354
-15.75,-93.774,-14.938
-15.72,-96.652,-15.499
-15.69,-99.881,-15.923
-15.65,-103.18,-16.29
-15.62,-106.409,-16.759
-15.59,-109.743,-17.332
-15.56,-113.287,-17.871
-15.52,-116.762,-18.329
-15.49,-119.885,-18.81
-15.46,-122.833,-19.36
-15.43,-125.992,-19.818
-15.39,-129.256,-20.219
-15.36,-132.484,-20.62
-15.33,-135.924,-21.239
-15.3,-139.995,-21.903
-15.26,-143.153,-22.338
-15.23,-145.61,-22.762
-15.2,-147.4,-23.014
-15.17,-150.523,-23.541
-15.13,-154.594,-23.839
-15.1,-157.472,-24.297
-15.07,-160.245,-24.847
-15.04,-162.772,-25.351
-15.0,-165.509,-25.798
-14.97,-168.562,-26.084
-14.94,-171.054,-26.451
-14.91,-173.967,-26.978
-14.87,-176.845,-27.367
-14.84,-179.442,-27.826
-14.81,-182.635,-28.295
-14.78,-185.443,-28.799
-14.74,-188.426,-29.303
-14.71,-191.269,-29.647
-14.68,-193.48,-29.945
-14.65,-195.375,-30.3
-14.61,-197.551,-30.598
-14.58,-199.867,-30.861
-14.55,-202.464,-31.148
-14.52,-204.57,-31.503
-14.48,-206.641,-31.961
-14.45,-208.641,-32.224
-14.42,-210.501,-32.488
-14.38,-212.431,-32.786
-14.35,-214.537,-33.141
-14.32,-216.713,-33.496
-14.29,-218.854,-33.805
-14.25,-221.03,-34.149
-14.22,-223.065,-34.561
-14.19,-225.241,-34.939
-14.16,-227.452,-35.214
-14.12,-229.137,-35.443
-14.09,-230.856,-35.799
-14.06,-232.962,-36.062
-14.03,-234.331,-36.268
-13.99,-236.612,-36.658
-13.96,-238.753,-36.887
-13.93,-239.911,-37.265
-13.9,-241.28,-37.414
-13.86,-242.508,-37.54
-13.83,-244.508,-37.792
-13.8,-246.263,-38.113
-13.77,-248.299,-38.502
-13.73,-250.124,-38.72
-13.7,-251.457,-39.041
-13.67,-253.001,-39.304
-13.64,-254.405,-39.499
-13.6,-255.809,-39.671
-13.57,-257.178,-39.831
-13.54,-258.441,-40.049
-13.51,-259.915,-40.312
-13.47,-261.459,-40.53
-13.44,-262.582,-40.69
-13.41,-263.425,-40.896
-13.38,-264.442,-41.034
-13.34,-265.495,-41.148
-13.31,-266.759,-41.251
-13.28,-267.882,-41.469
-13.25,-269.18,-41.744
-13.21,-270.514,-41.996
-13.18,-271.988,-42.168
-13.15,-273.041,-42.363
-13.12,-274.059,-42.58
-13.08,-275.076,-42.695
-13.05,-275.954,-42.786
-13.02,-276.866,-42.901
-12.99,-278.13,-43.084
-12.95,-279.147,-43.256
-12.92,-280.13,-43.382
-12.89,-280.692,-43.474
-12.86,-281.253,-43.554
-12.82,-281.604,-43.565
-12.79,-281.815,-43.554
-12.76,-282.306,-43.554
-12.73,-283.078,-43.623
-12.69,-283.604,-43.714
-12.66,-284.131,-43.852
-12.63,-284.482,-43.863
-12.59,-284.657,-43.898
-12.56,-284.692,-43.875
-12.53,-284.377,-43.772
-12.5,-284.096,-43.669
-12.46,-284.692,-43.634
-12.43,-284.798,-43.646
-12.4,-284.763,-43.737
-12.37,-284.482,-43.646
-12.33,-284.903,-43.737
-12.3,-284.657,-43.543
-12.27,-283.253,-43.439
-12.24,-283.359,-43.325
-12.2,-283.464,-43.176
-12.17,-283.569,-43.256
-12.14,-283.218,-43.187
-12.11,-281.99,-43.05
-12.07,-281.007,-42.809
-12.04,-280.06,-42.5
-12.01,-279.182,-42.317
-11.98,-278.761,-42.202
-11.94,-278.481,-42.111
-11.91,-278.059,-42.088
-11.88,-277.357,-42.088
-11.85,-276.48,-41.939
-11.81,-275.182,-41.629
-11.78,-273.918,-41.309
-11.75,-272.62,-41.022
-11.72,-271.602,-40.885
-11.68,-270.9,-40.667
-11.65,-269.742,-40.45
-11.62,-268.373,-40.278
-11.59,-266.829,-40.037
-11.55,-265.039,-39.693
-11.52,-263.354,-39.304
-11.49,-261.88,-38.972
-11.46,-260.617,-38.766
-11.42,-259.248,-38.536
-11.39,-257.809,-38.319
-11.36,-256.546,-38.113
-11.33,-255.072,-37.929
-11.29,-253.423,-37.712
-11.26,-252.089,-37.368
-11.23,-250.65,-37.059
-11.2,-249.106,-36.864
-11.16,-247.807,-36.681
-11.13,-245.982,-36.326
-11.1,-244.263,-36.005
-11.07,-242.578,-35.673
-11.03,-240.894,-35.409
-11.0,-238.858,-35.02
-10.97,-236.858,-34.687
-10.94,-235.349,-34.367
-10.9,-233.383,-34.115
-10.87,-231.734,-33.886
-10.84,-229.944,-33.496
-10.8,-227.628,-33.129
-10.77,-225.066,-32.797
-10.74,-223.065,-32.465
-10.71,-221.346,-32.03
-10.67,-219.556,-31.732
-10.64,-217.941,-31.526
-10.61,-216.046,-31.285
-10.58,-214.186,-31.01
-10.54,-212.151,-30.598
-10.51,-209.448,-30.22
-10.48,-207.097,-29.899
-10.45,-204.921,-29.406
-10.41,-202.605,-28.948
-10.38,-200.464,-28.639
-10.35,-198.323,-28.352
-10.32,-195.937,-28.02
-10.28,-193.41,-27.551
-10.25,-190.497,-27.058
-10.22,-187.584,-26.669
-10.19,-184.917,-26.245
-10.15,-182.811,-25.775
-10.12,-180.67,-25.374
-10.09,-178.003,-25.076
-10.06,-175.16,-24.767
-10.02,-172.493,-24.32
-9.99,-169.44,-23.782
-9.96,-166.351,-23.312
-9.93,-163.263,-22.819
-9.89,-160.139,-22.292
-9.86,-157.507,-21.777
-9.83,-154.419,-21.319
-9.8,-151.085,-20.941
-9.76,-147.505,-20.402
-9.73,-143.925,-19.795
-9.7,-140.556,-19.234
-9.67,-137.643,-18.844
-9.63,-134.766,-18.398
-9.6,-131.958,-18.02
-9.57,-128.624,-17.412
-9.54,-124.272,-17.034
-9.5,-122.096,-16.702
-9.47,-119.359,-16.061
-9.44,-116.2,-15.717
-9.41,-113.042,-15.247
-9.37,-109.602,-14.904
-9.34,-107.356,-14.48
-9.31,-104.092,-13.85
-9.28,-100.197,-13.426
-9.24,-96.442,-12.842
-9.21,-92.371,-12.212
-9.18,-89.072,-11.593
-9.15,-85.632,-10.974
-9.11,-81.912,-10.608
-9.08,-78.999,-10.207
-9.05,-75.981,-9.714
-9.01,-72.823,-9.359
-8.98,-69.629,-8.958
-8.95,-66.049,-8.534
-8.92,-62.961,-8.019
-8.88,-59.592,-7.423
-8.85,-56.012,-6.965
-8.82,-52.573,-6.495
-8.79,-49.203,-5.945
-8.75,-45.799,-5.418
-8.72,-42.325,-4.926
-8.69,-38.324,-4.422
-8.66,-35.095,-4.067
-8.62,-33.832,-3.757
-8.59,-29.971,-3.024
-8.56,-24.075,-2.726
-8.53,-20.531,-2.085
-8.49,-16.776,-1.214
-8.46,-14.74,-0.653
-8.43,-11.125,-0.344
-8.4,-7.019,-0.183
-8.36,-1.72,-0.034
-8.33,0.386,0.435
-8.3,3.264,1.512
-8.27,7.932,1.329
-8.23,10.88,1.661
-8.2,17.337,1.959
-8.17,21.513,1.833
-8.14,23.549,2.096
-8.1,26.181,2.474
-8.07,29.305,2.589
-8.04,31.024,2.99
-8.01,32.919,3.849
-7.97,35.551,4.697
-7.94,38.289,5.499
-7.91,40.5,6.472
-7.88,42.079,7.893
-7.84,43.869,9.451
-7.81,45.483,10.986
-7.78,49.976,12.223
-7.75,57.837,12.269
-7.71,64.575,12.303
-7.68,70.471,12.441
-7.65,73.56,12.441
-7.62,74.893,12.532
-7.58,76.999,12.613
-7.55,80.649,12.796
-7.52,84.509,13.117
-7.49,87.703,13.758
-7.45,91.002,14.445
-7.42,93.985,14.984
-7.39,96.968,15.454
-7.36,100.056,15.866
-7.32,103.11,16.381
-7.29,106.654,16.874
-7.26,110.269,17.298
-7.23,113.568,17.825
-7.19,116.762,18.421
-7.16,119.955,18.902
-7.13,122.974,19.326
-7.09,126.062,19.692
-7.06,128.905,20.173
-7.03,132.344,20.7
-7.0,136.205,21.227
-6.96,139.995,21.766
-6.93,143.013,22.35
-6.9,145.505,22.865
-6.87,147.926,23.175
-6.83,151.05,23.461
-6.8,154.173,23.828
-6.77,157.227,24.366
-6.74,159.753,24.744
-6.7,162.491,25.225
-6.67,165.825,25.626
-6.64,168.036,26.073
-6.61,170.703,26.565
-6.57,173.651,26.817
-6.54,176.178,27.207
-6.51,179.056,27.78
-6.48,182.39,28.295
-6.44,185.233,28.765
-6.41,188.11,29.177
-6.38,190.567,29.544
-6.35,192.603,29.933
-6.31,195.059,30.208
-6.28,197.34,30.437
-6.25,199.692,30.804
-6.22,202.078,31.239
-6.18,204.465,31.594
-6.15,206.711,31.892
-6.12,208.606,32.202
-6.09,210.255,32.545
-6.05,212.221,32.82
-6.02,214.221,33.038
-5.99,216.397,33.381
-5.96,218.784,33.794
-5.92,220.714,34.183
-5.89,222.995,34.55
-5.86,225.171,34.79
-5.83,226.469,35.088
-5.79,228.365,35.455
-5.76,230.646,35.661
-5.73,232.541,35.959
-5.7,234.506,36.291
-5.66,235.77,36.566
-5.63,237.946,36.979
-5.6,240.016,37.093
-5.57,241.35,37.46
-5.53,242.894,37.689
-5.5,244.157,37.906
-5.47,246.509,38.136
-5.44,248.264,38.365
-5.4,249.773,38.8
-5.37,251.492,39.063
-5.34,252.931,39.224
-5.3,254.124,39.407
-5.27,255.493,39.636
-5.24,257.037,39.854
-5.21,258.652,40.094
-5.17,260.301,40.358
-5.14,261.74,40.633
-5.11,262.828,40.873
-5.08,263.846,41.022
-5.04,264.899,41.057
-5.01,265.881,41.183
-4.98,267.075,41.389
-4.95,268.268,41.572
-4.91,269.566,41.721
-4.88,270.76,41.962
-4.85,272.058,42.282
-4.82,273.427,42.489
-4.78,274.585,42.638
-4.75,275.603,42.775
-4.72,276.55,42.912
-4.69,277.533,43.061
-4.65,278.586,43.165
-4.62,279.779,43.325
-4.59,280.797,43.497
-4.56,281.464,43.623
-4.52,281.85,43.68
-4.49,282.166,43.634
-4.46,282.411,43.611
-4.43,282.797,43.623
-4.39,283.534,43.714
-4.36,284.341,43.829
-4.33,284.903,43.955
-4.3,285.324,44.081
-4.26,285.535,44.127
-4.23,285.815,44.081
-4.2,285.535,43.943
-4.17,285.254,43.898
-4.13,285.605,43.875
-4.1,286.026,43.852
-4.07,285.886,43.863
-4.04,285.675,43.829
-4.0,285.289,43.806
-3.97,285.956,43.84
-3.94,285.184,43.554
-3.91,284.166,43.577
-3.87,284.587,43.417
-3.84,284.833,43.52
-3.81,286.377,43.76
-3.78,287.535,44.069
-3.74,288.658,44.413
-3.71,289.5,44.619
-3.68,290.308,44.7
-3.65,290.659,44.642
-3.61,290.343,44.505
-3.58,289.325,44.173
-3.55,287.991,43.737
-3.51,286.131,43.165
-3.48,283.745,42.638
-3.45,281.358,42.076
-3.42,278.902,41.572
-3.38,276.831,41.137
-3.35,274.901,40.839
-3.32,273.076,40.656
-3.29,270.935,40.346
-3.25,268.478,39.945
-3.22,266.197,39.556
-3.19,264.021,39.201
-3.16,262.442,38.937
-3.12,261.179,38.662
-3.09,259.354,38.433
-3.06,257.669,38.273
-3.03,255.844,37.975
-2.99,254.089,37.654
-2.96,252.405,37.288
-2.93,250.615,37.07
-2.9,249.316,36.898
-2.86,248.088,36.612
-2.83,246.754,36.429
-2.8,245.456,36.222
-2.77,243.912,36.039
-2.73,242.438,35.753
-2.7,240.858,35.409
-2.67,239.104,35.088
-2.64,237.279,34.802
-2.6,235.559,34.458
-2.57,233.629,34.069
-2.54,231.664,33.748
-2.51,229.382,33.416
-2.47,227.031,33.049
-2.44,224.609,32.545
-2.41,222.504,32.133
-2.38,220.644,31.846
-2.34,218.924,31.64
-2.31,217.274,31.377
-2.28,215.379,31.056
-2.25,213.133,30.804
-2.21,211.063,30.495
-2.18,208.641,30.048
-2.15,206.641,29.67
-2.12,204.675,29.28
-2.08,202.324,29.051
-2.05,200.815,28.776
-2.02,198.92,28.387
-1.99,196.112,27.986
-1.95,192.989,27.585
-1.92,190.251,27.035
-1.89,187.689,26.508
-1.86,185.338,26.073
-1.82,182.951,25.764
-1.79,180.635,25.477
-1.76,178.494,25.133
-1.72,175.476,24.618
-1.69,171.686,24.183
-1.66,168.633,23.667
-1.63,165.649,23.049
-1.59,162.666,22.499
-1.56,159.613,22.018
-1.53,156.349,21.662
-1.5,153.612,21.239
-1.46,150.067,20.597
-1.43,145.856,20.07
-1.4,142.592,19.623
-1.37,139.574,18.947
-1.33,131.642,17.458
-1.3,120.447,15.992
-1.27,113.603,14.594
-1.24,110.374,13.609
-1.2,109.883,13.483
-1.17,108.444,13.575
-1.14,105.251,14.056
-1.11,103.987,14.468
-1.07,103.636,14.445
-1.04,102.654,14.423
-1.01,101.671,14.319
-0.98,98.793,13.884
-0.94,96.021,13.483
-0.91,94.196,12.773
-0.88,91.248,12.2
-0.85,88.335,11.845
-0.81,85.843,11.375
-0.78,83.07,10.906
-0.75,80.579,10.551
-0.72,77.806,10.184
-0.68,74.893,9.875
-0.65,72.086,9.382
-0.62,68.646,8.821
-0.59,64.926,8.34
-0.55,61.662,7.824
-0.52,58.188,7.217
-0.49,54.854,6.679
-0.46,51.344,6.163
-0.42,47.835,5.728
-0.39,44.22,5.224
-0.36,40.746,4.651
-0.33,36.99,4.158
-0.29,35.587,4.181
-0.26,33.832,3.608
-0.23,27.304,2.944
-0.2,22.777,2.555
-0.16,18.495,1.546
-0.13,14.529,1.146
-0.1,12.88,0.447
-0.07,8.388,0.011
-0.03,3.51,0.229
0.0,-0.07,0.08
0.03,-1.263,-1.146
0.07,-5.58,-1.386
0.1,-6.703,-1.042
0.13,-9.827,-1.982
0.16,-16.67,-1.97
0.2,-21.303,-1.787
0.23,-25.269,-2.188
0.26,-29.024,-2.761
0.29,-32.007,-3.356
0.33,-34.744,-3.952
0.36,-36.674,-4.651
0.39,-38.219,-5.831
0.42,-40.324,-7.102
0.46,-42.606,-8.294
0.49,-43.974,-9.588
0.52,-46.571,-11.146
0.55,-53.45,-11.467
0.59,-59.03,-11.238
0.62,-63.803,-11.444
0.65,-68.295,-11.57
0.68,-70.647,-11.753
0.72,-72.963,-12.005
0.75,-76.086,-12.177
0.78,-79.105,-12.544
0.81,-82.404,-13.117
0.85,-86.264,-13.689
0.88,-89.703,-14.193
0.91,-92.616,-14.789
0.94,-95.845,-15.35
0.98,-98.969,-15.797
1.01,-102.303,-16.187
1.04,-105.602,-16.633
1.07,-109.006,-17.195
1.11,-112.726,-17.79
1.14,-116.481,-18.272
1.17,-119.499,-18.741
1.2,-122.377,-19.28
1.24,-125.29,-19.704
1.27,-128.378,-20.07
1.3,-131.642,-20.448
1.33,-134.801,-20.929
1.37,-138.275,-21.548
1.4,-141.679,-22.052
1.43,-144.241,-22.384
1.46,-146.277,-22.785
1.5,-149.049,-23.22
1.53,-152.383,-23.576
1.56,-155.717,-24.011
1.59,-159.087,-24.549
1.63,-161.859,-25.145
1.66,-164.667,-25.683
1.69,-167.825,-26.073
1.72,-171.089,-26.508
1.76,-174.213,-27.012
1.79,-177.09,-27.493
1.82,-179.968,-27.974
1.86,-183.302,-28.41
1.89,-186.25,-28.868
1.92,-189.058,-29.349
1.95,-191.55,-29.658
1.99,-193.655,-29.91
2.02,-195.586,-30.185
2.05,-197.621,-30.483
2.08,-199.902,-30.781
2.12,-202.57,-31.067
2.15,-204.71,-31.434
2.18,-206.676,-31.881
2.21,-208.501,-32.167
2.25,-210.255,-32.373
2.28,-212.186,-32.648
2.31,-214.362,-33.026
2.34,-216.643,-33.416
2.38,-218.959,-33.771
2.41,-221.135,-34.115
2.44,-223.1,-34.504
2.47,-225.276,-34.917
2.51,-227.522,-35.169
2.54,-229.172,-35.375
2.57,-231.242,-35.776
2.6,-233.453,-36.062
2.64,-234.822,-36.326
2.67,-236.647,-36.612
2.7,-238.647,-36.818
2.73,-240.016,-37.15
2.77,-242.122,-37.483
2.8,-243.666,-37.597
2.83,-245.421,-37.975
2.86,-247.597,-38.284
2.9,-248.965,-38.582
2.93,-250.545,-38.8
2.96,-251.949,-38.949
2.99,-253.317,-39.212
3.03,-254.686,-39.384
3.06,-255.704,-39.533
3.09,-257.353,-39.739
3.12,-258.511,-39.911
3.16,-259.74,-40.243
3.19,-261.214,-40.381
3.22,-262.161,-40.541
3.25,-263.284,-40.724
3.29,-264.127,-40.885
3.32,-265.25,-41.045
3.35,-266.548,-41.16
3.38,-267.917,-41.412
3.42,-269.321,-41.698
3.45,-270.444,-41.962
3.48,-271.812,-42.099
3.51,-272.971,-42.294
3.55,-274.129,-42.5
3.58,-275.322,-42.66
3.61,-276.34,-42.752
3.65,-277.287,-42.901
3.68,-278.41,-43.061
3.71,-279.323,-43.222
3.74,-280.27,-43.336
3.78,-280.762,-43.382
3.81,-281.323,-43.439
3.84,-281.183,-43.348
3.87,-281.429,-43.382
3.91,-281.92,-43.291
3.94,-282.446,-43.417
3.97,-283.148,-43.52
4.0,-283.534,-43.669
4.04,-283.955,-43.691
4.07,-284.131,-43.726
4.1,-284.236,-43.691
4.13,-283.99,-43.634
4.17,-284.131,-43.588
4.2,-284.447,-43.565
4.23,-284.622,-43.588
4.26,-284.587,-43.623
4.3,-284.587,-43.611
4.33,-284.657,-43.577
4.36,-284.587,-43.52
4.39,-283.99,-43.394
4.43,-283.394,-43.291
4.46,-283.394,-43.153
4.49,-283.359,-43.096
4.52,-283.148,-43.107
4.56,-282.446,-42.958
4.59,-281.288,-42.775
4.62,-280.305,-42.5
4.65,-279.288,-42.26
4.69,-278.937,-42.168
4.72,-279.007,-42.111
4.75,-278.41,-42.065
4.78,-277.638,-42.065
4.82,-276.761,-41.881
4.85,-275.392,-41.595
4.88,-274.164,-41.24
4.91,-272.83,-40.965
4.95,-271.988,-40.839
4.98,-271.286,-40.644
5.01,-270.128,-40.45
5.04,-268.724,-40.255
5.08,-267.18,-40.014
5.11,-265.495,-39.682
5.14,-263.846,-39.304
5.17,-262.267,-38.96
5.21,-261.073,-38.766
5.24,-259.775,-38.548
5.27,-258.441,-38.365
5.3,-257.283,-38.158
5.34,-255.879,-37.987
5.37,-254.335,-37.78
5.4,-253.107,-37.505
5.44,-251.738,-37.196
5.47,-250.264,-37.001
5.5,-248.895,-36.807
5.53,-247.527,-36.532
5.57,-245.912,-36.188
5.6,-244.087,-35.867
5.63,-241.28,-35.398
5.66,-239.069,-35.065
5.7,-237.735,-34.561
5.73,-235.313,-34.172
5.76,-232.787,-33.874
5.79,-230.611,-33.565
5.83,-229.312,-33.244
5.86,-227.452,-32.912
5.89,-224.96,-32.717
5.92,-222.925,-32.442
5.96,-221.205,-32.064
5.99,-219.731,-31.778
6.02,-218.292,-31.56
6.05,-216.537,-31.354
6.09,-214.537,-31.045
6.12,-212.326,-30.609
6.15,-209.624,-30.162
6.18,-207.062,-29.807
6.22,-205.026,-29.361
6.25,-202.921,-28.925
6.28,-200.71,-28.605
6.31,-198.463,-28.352
6.35,-196.217,-28.043
6.38,-193.726,-27.562
6.41,-190.918,-27.092
6.44,-188.11,-26.68
6.48,-185.338,-26.268
6.51,-182.951,-25.775
6.54,-180.495,-25.271
6.57,-177.792,-24.927
6.61,-174.915,-24.607
6.64,-172.037,-24.148
6.67,-168.913,-23.598
6.7,-165.72,-23.117
6.74,-162.666,-22.682
6.77,-159.859,-22.201
6.8,-157.156,-21.72
6.83,-154.243,-21.284
6.87,-150.839,-20.895
6.9,-147.365,-20.414
6.93,-144.031,-19.795
6.96,-140.767,-19.234
7.0,-137.854,-18.856
7.03,-135.046,-18.466
7.06,-132.695,-18.146
7.09,-129.501,-17.538
7.13,-125.044,-17.149
7.16,-121.991,-16.668
7.19,-118.867,-16.026
7.23,-116.025,-15.568
7.26,-113.007,-15.11
7.29,-109.637,-14.801
7.32,-107.111,-14.411
7.36,-103.812,-13.838
7.39,-100.021,-13.38
7.42,-96.512,-12.83
7.45,-92.406,-12.212
7.49,-89.037,-11.627
7.52,-85.773,-11.009
7.55,-82.298,-10.631
7.58,-79.14,-10.207
7.62,-75.911,-9.737
7.65,-72.823,-9.325
7.68,-69.664,-8.924
7.71,-66.295,-8.534
7.75,-63.066,-8.019
7.78,-59.592,-7.446
7.81,-56.117,-6.954
7.84,-52.678,-6.495
7.88,-49.309,-5.957
7.91,-45.869,-5.407
7.94,-42.22,-4.88
7.97,-38.254,-4.387
8.01,-35.025,-4.021
8.04,-33.902,-3.78
8.07,-30.182,-3.036
8.1,-24.146,-2.738
8.14,-20.706,-2.154
8.17,-16.811,-1.249
8.2,-14.775,-0.676
8.23,-11.266,-0.321
8.27,-7.124,-0.206
8.3,-1.72,-0.046
8.33,0.456,0.493
8.36,3.334,1.501
8.4,7.265,1.18
8.43,9.406,1.661
8.46,16.319,2.005
8.49,20.952,1.787
8.53,23.303,2.085
8.56,26.146,2.474
8.59,29.375,2.623
8.62,31.27,2.978
8.66,33.27,3.838
8.69,35.762,4.754
8.72,38.499,5.613
8.75,40.851,6.575
8.79,42.325,7.973
8.82,43.939,9.577
8.85,45.659,11.169
8.88,50.713,12.143
8.92,58.504,12.063
8.95,64.856,12.154
8.98,70.436,12.315
9.01,73.665,12.361
9.05,74.753,12.418
9.08,76.823,12.613
9.11,80.859,12.807
9.15,84.509,13.105
9.18,87.598,13.758
9.21,91.037,14.423
9.24,93.95,14.972
9.28,97.038,15.465
9.31,100.267,15.877
9.34,103.285,16.381
9.37,106.619,16.885
9.41,110.304,17.321
9.44,113.708,17.79
9.47,116.867,18.398
9.5,120.026,18.89
9.54,123.184,19.337
9.57,126.378,19.704
9.6,129.361,20.196
9.63,132.695,20.746
9.67,136.591,21.284
9.7,139.995,21.731
9.73,142.943,22.304
9.76,145.294,22.716
9.8,147.961,23.152
9.83,151.611,23.404
9.86,154.243,23.805
9.89,157.086,24.354
9.93,159.753,24.755
9.96,162.561,25.145
9.99,165.298,25.523
10.02,168.001,25.993
10.06,170.563,26.428
10.09,173.405,26.783
10.12,176.248,27.15
10.15,178.951,27.7
10.19,182.179,28.307
10.22,185.373,28.742
10.25,188.005,29.12
10.28,190.567,29.532
10.32,192.743,29.888
10.35,194.989,30.197
10.38,197.27,30.38
10.41,199.446,30.701
10.45,201.938,31.136
10.48,204.289,31.503
10.51,206.57,31.812
10.54,208.501,32.098
10.58,209.975,32.442
10.61,212.01,32.763
10.64,214.291,33.003
10.67,216.573,33.37
10.71,218.924,33.805
10.74,220.889,34.195
10.77,222.995,34.55
10.8,225.206,34.756
10.84,226.469,35.008
10.87,228.329,35.386
10.9,230.576,35.558
10.94,232.471,35.89
10.97,234.647,36.234
11.0,236.261,36.578
11.03,238.051,36.944
11.07,240.121,37.162
11.1,241.631,37.402
11.13,243.42,37.746
11.16,245.07,37.964
11.2,246.684,38.17
11.23,248.369,38.365
11.26,249.808,38.662
11.29,251.527,38.972
11.33,253.142,39.144
11.36,254.124,39.315
11.39,255.318,39.556
11.42,256.827,39.739
11.46,258.441,39.991
11.49,260.126,40.243
11.52,261.565,40.53
11.55,262.758,40.793
11.59,263.881,40.965
11.62,264.864,41.022
11.65,265.846,41.137
11.68,267.075,41.355
11.72,268.443,41.549
11.75,269.742,41.733
11.78,271.075,41.962
11.81,272.444,42.26
11.85,273.813,42.5
11.88,274.831,42.638
11.91,275.848,42.775
11.94,276.761,42.878
11.98,277.744,43.016
12.01,278.831,43.142
12.04,279.919,43.279
12.07,280.902,43.451
12.11,281.569,43.6
12.14,282.06,43.646
12.17,282.411,43.634
12.2,282.692,43.6
12.24,283.113,43.623
12.27,283.71,43.703
12.3,284.482,43.783
12.33,284.868,43.886
12.37,285.289,43.966
12.4,285.394,44.024
12.43,285.605,43.955
12.46,285.359,43.817
12.5,284.973,43.772
12.53,285.149,43.714
12.56,285.5,43.714
12.59,285.57,43.703
12.63,285.64,43.783
12.66,284.973,43.634
12.69,284.763,43.691
12.73,285.324,43.508
12.76,285.254,43.634
12.79,286.588,43.829
12.82,287.149,43.989
12.86,287.956,44.184
12.89,287.711,44.104
12.92,286.763,43.943
12.95,285.114,43.462
12.99,283.078,42.878
13.02,281.183,42.328
13.05,279.884,41.962
13.08,278.586,41.71
13.12,277.287,41.549
13.15,275.743,41.309
13.18,273.602,41.08
13.21,271.812,40.828
13.25,270.268,40.461
13.28,268.654,40.152
13.31,267.566,39.968
13.34,266.302,39.808
13.38,264.864,39.648
13.41,263.67,39.384
13.44,262.091,39.121
13.47,260.722,38.926
13.51,259.599,38.674
13.54,258.441,38.479
13.57,257.388,38.273
13.6,256.23,38.158
13.64,255.353,38.078
13.67,254.581,37.872
13.7,253.317,37.631
13.73,251.949,37.471
13.77,250.826,37.276
13.8,249.702,37.001
13.83,248.158,36.646
13.86,246.719,36.44
13.9,245.21,36.131
13.93,243.069,35.799
13.96,240.788,35.249
13.99,238.226,34.859
14.03,236.752,34.493
14.06,234.612,34.126
14.09,232.541,33.828
14.12,230.4,33.439
14.16,228.294,33.267
14.19,226.926,33.038
14.22,225.136,32.694
14.25,223.065,32.396
14.29,221.275,32.11
14.32,219.485,31.846
14.35,217.766,31.537
14.38,216.151,31.205
14.42,214.326,30.941
14.45,212.326,30.689
14.48,210.185,30.346
14.52,207.939,29.888
14.55,205.518,29.475
14.58,203.096,29.131
14.61,200.78,28.731
14.65,198.499,28.284
14.68,196.358,27.906
14.71,193.866,27.574
14.74,191.199,27.218
14.78,188.567,26.737
14.81,185.829,26.256
14.84,182.986,25.855
14.87,180.389,25.431
14.91,177.933,24.95
14.94,175.266,24.526
14.97,172.212,24.125
15.0,169.089,23.736
15.04,166.106,23.255
15.07,163.193,22.682
15.1,159.964,22.166
15.13,156.841,21.766
15.17,153.682,21.273
15.2,150.699,20.78
15.23,147.575,20.253
15.26,144.312,19.898
15.3,140.837,19.337
15.33,137.854,18.925
15.36,135.573,18.386
15.39,131.923,18.02
15.43,129.256,17.768
15.46,125.992,17.137
15.49,122.342,16.691
15.52,119.885,16.255
15.56,116.727,15.728
15.59,113.042,15.328
15.62,110.585,14.835
15.65,107.356,14.297
15.69,103.987,13.999
15.72,100.829,13.46
15.75,97.108,12.865
15.78,93.739,12.349
15.82,90.3,11.845
15.85,86.861,11.375
15.88,83.667,10.86
15.91,80.579,10.367
15.95,77.315,9.989
15.98,74.156,9.6
16.01,70.857,9.107
16.04,67.418,8.546
16.08,63.698,8.042
16.11,60.223,7.572
16.14,56.854,7.022
16.17,53.485,6.472
16.21,50.011,5.98
16.24,46.291,5.51
16.27,42.606,5.029
16.31,39.201,4.445
16.34,36.394,4.124
16.37,35.095,3.964
16.4,30.428,3.173
16.44,24.426,2.784
16.47,20.952,1.982
16.5,16.46,1.214
16.53,13.687,0.848
16.57,10.704,0.195
16.6,5.51,-0.069
16.63,0.597,0.149
16.66,-0.737,-0.813
16.7,-5.229,-1.661
16.73,-8.879,-1.123
16.76,-11.301,-1.707
16.79,-16.881,-2.028
16.83,-20.671,-1.89
16.86,-24.005,-1.993
16.89,-27.409,-2.28
16.92,-29.691,-2.83
16.96,-32.077,-3.586
16.99,-34.428,-4.067
17.02,-35.587,-4.674
17.05,-36.99,-5.716
17.09,-39.096,-6.908
17.12,-41.518,-8.042
17.15,-43.694,-9.245
17.18,-45.413,-10.894
17.22,-50.923,-11.948
17.25,-57.942,-11.753
17.28,-64.33,-12.04
17.31,-70.717,-12.212
17.35,-72.717,-12.338
17.38,-74.051,-12.475
17.41,-76.157,-12.326
17.44,-79.14,-12.532
17.48,-83.316,-13.036
17.51,-87.422,-13.678
17.54,-90.826,-14.354
17.57,-93.704,-14.972
17.61,-96.442,-15.534
17.64,-99.741,-16.015
17.67,-103.25,-16.381
17.7,-106.83,-16.817
17.74,-110.129,-17.367
17.77,-113.603,-17.974
17.8,-117.148,-18.421
17.83,-120.131,-18.856
17.87,-122.974,-19.348
17.9,-126.308,-19.852
17.93,-129.712,-20.276
17.96,-133.292,-20.769
18.0,-136.731,-21.307
18.03,-140.17,-21.995
18.06,-143.399,-22.464
18.1,-145.996,-22.797
18.13,-148.207,-23.071
18.16,-151.085,-23.564
18.19,-154.91,-23.954
18.23,-157.928,-24.366
18.26,-160.631,-24.859
18.29,-163.017,-25.363
18.32,-165.755,-25.821
18.36,-168.773,-26.142
18.39,-171.475,-26.485
18.42,-174.142,-26.966
18.45,-176.845,-27.379
18.49,-179.442,-27.837
18.52,-182.811,-28.307
18.55,-185.724,-28.765
18.58,-188.426,-29.303
18.62,-191.129,-29.658
18.65,-193.375,-29.922
18.68,-195.375,-30.243
18.71,-197.586,-30.563
18.75,-199.832,-30.873
18.78,-202.359,-31.171
18.81,-204.64,-31.491
18.84,-206.676,-31.95
18.88,-208.817,-32.282
18.91,-210.677,-32.534
18.94,-212.502,-32.797
18.97,-214.537,-33.129
19.01,-216.713,-33.519
19.04,-219.24,-33.874
19.07,-221.486,-34.195
19.1,-223.381,-34.596
19.14,-225.452,-34.997
19.17,-227.452,-35.214
19.2,-228.891,-35.398
19.23,-230.576,-35.684
19.27,-232.646,-35.97
19.3,-234.261,-36.222
19.33,-236.366,-36.6
19.36,-238.647,-36.852
19.4,-239.876,-37.231
19.43,-241.315,-37.46
19.46,-242.438,-37.54
19.49,-244.263,-37.757
19.53,-245.982,-38.01
19.56,-247.772,-38.399
19.59,-249.562,-38.628
19.62,-251.001,-38.88
19.66,-252.37,-39.155
19.69,-253.773,-39.373
19.72,-255.072,-39.556
19.75,-256.686,-39.751
19.79,-258.231,-40.014
19.82,-259.81,-40.324
19.85,-261.424,-40.61
19.89,-262.723,-40.747
19.92,-263.67,-40.942
19.95,-264.758,-41.103
19.98,-265.811,-41.251
20.02,-267.215,-41.355
20.05,-268.338,-41.515
20.08,-269.601,-41.801
20.11,-270.865,-42.03
20.15,-272.339,-42.237
20.18,-273.462,-42.397
20.21,-274.409,-42.615
20.24,-275.357,-42.752
20.28,-276.234,-42.809
20.31,-276.936,-42.855
20.34,-278.059,-43.027
20.37,-279.077,-43.176
20.41,-280.06,-43.359
20.44,-280.727,-43.439
20.47,-281.183,-43.531
20.5,-281.604,-43.554
20.54,-281.92,-43.577
20.57,-282.481,-43.588
20.6,-283.289,-43.68
20.63,-283.955,-43.795
20.67,-284.482,-43.932
20.7,-284.903,-43.955
20.73,-284.938,-43.943
20.76,-284.973,-43.898
20.8,-284.447,-43.772
20.83,-284.096,-43.646
20.86,-284.692,-43.611
20.89,-284.868,-43.623
20.93,-285.008,-43.726
20.96,-284.727,-43.669
20.99,-284.868,-43.772
21.02,-284.938,-43.577
21.06,-283.359,-43.439
21.09,-283.499,-43.371
21.12,-283.78,-43.187
21.15,-283.64,-43.291
21.19,-283.464,-43.222
21.22,-282.06,-43.061
21.25,-280.972,-42.821
21.28,-280.2,-42.489
21.32,-279.253,-42.282
21.35,-278.867,-42.202
21.38,-278.516,-42.111
21.41,-278.059,-42.088
21.45,-277.357,-42.03
21.48,-276.34,-41.904
21.51,-275.322,-41.664
21.54,-274.199,-41.332
21.58,-272.865,-41.068
21.61,-271.777,-40.908
21.64,-270.9,-40.69
21.68,-269.812,-40.45
21.71,-268.478,-40.243
21.74,-266.864,-39.991
21.77,-265.004,-39.659
21.81,-263.319,-39.293
21.84,-261.775,-38.926
21.87,-260.406,-38.708
21.9,-259.283,-38.536
21.94,-257.809,-38.307
21.97,-256.476,-38.113
22.0,-255.037,-37.895
22.03,-253.317,-37.666
22.07,-251.913,-37.391
22.1,-250.826,-37.059
22.13,-248.93,-36.795
22.16,-247.316,-36.612
22.2,-245.561,-36.222
22.23,-243.526,-35.879
22.26,-242.087,-35.524
22.29,-240.086,-35.214
22.33,-238.261,-34.962
22.36,-236.647,-34.607
22.39,-234.717,-34.286
22.42,-232.471,-33.977
22.46,-230.505,-33.725
22.49,-229.277,-33.404
22.52,-227.557,-33.072
22.55,-225.241,-32.809
22.59,-223.1,-32.545
22.62,-221.451,-32.167
22.65,-219.801,-31.835
22.68,-218.257,-31.594
22.72,-216.397,-31.377
22.75,-214.467,-31.079
22.78,-212.572,-30.678
22.81,-209.904,-30.231
22.85,-207.167,-29.876
22.88,-204.921,-29.418
22.91,-202.745,-28.937
22.94,-200.464,-28.57
22.98,-198.183,-28.307
23.01,-195.937,-28.009
23.04,-193.34,-27.574
23.07,-190.637,-27.081
23.11,-187.865,-26.68
23.14,-185.092,-26.29
23.17,-182.916,-25.867
23.2,-180.846,-25.397
23.24,-178.143,-25.065
23.27,-175.301,-24.79
23.3,-172.423,-24.32
23.33,-169.264,-23.736
23.37,-166.106,-23.232
23.4,-163.123,-22.751
23.43,-159.999,-22.27
23.47,-157.367,-21.788
23.5,-154.384,-21.284
23.53,-150.804,-20.918
23.56,-147.365,-20.414
23.6,-143.89,-19.795
23.63,-140.521,-19.222
23.66,-137.468,-18.787
23.69,-134.029,-18.317
23.73,-131.572,-18.008
23.76,-128.835,-17.39
23.79,-124.518,-17.011
23.82,-121.5,-16.656
23.86,-118.517,-16.026
23.89,-115.709,-15.602
23.92,-112.936,-15.156
23.95,-109.848,-14.881
23.99,-107.04,-14.48
24.02,-103.671,-13.896
24.05,-99.846,-13.369
24.08,-96.231,-12.819
24.12,-92.546,-12.235
24.15,-89.212,-11.627
24.18,-85.703,-11.043
24.21,-82.228,-10.642
24.25,-79.105,-10.23
24.28,-75.946,-9.783
24.31,-72.858,-9.336
24.34,-69.734,-8.935
24.38,-66.225,-8.523
24.41,-62.785,-8.019
24.44,-59.416,-7.423
24.47,-55.942,-6.919
24.51,-52.467,-6.438
24.54,-48.888,-5.934
24.57,-45.554,-5.384
24.6,-41.974,-4.846
24.64,-38.043,-4.365
24.67,-34.85,-4.009
24.7,-33.551,-3.757
24.73,-29.936,-3.024
24.77,-24.11,-2.704
24.8,-20.425,-2.131
24.83,-16.635,-1.283
24.86,-14.565,-0.642
24.9,-10.95,-0.241
24.93,-5.791,-0.103
24.96,-0.562,0.011
24.99,1.088,1.02
25.03,5.756,1.569
25.06,8.072,1.146
25.09,10.95,1.879
25.12,17.337,1.799
25.16,20.706,1.707
25.19,23.338,2.096
25.22,26.006,2.44
25.25,28.778,2.623
25.29,31.024,2.967
25.32,33.06,3.712
25.35,35.516,4.674
25.39,38.394,5.556
25.42,40.64,6.472
25.45,42.184,7.813
25.48,43.834,9.416
25.52,45.343,11.055
25.55,49.87,12.315
25.58,57.907,12.315
25.61,64.751,12.406
25.65,70.892,12.567
25.68,73.981,12.509
25.71,74.998,12.567
25.74,77.104,12.658
25.78,80.859,12.819
25.81,84.579,13.117
25.84,87.738,13.735
25.87,90.967,14.4
25.91,93.81,14.961
25.94,97.003,15.465
25.97,100.232,15.854
26.0,103.145,16.37
26.04,106.619,16.908
26.07,110.304,17.332
26.1,113.533,17.813
26.13,116.867,18.398
26.17,119.991,18.902
26.2,123.149,19.383
26.23,126.237,19.726
26.26,129.221,20.185
26.3,132.555,20.735
26.33,136.45,21.296
26.36,140.1,21.777
26.39,143.048,22.327
26.43,145.364,22.785
26.46,147.926,23.175
26.49,150.909,23.381
26.52,154.279,23.873
26.56,157.893,24.377
26.59,160.21,24.893
26.62,162.877,25.363
26.65,165.649,25.66
26.69,168.246,26.107
26.72,171.054,26.543
26.75,174.002,26.898
26.78,176.424,27.218
26.82,179.091,27.768
26.85,182.214,28.295
26.88,185.233,28.776
26.91,188.145,29.154
26.95,190.602,29.498
26.98,192.673,29.933
27.01,194.954,30.243
27.04,197.235,30.449
27.08,199.481,30.758
27.11,201.727,31.148
27.14,203.973,31.537
27.18,206.395,31.824
27.21,208.43,32.11
27.24,209.904,32.465
27.27,211.835,32.797
27.31,213.87,33.038
27.34,216.292,33.37
27.37,218.748,33.782
27.4,220.749,34.229
27.44,223.1,34.619
27.47,225.381,34.871
27.5,226.855,35.134
27.53,228.505,35.501
27.57,230.751,35.707
27.6,232.611,35.97
27.63,234.892,36.326
27.66,236.261,36.612
27.7,238.121,37.036
27.73,240.297,37.185
27.76,241.736,37.471
27.79,243.385,37.735
27.83,244.614,37.975
27.86,246.825,38.25
27.89,248.72,38.41
27.92,250.053,38.8
27.96,251.738,39.086
27.99,253.036,39.235
28.02,254.124,39.407
28.05,255.423,39.59
28.09,256.827,39.785
28.12,258.371,40.037
28.15,260.02,40.278
28.18,261.53,40.564
28.22,262.688,40.828
28.25,263.67,40.999
28.28,264.758,41.068
28.31,265.776,41.171
28.35,266.934,41.412
28.38,268.338,41.618
28.41,269.707,41.801
28.44,271.04,42.03
28.48,272.409,42.328
28.51,273.637,42.546
28.54,274.62,42.672
28.57,275.673,42.775
28.61,276.55,42.901
28.64,277.638,43.061
28.67,278.796,43.21
28.7,280.095,43.394
28.74,281.113,43.588
28.77,281.85,43.726
28.8,282.341,43.795
28.83,282.692,43.76
28.87,282.797,43.669
28.9,283.078,43.691
28.93,283.71,43.714
28.97,284.412,43.817
29.0,284.938,43.909
29.03,285.219,44.024
29.06,285.429,44.069
29.1,285.605,44.047
29.13,285.359,43.898
29.16,284.938,43.829
29.19,285.219,43.795
29.23,285.57,43.783
29.26,285.5,43.783
29.29,285.359,43.783
29.32,284.938,43.714
29.36,285.324,43.772
29.39,284.833,43.474
29.42,283.955,43.554
29.45,285.219,43.531
29.49,285.254,43.588
29.52,285.464,43.703
29.55,284.552,43.462
29.58,282.903,43.279
29.62,281.85,42.855
29.65,280.446,42.454
29.68,279.358,42.156
29.71,278.445,41.95
29.75,277.357,41.836
29.78,276.375,41.698
29.81,275.076,41.446
29.84,273.427,41.229
29.88,272.093,41.011
29.91,270.795,40.724
29.94,269.742,40.472
29.97,268.9,40.312
30.01,267.776,40.209
30.04,266.689,40.094
30.07,265.671,39.877
30.1,264.372,39.59
30.14,262.898,39.361
30.17,261.6,39.086
30.2,260.371,38.823
30.23,259.178,38.559
30.27,257.845,38.388
30.3,256.792,38.262
30.33,255.774,38.055
30.36,254.195,37.746
30.4,252.405,37.494
30.43,250.966,37.253
30.46,249.738,36.956
30.49,247.878,36.543
30.53,246.298,36.348
30.56,244.684,36.005
30.59,242.227,35.695
30.62,240.051,35.191
30.66,237.84,34.802
30.69,236.717,34.55
30.72,234.962,34.275
30.76,233.067,34.057
30.79,231.172,33.714
30.82,229.242,33.53
30.85,227.733,33.301
30.89,226.013,32.969
30.92,224.118,32.602
30.95,222.153,32.293
30.98,220.152,31.984
31.02,218.362,31.652
31.05,216.537,31.262
31.08,214.642,30.976
31.11,212.431,30.678
31.15,209.904,30.288
31.18,207.483,29.819
31.21,205.096,29.383
31.24,202.605,29.017
31.28,200.499,28.708
31.31,198.639,28.341
31.34,196.217,27.952
31.37,193.34,27.608
31.41,190.848,27.207
31.44,188.075,26.691
31.47,185.443,26.245
31.5,182.916,25.832
31.54,180.495,25.466
31.57,178.038,25.053
31.6,175.371,24.641
31.63,172.318,24.194
31.67,169.124,23.816
31.7,166.492,23.346
31.73,163.649,22.762
31.76,160.455,22.292
31.8,157.367,21.892
31.83,154.138,21.41
31.86,151.155,20.895
31.89,147.821,20.299
31.93,143.961,19.83
31.96,140.591,19.337
31.99,137.468,18.764
32.02,134.625,18.295
32.06,131.642,17.882
32.09,128.098,17.516
32.12,125.114,17.115
32.15,122.202,16.542
32.19,119.359,16.233
32.22,116.621,15.832
32.25,113.042,15.373
32.28,110.234,14.915
32.32,107.497,14.377
32.35,103.952,13.987
32.38,100.548,13.483
32.41,96.758,12.819
32.45,92.897,12.2
32.48,89.317,11.685
32.51,85.913,11.169
32.55,82.544,10.654
32.58,79.456,10.184
32.61,76.297,9.806
32.64,73.138,9.462
32.68,70.085,9.027
32.71,66.681,8.489
32.74,63.066,8.007
32.77,59.802,7.549
32.81,56.328,6.999
32.84,53.029,6.472
32.87,49.625,5.934
32.9,45.764,5.453
32.94,42.114,4.96
32.97,38.464,4.353
33.0,35.481,4.009
33.03,34.113,3.803
33.07,29.375,3.013
33.1,23.514,2.658
33.13,20.39,1.89
33.16,16.74,1.157
33.2,14.459,0.871
33.23,12.038,0.367
33.26,7.475,-0.103
33.29,1.299,0.023
33.33,-0.702,-0.859
33.36,-5.685,-1.821
33.39,-9.721,-1.1
33.42,-11.23,-1.512
33.46,-15.933,-1.936
33.49,-19.337,-1.799
33.52,-22.672,-1.936
33.55,-26.216,-2.108
33.59,-28.252,-2.532
33.62,-30.603,-3.299
33.65,-33.551,-3.803
33.68,-35.727,-4.387
33.72,-37.762,-5.441
33.75,-40.149,-6.736
33.78,-42.29,-8.019
33.81,-44.395,-9.302
33.85,-45.448,-10.94
33.88,-49.344,-12.555
33.91,-57.381,-12.532
33.94,-64.049,-12.406
33.98,-70.366,-12.567
34.01,-73.875,-12.59
34.04,-75.595,-12.716
34.07,-77.525,-12.635
34.11,-80.473,-12.807
34.14,-84.088,-13.208
34.17,-87.773,-13.804
34.2,-91.283,-14.377
34.24,-94.16,-14.938
34.27,-96.793,-15.511
34.3,-99.951,-15.98
34.34,-103.215,-16.37
34.37,-106.654,-16.794
34.4,-109.988,-17.309
34.43,-113.322,-17.916
34.47,-116.867,-18.386
34.5,-119.991,-18.833
34.53,-122.939,-19.337
34.56,-125.992,-19.841
34.6,-129.256,-20.276
34.63,-132.8,-20.712
34.66,-136.134,-21.204
34.69,-139.539,-21.903
34.73,-143.048,-22.384
34.76,-145.68,-22.762
34.79,-147.926,-23.071
34.82,-150.804,-23.553
34.86,-154.454,-23.942
34.89,-157.367,-24.354
34.92,-160.28,-24.824
34.95,-162.877,-25.34
34.99,-165.649,-25.844
35.02,-168.562,-26.164
35.05,-171.124,-26.485
35.08,-173.932,-26.932
35.12,-176.74,-27.379
35.15,-179.407,-27.86
35.18,-182.811,-28.318
35.21,-185.619,-28.788
35.25,-188.496,-29.349
35.28,-191.234,-29.704
35.31,-193.48,-29.991
35.34,-195.515,-30.3
35.38,-197.621,-30.621
35.41,-199.973,-30.953
35.44,-202.71,-31.251
35.47,-204.816,-31.537
35.51,-206.641,-31.972
35.54,-208.606,-32.282
35.57,-210.606,-32.545
35.6,-212.677,-32.809
35.64,-214.607,-33.164
35.67,-216.818,-33.565
35.7,-219.064,-33.92
35.73,-221.381,-34.218
35.77,-223.311,-34.584
35.8,-225.381,-35.008
35.83,-227.487,-35.272
35.86,-229.137,-35.478
35.9,-230.962,-35.787
35.93,-233.067,-36.074
35.96,-234.366,-36.314
35.99,-236.472,-36.681
36.03,-238.647,-36.864
36.06,-239.841,-37.253
36.09,-241.42,-37.471
36.13,-242.368,-37.574
36.16,-244.438,-37.826
36.19,-246.474,-38.09
36.22,-248.228,-38.559
36.26,-250.264,-38.846
36.29,-251.668,-39.086
36.32,-253.177,-39.373
36.35,-254.546,-39.556
36.39,-255.634,-39.693
36.42,-257.072,-39.865
36.45,-258.511,-40.014
36.48,-259.845,-40.312
36.52,-261.53,-40.587
36.55,-262.653,-40.724
36.58,-263.53,-40.919
36.61,-264.513,-41.08
36.65,-265.601,-41.24
36.68,-266.899,-41.343
36.71,-268.092,-41.515
36.74,-269.426,-41.79
36.78,-270.654,-42.065
36.81,-272.198,-42.282
36.84,-273.286,-42.408
36.87,-274.164,-42.615
36.91,-275.076,-42.752
36.94,-275.883,-42.809
36.97,-276.796,-42.89
37.0,-277.989,-43.05
37.04,-279.077,-43.245
37.07,-280.095,-43.417
37.1,-280.692,-43.508
37.13,-281.183,-43.588
37.17,-281.604,-43.6
37.2,-281.85,-43.611
37.23,-282.341,-43.6
37.26,-283.043,-43.657
37.3,-283.675,-43.772
37.33,-284.166,-43.898
37.36,-284.552,-43.932
37.39,-284.798,-43.943
37.43,-284.833,-43.932
37.46,-284.657,-43.852
37.49,-284.271,-43.737
37.52,-284.482,-43.669
37.56,-284.587,-43.623
37.59,-284.763,-43.68
37.62,-284.447,-43.634
37.65,-284.657,-43.703
37.69,-284.552,-43.508
37.72,-282.938,-43.394
37.75,-283.043,-43.313
37.78,-283.324,-43.187
37.82,-283.499,-43.291
37.85,-283.253,-43.222
37.88,-281.815,-43.073
37.92,-280.727,-42.821
37.95,-279.884,-42.477
37.98,-279.007,-42.282
38.01,-278.516,-42.168
38.05,-278.094,-42.099
38.08,-277.779,-42.065
38.11,-277.182,-42.03
38.14,-276.234,-41.962
38.18,-275.182,-41.721
38.21,-274.023,-41.366
38.24,-272.795,-41.091
38.27,-271.602,-40.919
38.31,-270.689,-40.713
38.34,-269.601,-40.472
38.37,-268.268,-40.232
38.4,-266.653,-40.003
38.44,-264.969,-39.705
38.47,-263.319,-39.35
38.5,-261.845,-38.983
38.53,-260.406,-38.754
38.57,-259.073,-38.548
38.6,-257.704,-38.33
38.63,-256.441,-38.113
38.66,-255.002,-37.906
38.7,-253.142,-37.677
38.73,-251.738,-37.437
38.76,-250.685,-37.07
38.79,-248.895,-36.83
38.83,-247.527,-36.692
38.86,-245.912,-36.348
38.89,-244.087,-36.051
38.92,-242.683,-35.695
38.96,-240.578,-35.363
38.99,-238.718,-35.1
39.02,-237.068,-34.71
39.05,-235.138,-34.355
39.09,-232.646,-34.012
39.12,-230.716,-33.771
39.15,-229.523,-33.45
39.18,-227.768,-33.107
39.22,-225.381,-32.843
39.25,-223.135,-32.568
39.28,-221.346,-32.19
39.31,-219.766,-31.824
39.35,-218.222,-31.571
39.38,-216.257,-31.342
39.41,-214.221,-31.067
39.44,-212.221,-30.655
39.48,-209.624,-30.185
39.51,-206.992,-29.876
39.54,-204.886,-29.441
39.57,-202.675,-29.005
39.61,-200.569,-28.65
39.64,-198.393,-28.375
39.67,-196.077,-28.078
39.71,-193.304,-27.619
39.74,-190.532,-27.081
39.77,-187.654,-26.611
39.8,-184.846,-26.245
39.84,-182.671,-25.798
39.87,-180.495,-25.34
39.9,-177.792,-24.996
39.93,-175.02,-24.733
39.97,-172.142,-24.297
40.0,-168.948,-23.747
40.03,-165.825,-23.186
40.06,-162.526,-22.693
40.1,-159.613,-22.247
40.13,-157.086,-21.766
40.16,-154.173,-21.273
40.19,-150.664,-20.906
40.23,-147.295,-20.46
40.26,-143.925,-19.852
40.29,-140.556,-19.291
40.32,-137.503,-18.799
40.36,-134.029,-18.34
40.39,-131.747,-18.054
40.42,-128.94,-17.424
40.45,-124.728,-17.08
40.49,-121.956,-16.702
40.52,-118.762,-16.118
40.55,-115.849,-15.683
40.58,-112.936,-15.156
40.62,-109.602,-14.846
40.65,-106.725,-14.4
40.68,-103.18,-13.804
40.71,-99.425,-13.254
40.75,-95.67,-12.681
40.78,-92.02,-12.154
40.81,-88.791,-11.57
40.84,-85.316,-11.009
40.88,-81.877,-10.619
40.91,-78.719,-10.218
40.94,-75.63,-9.783
40.97,-72.682,-9.336
41.01,-69.489,-8.924
41.04,-66.19,-8.546
41.07,-62.891,-8.042
41.1,-59.346,-7.458
41.14,-55.907,-6.931
41.17,-52.502,-6.461
41.2,-49.168,-5.98
41.23,-45.764,-5.418
41.27,-42.044,-4.88
41.3,-38.184,-4.399
41.33,-34.99,-4.021
41.36,-33.797,-3.826
41.4,-30.322,-3.047
41.43,-24.005,-2.681
41.46,-20.145,-2.096
41.49,-16.109,-1.214
41.53,-13.933,-0.607
41.56,-10.599,-0.229
41.59,-5.721,-0.137
41.63,-0.597,-0.069
41.66,0.842,0.871
41.69,4.984,1.535
41.72,7.3,1.088
41.76,9.651,1.833
41.79,16.389,1.879
41.82,20.461,1.718
41.85,23.303,2.051
41.89,25.83,2.429
41.92,28.778,2.704
41.95,31.375,3.013
41.98,33.481,3.712
42.02,35.727,4.708
42.05,38.464,5.682
42.08,40.851,6.61
42.11,42.36,7.893
42.15,43.658,9.474
42.18,45.132,11.169
42.21,50.713,12.109
42.24,58.539,12.017
42.28,65.137,12.223
42.31,70.576,12.361
42.34,73.384,12.429
42.37,74.753,12.441
42.41,76.788,12.578
42.44,80.789,12.83
42.47,84.755,13.185
42.5,87.843,13.792
42.54,90.932,14.468
42.57,93.95,15.03
42.6,97.003,15.499
42.63,100.302,15.889
42.67,103.426,16.404
42.7,106.795,16.931
42.73,110.339,17.401
42.76,113.744,17.859
42.8,116.937,18.398
42.83,119.92,18.925
42.86,123.079,19.383
42.89,126.202,19.715
42.93,129.256,20.185
42.96,132.484,20.735
42.99,136.345,21.319
43.02,139.96,21.8
43.06,142.943,22.338
43.09,145.259,22.762
43.12,147.856,23.243
43.15,151.331,23.484
43.19,154.033,23.816
43.22,157.051,24.343
43.25,159.753,24.813
43.28,162.666,25.259
43.32,165.649,25.649
43.35,168.282,26.13
43.38,170.879,26.577
43.42,173.756,26.966
43.45,176.529,27.287
43.48,179.301,27.791
43.51,182.355,28.375
43.55,185.443,28.845
43.58,188.145,29.189
43.61,190.532,29.555
43.64,192.673,29.91
43.68,194.849,30.243
43.71,197.235,30.46
43.74,199.586,30.781
43.77,201.973,31.205
43.81,204.289,31.606
43.84,206.535,31.938
43.87,208.676,32.202
43.9,210.115,32.499
43.94,212.01,32.855
43.97,214.116,33.084
44.0,216.467,33.416
44.03,218.784,33.805
44.07,220.749,34.229
44.1,223.03,34.642
44.13,225.346,34.871
44.16,226.75,35.123
44.2,228.645,35.512
44.23,230.856,35.753
44.26,232.611,36.016
44.29,234.717,36.337
44.33,235.98,36.589
44.36,238.016,37.013
44.39,240.192,37.185
44.42,241.631,37.471
44.46,243.14,37.712
44.49,244.122,37.952
44.52,246.298,38.193
44.55,248.228,38.33
44.59,249.632,38.743
44.62,251.457,39.063
44.65,252.791,39.258
44.68,253.984,39.441
44.72,255.353,39.636
44.75,256.897,39.865
44.78,258.546,40.129
44.81,260.196,40.381
44.85,261.705,40.644
44.88,262.793,40.896
44.91,263.776,41.057
44.94,264.758,41.125
44.98,265.811,41.194
45.01,266.899,41.389
45.04,268.268,41.618
45.07,269.637,41.813
45.11,271.005,42.019
45.14,272.304,42.317
45.17,273.602,42.569
45.21,274.55,42.718
45.24,275.638,42.832
45.27,276.515,42.924
45.3,277.603,43.084
45.34,278.726,43.233
45.37,279.955,43.405
45.4,280.972,43.565
45.43,281.639,43.714
45.47,282.13,43.783
45.5,282.481,43.76
45.53,282.552,43.68
45.56,282.903,43.703
45.6,283.64,43.76
45.63,284.306,43.875
45.66,284.798,43.932
45.69,285.149,44.058
45.73,285.394,44.104
45.76,285.464,44.069
45.79,285.149,43.898
45.82,284.798,43.829
45.86,285.184,43.806
45.89,285.429,43.817
45.92,285.394,43.817
45.95,285.324,43.829
45.99,284.692,43.669
46.02,284.447,43.703
46.05,284.833,43.52
46.08,284.131,43.531
46.12,284.833,43.6
46.15,284.798,43.577
46.18,284.727,43.623
46.21,283.675,43.336
46.25,282.306,43.142
46.28,281.358,42.741
46.31,279.744,42.386
46.34,278.867,42.122
46.38,278.2,41.95
46.41,277.217,41.881
46.44,276.41,41.813
46.47,275.357,41.584
46.51,273.848,41.366
46.54,272.76,41.217
46.57,271.707,40.965
46.6,270.724,40.747
46.64,270.058,40.564
46.67,268.794,40.438
46.7,267.671,40.301
46.73,266.653,40.014
46.77,264.969,39.705
46.8,263.46,39.441
46.83,261.986,39.132
46.86,260.652,38.869
46.9,259.529,38.605
46.93,257.985,38.399
46.96,256.651,38.262
47.0,255.388,37.998
47.03,253.809,37.689
47.06,252.229,37.437
47.09,250.615,37.208
47.13,249.246,36.933
47.16,247.351,36.52
47.19,245.877,36.303
47.22,244.157,35.948
47.26,241.666,35.638
47.29,239.384,35.134
47.32,237.349,34.756
47.35,236.472,34.55
47.39,234.822,34.344
47.42,233.067,34.16
47.45,231.172,33.828
47.48,229.347,33.611
47.52,227.873,33.37
47.55,226.013,33.015
47.58,223.978,32.625
47.61,221.977,32.247
47.65,219.836,31.961
47.68,218.152,31.64
47.71,216.432,31.274
47.74,214.537,30.976
47.78,212.291,30.678
47.81,209.729,30.323
47.84,207.378,29.865
47.87,205.061,29.383
47.91,202.499,29.04
47.94,200.394,28.742
47.97,198.393,28.352
48.0,196.042,27.963
48.04,193.375,27.585
48.07,190.778,27.218
48.1,188.181,26.76
48.13,185.619,26.302
48.17,183.267,25.924
48.2,180.986,25.592
48.23,178.459,25.191
48.26,175.616,24.778
48.3,172.633,24.286
48.33,169.475,23.862
48.36,166.597,23.358
48.39,163.544,22.785
48.43,160.455,22.281
48.46,157.402,21.846
48.49,154.314,21.456
48.52,151.295,20.952
48.56,147.716,20.334
48.59,143.89,19.841
48.62,140.556,19.337
48.65,137.433,18.787
48.69,134.555,18.295
48.72,131.537,17.871
48.75,128.133,17.527
48.79,125.22,17.149
48.82,122.202,16.576
48.85,119.394,16.244
48.88,116.551,15.82
48.92,112.971,15.396
48.95,110.269,14.927
48.98,107.462,14.411
49.01,104.233,14.022
49.05,100.723,13.54
49.08,96.933,12.887
49.11,92.932,12.246
49.14,89.423,11.696
49.18,85.878,11.158
49.21,82.474,10.654
49.24,79.456,10.161
49.27,76.227,9.806
49.31,74.437,9.737
49.34,73.63,9.611
49.37,71.7,9.439
49.4,69.138,9.268
49.44,65.593,8.798
49.47,61.697,8.248
49.5,58.574,7.492
49.53,55.029,6.747
49.57,50.818,6.106
49.6,46.361,5.43
49.63,41.518,4.617
49.66,37.447,4.09
49.7,35.095,3.62
49.73,29.234,2.715
49.76,22.742,2.28
49.79,19.092,1.42
49.83,14.249,0.55
49.86,9.932,0.309
49.89,4.282,0.0
49.92,0.105,-0.252
49.96,-1.72,-1.317
49.99,-6.071,-1.249
50.02,-7.019,-1.214
50.05,-10.774,-1.707
50.09,-15.091,-1.558
50.12,-18.495,-1.879
50.15,-22.707,-2.222
50.18,-26.497,-2.257
50.22,-28.603,-2.406
50.25,-30.638,-3.07
50.28,-32.849,-3.826
50.31,-35.201,-4.559
50.35,-37.762,-5.338
50.38,-39.938,-6.358
50.41,-41.096,-7.755
50.44,-42.992,-9.199
50.48,-44.395,-10.493
50.51,-48.923,-11.673
50.54,-56.644,-11.639
50.58,-62.54,-11.73
50.61,-68.26,-11.971
50.64,-71.594,-12.074
50.67,-72.858,-12.223
50.71,-74.612,-12.338
50.74,-78.508,-12.509
50.77,-82.509,-12.865
50.8,-85.948,-13.575
50.84,-89.493,-14.319
50.87,-92.722,-14.835
50.9,-95.494,-15.316
50.93,-98.477,-15.763
50.97,-101.601,-16.21
51.0,-105.321,-16.679
51.03,-109.111,-17.115
51.06,-112.375,-17.699
51.1,-115.674,-18.34
51.13,-119.254,-18.833
51.16,-122.272,-19.199
51.19,-125.009,-19.646
51.23,-127.887,-20.093
51.26,-131.256,-20.54
51.29,-134.871,-20.964
51.32,-138.17,-21.491
51.36,-141.328,-22.121
51.39,-144.452,-22.636
51.42,-146.803,-22.911
51.45,-149.084,-23.232
51.49,-151.962,-23.598
51.52,-155.331,-24.091
51.55,-158.911,-24.572
51.58,-162.14,-25.111
51.62,-164.877,-25.672
51.65,-167.58,-26.245
51.68,-170.563,-26.565
51.71,-173.16,-26.875
51.75,-175.441,-27.058
51.78,-172.668,-26.485
51.81,-168.457,-26.038
51.84,-170.036,-25.477
51.88,-170.738,-24.904
51.91,-171.405,-25.638
51.94,-175.652,-26.29
51.97,-176.74,-26.772
52.01,-179.863,-28.066
52.04,-185.548,-28.845
52.07,-189.128,-29.91
52.1,-195.094,-31.033
52.14,-199.797,-31.571
52.17,-202.113,-32.293
52.2,-205.412,-32.694
52.23,-208.044,-32.74
52.27,-210.677,-32.958
52.3,-213.976,-33.267
52.33,-216.502,-33.656
52.37,-219.17,-34.16
52.4,-222.012,-34.47
52.43,-223.978,-34.836
52.46,-226.189,-35.283
52.5,-228.786,-35.558
52.53,-230.47,-35.764
52.56,-232.611,-36.142
52.59,-234.787,-36.406
52.63,-236.05,-36.692
52.66,-237.946,-36.956
52.69,-239.49,-37.024
52.72,-240.472,-37.311
52.76,-242.368,-37.563
52.79,-243.666,-37.677
52.82,-245.386,-37.987
52.85,-247.246,-38.239
52.89,-248.579,-38.628
52.92,-250.545,-38.914
52.95,-252.054,-39.098
52.98,-253.212,-39.35
53.02,-254.405,-39.533
53.05,-255.598,-39.705
53.08,-257.318,-39.911
53.11,-259.038,-40.152
53.15,-260.547,-40.495
53.18,-261.916,-40.747
53.21,-262.863,-40.908
53.24,-263.846,-40.988
53.28,-264.688,-41.137
53.31,-265.811,-41.286
53.34,-267.039,-41.4
53.37,-268.268,-41.561
53.41,-269.356,-41.836
53.44,-270.654,-42.122
53.47,-272.128,-42.317
53.5,-273.427,-42.477
53.54,-274.304,-42.66
53.57,-275.217,-42.821
53.6,-276.024,-42.901
53.63,-276.936,-42.958
53.67,-277.954,-43.096
53.7,-278.972,-43.279
53.73,-279.955,-43.439
53.76,-280.727,-43.554
53.8,-281.288,-43.634
53.83,-281.639,-43.646
53.86,-281.779,-43.634
53.89,-282.095,-43.634
53.93,-282.657,-43.611
53.96,-283.113,-43.68
53.99,-283.359,-43.783
54.02,-283.64,-43.817
54.06,-283.885,-43.806
54.09,-283.92,-43.806
54.12,-283.815,-43.749
54.16,-283.71,-43.726
54.19,-284.061,-43.669
54.22,-284.131,-43.646
54.25,-283.955,-43.669
54.29,-283.92,-43.646
54.32,-283.885,-43.623
54.35,-283.78,-43.543
54.38,-283.218,-43.439
54.42,-282.832,-43.382
54.45,-283.183,-43.348
54.48,-283.008,-43.245
54.51,-282.516,-43.245
54.55,-281.885,-43.084
54.58,-280.937,-42.901
54.61,-280.27,-42.649
54.64,-279.288,-42.466
54.68,-278.761,-42.363
54.71,-278.656,-42.282
54.74,-278.375,-42.248
54.77,-277.919,-42.237
54.81,-276.901,-42.111
54.84,-275.533,-41.87
54.87,-274.409,-41.503
54.9,-273.181,-41.183
54.94,-272.269,-41.057
54.97,-271.461,-40.896
55.0,-270.268,-40.679
55.03,-269.04,-40.461
55.07,-267.566,-40.198
55.1,-265.741,-39.911
55.13,-264.162,-39.533
55.16,-262.582,-39.178
55.2,-261.319,-38.949
55.23,-259.985,-38.72
55.26,-258.336,-38.525
55.29,-257.213,-38.307
55.33,-255.809,-38.044
55.36,-253.949,-37.861
55.39,-252.615,-37.609
55.42,-251.282,-37.276
55.46,-249.948,-37.036
55.49,-248.509,-36.852
55.52,-246.86,-36.612
55.55,-245.561,-36.337
55.59,-244.087,-36.005
55.62,-241.982,-35.684
55.65,-239.876,-35.386
55.68,-238.156,-34.939
55.72,-236.015,-34.538
55.75,-234.05,-34.206
55.78,-231.313,-33.794
55.81,-229.066,-33.45
55.85,-227.066,-32.935
55.88,-224.644,-32.637
55.91,-222.223,-32.293
55.95,-220.152,-32.03
55.98,-219.275,-31.766
56.01,-217.661,-31.514
56.04,-215.906,-31.457
56.08,-214.291,-31.193
56.11,-212.01,-30.781
56.14,-209.589,-30.334
56.17,-207.202,-29.956
56.21,-205.096,-29.59
56.24,-203.131,-29.177
56.27,-201.096,-28.799
56.3,-198.814,-28.513
56.34,-196.393,-28.215
56.37,-193.971,-27.768
56.4,-191.234,-27.23
56.43,-188.321,-26.76
56.47,-185.373,-26.382
56.5,-183.057,-25.97
56.53,-180.916,-25.443
56.56,-178.143,-25.053
56.6,-175.125,-24.755
56.63,-172.282,-24.32
56.66,-168.983,-23.77
56.69,-166.386,-23.301
56.73,-162.561,-22.636
56.76,-159.052,-22.327
56.79,-156.735,-21.674
56.82,-153.085,-21.124
56.86,-150.418,-20.849
56.89,-147.365,-20.379
56.92,-143.89,-19.956
56.95,-141.153,-19.452
56.99,-138.135,-18.993
57.02,-135.327,-18.73
57.05,-133.081,-18.34
57.08,-130.238,-17.848
57.12,-126.729,-17.412
57.15,-123.184,-16.943
57.18,-119.885,-16.393
57.21,-116.621,-15.728
57.25,-113.077,-15.167
57.28,-109.743,-14.743
57.31,-106.795,-14.331
57.34,-103.18,-13.747
57.38,-99.425,-13.243
57.41,-95.705,-12.681
57.44,-91.879,-12.177
57.47,-88.756,-11.627
57.51,-85.492,-11.043
57.54,-82.158,-10.665
57.57,-79.034,-10.321
57.6,-75.946,-9.886
57.64,-72.998,-9.439
57.67,-69.91,-8.993
57.7,-66.33,-8.592
57.73,-63.136,-8.111
57.77,-59.872,-7.526
57.8,-56.468,-6.999
57.83,-52.959,-6.553
57.87,-49.484,-6.049
57.9,-46.08,-5.522
57.93,-42.465,-4.926
57.96,-38.464,-4.422
58.0,-35.095,-4.032
58.03,-33.727,-3.826
58.06,-30.603,-3.082
58.09,-24.286,-2.681
58.13,-20.671,-2.211
58.16,-16.811,-1.352
58.19,-14.74,-0.733
58.22,-11.476,-0.206
58.26,-6.668,-0.149
58.29,-1.334,-0.126
58.32,0.632,0.63
58.35,4.176,1.615
58.39,7.721,1.157
58.42,9.335,1.684
58.45,15.828,1.959
58.48,20.425,1.695
58.52,23.373,2.062
58.55,26.567,2.532
58.58,29.585,2.818
58.61,32.077,3.196
58.65,34.218,3.861
58.68,35.832,4.846
58.71,38.254,5.888
58.74,40.71,6.793
58.78,42.29,8.019
58.81,43.588,9.588
58.84,45.518,11.284
58.87,51.379,11.971
58.91,58.749,11.868
58.94,65.031,12.04
58.97,70.155,12.223
59.0,72.998,12.292
59.04,74.156,12.257
59.07,76.122,12.498
59.1,80.403,12.773
59.13,84.229,13.14
59.17,87.492,13.815
59.2,90.791,14.468
59.23,93.599,15.053
59.26,96.793,15.557
59.3,100.127,15.877
59.33,103.145,16.37
59.36,106.584,16.92
59.39,110.129,17.401
59.43,113.533,17.859
59.46,116.727,18.375
59.49,119.71,18.936
59.52,123.079,19.429
59.56,126.448,19.818
59.59,129.396,20.253
59.62,132.66,20.826
59.66,135.924,21.284
59.69,139.679,21.903
59.72,143.89,22.384
59.75,145.715,22.808
59.79,147.505,23.289
59.82,150.418,23.427
59.85,153.331,23.702
59.88,156.63,24.194
59.92,159.683,24.733
59.95,162.456,25.259
59.98,165.228,25.683
60.01,167.896,26.13
60.05,170.668,26.588
60.08,173.511,26.978
60.11,176.424,27.333
60.14,179.266,27.814
60.18,182.214,28.41
60.21,185.338,28.902
60.24,188.181,29.235
60.27,190.532,29.555
60.31,192.462,29.922
60.34,194.743,30.243
60.37,197.13,30.483
60.4,199.516,30.781
60.44,201.762,31.193
60.47,204.008,31.629
60.5,206.29,31.961
60.53,208.395,32.202
60.57,209.975,32.511
60.6,211.905,32.866
60.63,213.976,33.118
60.66,216.362,33.473
60.7,218.784,33.851
60.73,220.679,34.275
60.76,222.855,34.687
60.79,225.031,34.894
60.83,226.434,35.134
60.86,228.505,35.524
60.89,230.856,35.81
60.92,233.067,36.177
60.96,235.313,36.52
60.99,236.858,36.841
61.02,238.472,37.196
61.05,240.332,37.357
61.09,241.982,37.551
61.12,243.736,37.849
61.15,245.421,38.147
61.18,247.035,38.388
61.22,248.685,38.571
61.25,250.018,38.8
61.28,251.562,39.121
61.31,253.212,39.315
61.35,254.335,39.476
61.38,255.528,39.693
61.41,257.002,39.923
61.45,258.582,40.186
61.48,260.336,40.461
61.51,261.845,40.702
61.54,262.828,40.942
61.58,263.741,41.103
61.61,264.688,41.16
61.64,265.811,41.217
61.67,266.969,41.423
61.71,268.303,41.687
61.74,269.637,41.893
61.77,271.075,42.099
61.8,272.304,42.363
61.84,273.532,42.615
61.87,274.515,42.764
61.9,275.568,42.855
61.93,276.445,42.97
61.97,277.428,43.107
62.0,278.481,43.268
62.03,279.674,43.417
62.06,280.621,43.554
62.1,281.323,43.703
62.13,281.744,43.772
62.16,282.201,43.772
62.19,282.552,43.726
62.23,283.148,43.795
62.26,283.78,43.886
62.29,284.517,44.001
62.32,284.973,44.069
62.36,285.254,44.127
62.39,285.289,44.115
62.42,285.184,44.058
62.45,284.903,43.886
62.49,284.798,43.829
62.52,285.043,43.806
62.55,285.324,43.852
62.58,285.359,43.875
62.62,285.394,43.886
62.65,284.517,43.726
62.68,284.482,43.772
62.71,284.727,43.531
62.75,283.92,43.543
62.78,284.657,43.588
62.81,284.377,43.508
62.84,283.99,43.543
62.88,283.183,43.268
62.91,281.709,43.027
62.94,280.727,42.718
62.97,279.463,42.363
63.01,278.761,42.214
63.04,278.375,42.076
63.07,277.463,42.053
63.1,276.726,42.007
63.14,275.708,41.744
63.17,274.234,41.526
63.2,273.111,41.309
63.24,272.058,41.068
63.27,271.321,40.896
63.3,270.619,40.69
63.33,269.356,40.598
63.37,268.373,40.461
63.4,267.11,40.175
63.43,265.565,39.865
63.46,263.986,39.545
63.5,262.337,39.235
63.53,261.038,38.949
63.56,259.634,38.64
63.59,258.231,38.445
63.63,256.967,38.307
63.66,255.634,38.078
63.69,254.054,37.78
63.72,252.229,37.46
63.76,250.615,37.253
63.79,249.211,36.933
63.82,247.246,36.578
63.85,246.158,36.348
63.89,244.157,35.948
63.92,241.455,35.684
63.95,239.349,35.146
63.98,237.314,34.756
64.02,236.086,34.481
64.05,234.331,34.286
64.08,232.576,34.103
64.11,230.821,33.759
64.15,228.786,33.496
64.18,227.031,33.278
64.21,225.276,32.9
64.24,223.206,32.522
64.28,221.451,32.19
64.31,219.626,31.938
64.34,217.976,31.675
64.37,216.257,31.365
64.41,214.467,31.022
64.44,212.08,30.724
64.47,209.764,30.392
64.5,207.764,29.956
64.54,205.623,29.521
64.57,203.201,29.2
64.6,201.131,28.914
64.63,199.025,28.536
64.67,196.568,28.1
64.7,193.761,27.677
64.73,190.953,27.241
64.76,188.321,26.783
64.8,185.864,26.29
64.83,183.197,25.878
64.86,180.67,25.534
64.89,177.968,25.145
64.93,175.16,24.675
64.96,171.967,24.16
64.99,168.773,23.747
65.03,166.0,23.278
65.06,163.123,22.751
65.09,160.28,22.27
65.12,157.332,21.903
65.16,154.419,21.525
65.19,151.26,21.009
65.22,147.646,20.425
65.25,144.276,19.933
65.29,140.942,19.394
65.32,137.714,18.925
65.35,135.292,18.421
65.38,131.958,17.951
65.42,128.659,17.687
65.45,125.185,17.057
65.48,121.078,16.496
65.51,118.095,15.935
65.55,115.042,15.465
65.58,112.27,15.156
65.61,109.848,14.766
65.64,106.795,14.319
65.68,103.11,13.941
65.71,99.881,13.495
65.74,96.547,12.887
65.77,93.002,12.269
65.81,89.423,11.742
65.84,85.983,11.261
65.87,82.825,10.814
65.9,80.579,10.436
65.94,78.157,10.104
65.97,75.034,9.863
66.0,71.875,9.474
66.03,68.33,8.855
66.07,64.68,8.294
66.1,61.346,7.755
66.13,57.767,7.194
66.16,53.906,6.541
66.2,49.66,5.888
66.23,45.483,5.315
66.26,41.412,4.731
66.29,37.166,4.044
66.33,33.691,3.597
66.36,30.603,3.059
66.39,24.883,2.348
66.42,19.759,1.947
66.46,17.021,1.088
66.49,13.582,0.424
66.52,10.529,0.561
66.55,7.967,0.355
66.59,4.176,0.103
66.62,0.912,0.218
66.65,-0.316,-0.126
66.68,-1.79,-1.168
66.72,-5.721,-1.1
66.75,-7.265,-1.34
66.78,-12.845,-2.154
66.82,-19.022,-2.051
66.85,-23.584,-2.165
66.88,-27.69,-2.257
66.91,-29.691,-2.635
66.95,-31.375,-3.471
66.98,-33.902,-4.124
67.01,-36.218,-4.777
67.04,-38.921,-5.797
67.08,-40.956,-7.034
67.11,-42.465,-8.477
67.14,-43.974,-9.829
67.17,-46.922,-11.192
67.21,-53.906,-11.593
67.24,-60.715,-11.616
67.27,-66.646,-11.902
67.3,-70.541,-11.994
67.34,-72.261,-12.257
67.37,-74.437,-12.361
67.4,-77.315,-12.452
67.43,-80.93,-12.75
67.47,-84.439,-13.277
67.5,-87.703,-13.93
67.53,-90.932,-14.514
67.56,-94.02,-15.007
67.6,-97.144,-15.488
67.63,-99.916,-15.992
67.66,-103.215,-16.416
67.69,-106.374,-16.759
67.73,-109.883,-17.309
67.76,-113.217,-17.813
67.79,-116.446,-18.421
67.82,-120.131,-18.867
67.86,-123.149,-19.36
67.89,-126.308,-19.944
67.92,-129.852,-20.448
67.95,-133.292,-20.861
67.99,-136.942,-21.456
68.02,-140.24,-21.937
68.05,-142.873,-22.533
68.08,-146.277,-22.877
68.12,-148.312,-23.094
68.15,-151.787,-23.736
68.18,-155.437,-24.034
68.21,-157.648,-24.561
68.25,-160.806,-24.973
68.28,-163.333,-25.363
68.31,-165.649,-25.844
68.34,-167.896,-26.061
68.38,-169.615,-26.222
68.41,-171.651,-26.428
68.44,-173.37,-26.657
68.47,-175.722,-27.115
68.51,-179.231,-27.551
68.54,-182.214,-28.089
68.57,-184.987,-28.822
68.61,-188.04,-29.372
68.64,-190.813,-29.739
68.67,-193.761,-30.208
68.7,-197.06,-30.712
68.74,-200.218,-31.251
68.77,-203.377,-31.732
68.8,-206.149,-32.064
68.83,-208.36,-32.465
68.87,-210.606,-32.832
68.9,-212.642,-33.038
68.93,-214.502,-33.244
68.96,-216.643,-33.496
69.0,-218.538,-33.828
69.03,-220.679,-34.172
69.06,-222.609,-34.355
69.09,-223.978,-34.619
69.13,-225.557,-34.917
69.16,-227.171,-35.169
69.19,-228.926,-35.363
69.22,-230.646,-35.615
69.26,-232.225,-35.925
69.29,-233.488,-36.2
69.32,-235.489,-36.52
69.35,-237.805,-36.795
69.39,-239.49,-37.173
69.42,-241.209,-37.551
69.45,-242.999,-37.815
69.48,-244.859,-38.021
69.52,-246.544,-38.296
69.55,-248.299,-38.651
69.58,-250.299,-38.914
69.61,-251.878,-39.132
69.65,-253.282,-39.373
69.68,-254.405,-39.567
69.71,-255.704,-39.762
69.74,-256.967,-39.854
69.78,-258.231,-40.037
69.81,-259.74,-40.278
69.84,-261.249,-40.564
69.87,-262.512,-40.759
69.91,-263.284,-40.908
69.94,-264.267,-41.08
69.97,-265.39,-41.251
70.0,-266.794,-41.435
70.04,-268.127,-41.561
70.07,-269.321,-41.847
70.1,-270.654,-42.099
70.13,-272.058,-42.363
70.17,-273.286,-42.466
70.2,-274.269,-42.683
70.23,-275.146,-42.752
70.26,-275.427,-42.832
70.3,-276.656,-42.878
70.33,-277.568,-43.016
70.36,-278.867,-43.21
70.4,-279.288,-43.348
70.43,-280.516,-43.554
70.46,-281.393,-43.634
70.49,-282.306,-43.806
70.53,-281.85,-43.691
70.56,-282.341,-43.829
70.59,-283.464,-43.68
70.62,-283.815,-43.886
70.66,-284.552,-43.966
70.69,-284.727,-44.069
70.72,-285.219,-44.081
70.75,-285.219,-44.012
70.79,-285.149,-44.035
70.82,-285.429,-43.989
70.85,-285.464,-43.909
70.88,-285.78,-43.955
70.92,-285.64,-43.863
70.95,-284.763,-43.829
70.98,-284.657,-43.669
71.01,-284.166,-43.485
71.05,-283.64,-43.405
71.08,-283.64,-43.382
71.11,-283.78,-43.382
71.14,-283.78,-43.405
71.18,-283.359,-43.348
71.21,-282.306,-43.199
71.24,-281.358,-42.958
71.27,-280.446,-42.649
71.31,-279.533,-42.42
71.34,-279.042,-42.305
71.37,-278.691,-42.248
71.4,-278.094,-42.145
71.44,-277.112,-42.019
71.47,-275.848,-41.859
71.5,-274.69,-41.607
71.53,-273.637,-41.297
71.57,-272.409,-40.999
71.6,-271.075,-40.839
71.63,-270.093,-40.667
71.66,-268.935,-40.427
71.7,-267.776,-40.198
71.73,-266.267,-39.923
71.76,-264.407,-39.659
71.79,-262.828,-39.315
71.83,-261.179,-38.926
71.86,-259.81,-38.697
71.89,-258.476,-38.468
71.92,-256.932,-38.284
71.96,-255.914,-38.067
71.99,-254.37,-37.792
72.02,-252.194,-37.574
72.05,-250.79,-37.288
72.09,-249.176,-36.875
72.12,-247.562,-36.612
72.15,-245.947,-36.348
72.19,-244.333,-36.188
72.22,-243.596,-35.982
72.25,-241.876,-35.615
72.28,-239.525,-35.375
72.32,-237.7,-34.997
72.35,-235.77,-34.607
72.38,-234.155,-34.229
72.41,-231.979,-33.874
72.45,-230.014,-33.702
72.48,-228.505,-33.393
72.51,-226.434,-33.015
72.54,-224.504,-32.774
72.58,-222.96,-32.511
72.61,-221.17,-32.259
72.64,-219.696,-31.961
72.67,-217.59,-31.56
72.71,-215.66,-31.354
72.74,-214.116,-31.033
72.77,-212.01,-30.678
72.8,-209.799,-30.266
72.84,-207.202,-29.91
72.87,-204.921,-29.555
72.9,-202.956,-29.154
72.93,-201.025,-28.742
72.97,-198.499,-28.41
73.0,-196.112,-28.112
73.03,-193.304,-27.608
73.06,-190.286,-27.081
73.1,-187.584,-26.565
73.13,-184.636,-26.176
73.16,-182.214,-25.809
73.19,-179.863,-25.202
73.23,-176.213,-24.79
73.26,-174.037,-24.572
73.29,-171.124,-24.022
73.32,-168.282,-23.736
73.36,-165.088,-22.98
73.39,-161.403,-22.705
73.42,-159.753,-22.292
73.45,-157.297,-21.869
73.49,-154.77,-21.536
73.52,-151.471,-21.124
73.55,-147.821,-20.666
73.58,-144.312,-20.082
73.62,-141.258,-19.394
73.65,-138.065,-18.879
73.68,-135.748,-18.615
73.71,-132.906,-18.157
73.75,-129.607,-17.779
73.78,-125.957,-17.172
73.81,-121.851,-16.679
73.84,-118.797,-16.164
73.88,-115.604,-15.488
73.91,-111.989,-14.961
73.94,-108.9,-14.594
73.97,-105.952,-14.193
74.01,-102.303,-13.666
74.04,-98.688,-13.151
74.07,-95.038,-12.578
74.11,-91.248,-12.086
74.14,-88.229,-11.582
74.17,-85.141,-11.02
74.2,-81.737,-10.608
74.24,-78.578,-10.253
74.27,-75.63,-9.852
74.3,-72.893,-9.451
74.33,-70.331,-9.084
74.37,-67.628,-8.809
74.4,-64.926,-8.477
74.43,-61.803,-7.973
74.46,-58.012,-7.366
74.5,-54.468,-6.873
74.53,-51.064,-6.289
74.56,-47.484,-5.693
74.59,-43.799,-5.098
74.63,-39.833,-4.548
74.66,-36.008,-4.113
74.69,-34.393,-3.918
74.72,-31.235,-3.104
74.76,-24.496,-2.577
74.79,-20.004,-2.051
74.82,-15.582,-1.134
74.85,-12.354,-0.447
74.89,-8.282,-0.069
74.92,-3.018,-0.16
74.95,0.316,-0.046
74.98,1.509,1.157
75.02,6.212,1.455
75.05,8.493,1.283
75.08,12.564,2.051
75.11,18.846,1.867
75.15,21.864,1.661
75.18,24.005,1.993
75.21,25.97,2.383
75.24,28.076,2.726
75.28,30.814,3.024
75.31,33.235,3.574
75.34,35.587,4.594
75.37,38.535,5.648
75.41,41.061,6.61
75.44,42.676,7.824
75.47,43.869,9.394
75.5,45.027,11.169
75.54,50.327,12.235
75.57,58.223,12.097
75.6,64.961,12.269
75.63,70.612,12.429
75.67,73.314,12.475
75.7,74.753,12.464
75.73,76.578,12.498
75.76,80.193,12.796
75.8,84.404,13.162
75.83,88.019,13.781
75.86,91.142,14.457
75.9,93.915,15.098
75.93,97.073,15.591
75.96,100.267,15.923
75.99,103.355,16.381
76.03,106.76,16.92
76.06,110.374,17.424
76.09,113.779,17.894
76.12,116.972,18.398
76.16,119.78,18.913
76.19,122.903,19.417
76.22,126.343,19.784
76.25,129.501,20.208
76.29,132.976,20.826
76.32,136.801,21.456
76.35,140.416,21.972
76.38,143.294,22.407
76.42,145.259,22.774
76.45,146.944,23.003
76.48,149.4,23.255
76.51,154.068,23.736
76.55,157.893,24.217
76.58,160.561,25.065
76.61,163.684,25.615
76.64,165.895,25.912
76.68,168.317,26.279
76.71,171.23,26.6
76.74,173.862,26.932
76.77,176.494,27.287
76.81,179.231,27.7
76.84,181.863,28.249
76.87,184.776,28.765
76.9,187.724,29.12
76.94,190.216,29.475
76.97,192.497,29.899
77.0,194.778,30.266
77.03,197.165,30.586
77.07,199.692,30.873
77.1,202.113,31.251
77.13,204.43,31.697
77.16,206.746,32.053
77.2,208.781,32.27
77.23,210.22,32.557
77.26,212.291,32.889
77.29,214.502,33.175
77.33,216.959,33.53
77.36,219.205,33.897
77.39,221.205,34.355
77.42,223.592,34.768
77.46,225.732,34.997
77.49,227.312,35.26
77.52,229.207,35.604
77.55,231.137,35.856
77.59,232.997,36.142
77.62,234.857,36.337
77.65,236.05,36.612
77.69,237.77,36.933
77.72,239.244,37.059
77.75,240.858,37.322
77.78,242.332,37.483
77.82,243.771,37.883
77.85,246.123,38.17
77.88,247.913,38.422
77.91,249.597,38.788
77.95,251.387,39.155
77.98,252.826,39.361
78.01,253.809,39.499
78.04,255.142,39.648
78.08,256.757,39.854
78.11,258.511,40.152
78.14,260.231,40.427
78.17,261.67,40.69
78.21,262.617,40.896
78.24,263.39,41.034
78.27,264.337,41.091
78.3,265.495,41.137
78.34,266.794,41.343
78.37,268.127,41.618
78.4,269.496,41.881
78.43,270.935,42.076
78.47,272.198,42.34
78.5,273.357,42.58
78.53,274.409,42.741
78.56,275.427,42.832
78.6,276.445,42.935
78.63,277.568,43.107
78.66,278.761,43.302
78.69,280.06,43.474
78.73,281.113,43.657
78.76,281.779,43.806
78.79,282.271,43.863
78.82,282.692,43.852
78.86,283.008,43.806
78.89,283.569,43.829
78.92,284.096,43.909
78.95,284.763,44.024
78.99,285.289,44.069
79.02,285.429,44.115
79.05,285.394,44.127
79.08,285.394,44.058
79.12,285.114,43.909
79.15,285.078,43.829
79.18,285.359,43.829
79.21,285.429,43.863
79.25,285.57,43.921
79.28,285.57,43.863
79.31,285.464,43.932
79.34,285.921,43.921
79.38,284.798,43.691
79.41,284.306,43.657
79.44,284.798,43.497
79.48,284.377,43.497
79.51,284.201,43.462
79.54,282.973,43.176
79.57,281.358,42.935
79.61,280.446,42.58
79.64,279.077,42.282
79.67,278.691,42.179
79.7,278.375,42.053
79.74,277.533,42.111
79.77,277.042,42.076
79.8,276.059,41.859
79.83,274.936,41.652
79.87,273.813,41.412
79.9,272.514,41.183
79.93,271.812,40.976
79.96,270.97,40.724
80.0,269.601,40.576
80.03,268.198,40.392
80.06,266.618,40.037
80.09,264.969,39.671
80.13,263.425,39.35
80.16,261.986,39.075
80.19,260.477,38.834
80.22,259.073,38.559
80.26,257.564,38.33
80.29,256.09,38.136
80.32,254.791,37.952
80.35,253.282,37.609
80.39,251.492,37.322
80.42,249.913,37.093
80.45,248.334,36.807
80.48,246.474,36.463
80.52,245.386,36.234
80.55,243.561,35.81
80.58,240.788,35.592
80.61,239.595,35.249
80.65,237.91,34.825
80.68,236.436,34.699
80.71,234.962,34.447
80.74,232.892,34.195
80.78,231.558,33.931
80.81,230.049,33.599
80.84,227.768,33.393
80.87,225.803,33.049
80.91,223.662,32.545
80.94,221.661,32.202
80.97,219.942,31.904
81.0,218.047,31.606
81.04,216.222,31.331
81.07,214.326,30.941
81.1,211.8,30.632
81.13,209.483,30.311
81.17,207.272,29.876
81.2,205.026,29.406
81.23,202.78,29.086
81.27,200.674,28.799
81.3,198.499,28.467
81.33,196.252,28.043
81.36,193.515,27.596
81.4,190.848,27.241
81.43,188.356,26.795
81.46,185.759,26.325
81.49,183.337,25.935
81.53,181.056,25.592
81.56,178.494,25.248
81.59,175.967,24.847
81.62,172.949,24.32
81.66,169.475,23.873
81.69,166.492,23.369
81.72,163.544,22.797
81.75,160.526,22.258
81.79,157.437,21.811
81.82,154.279,21.445
81.85,151.155,20.952
81.88,147.646,20.368
81.92,144.312,19.887
81.95,140.942,19.383
81.98,137.749,18.925
82.01,134.766,18.352
82.05,131.291,17.859
82.08,128.343,17.55
82.11,125.43,17.08
82.14,122.237,16.691
82.18,119.85,16.267
82.21,116.165,15.728
82.24,112.621,15.442
82.27,110.515,14.927
82.31,107.707,14.411
82.34,104.373,14.045
82.37,100.688,13.529
82.4,96.336,12.876
82.44,92.616,12.189
82.47,89.247,11.547
82.5,85.597,11.089
82.53,82.404,10.665
82.57,79.315,10.161
82.6,75.841,9.737
82.63,72.787,9.428
82.66,69.699,8.993
82.7,66.435,8.5
82.73,63.031,7.962
82.76,59.135,7.435
82.79,55.415,6.931
82.83,51.941,6.289
82.86,48.221,5.693
82.89,44.466,5.166
82.92,40.5,4.662
82.96,36.71,4.101
82.99,33.762,3.723
83.02,32.042,3.437
83.06,27.55,2.795
83.09,22.426,2.509
83.12,20.004,1.856
83.15,17.653,1.077
83.19,15.547,0.871
83.22,13.02,0.481
83.25,8.984,0.046
83.28,3.72,0.046
83.32,0.0,0.023
83.35,-1.509,-1.226
83.38,-6.773,-1.535
83.41,-9.827,-1.283
83.45,-14.67,-2.142
83.48,-21.092,-2.165
83.51,-24.005,-2.051
83.54,-27.023,-2.337
83.58,-29.901,-2.692
83.61,-31.551,-3.368
83.64,-33.691,-4.181
83.67,-36.394,-4.8
83.71,-38.394,-5.682
83.74,-40.254,-6.942
83.77,-42.009,-8.351
83.8,-43.799,-9.611
83.84,-44.992,-11.1
83.87,-50.256,-12.257
83.9,-58.223,-12.074
83.93,-64.435,-12.143
83.97,-70.12,-12.269
84.0,-72.612,-12.303
84.03,-74.016,-12.464
84.06,-76.648,-12.487
84.1,-80.263,-12.67
84.13,-83.807,-13.151
84.16,-87.457,-13.85
84.19,-90.826,-14.445
84.23,-93.81,-14.984
84.26,-96.722,-15.488
84.29,-99.846,-15.992
84.32,-103.25,-16.45
84.36,-106.83,-16.851
84.39,-110.094,-17.332
84.42,-113.393,-17.939
84.45,-116.832,-18.478
84.49,-120.166,-18.913
84.52,-123.36,-19.36
84.55,-126.308,-19.875
84.58,-129.501,-20.379
84.62,-132.976,-20.815
84.65,-136.591,-21.284
84.68,-139.925,-21.903
84.71,-143.294,-22.487
84.75,-145.996,-22.877
84.78,-148.734,-23.22
84.81,-151.26,-23.53
84.85,-153.717,-23.896
84.88,-156.525,-24.286
84.91,-160.35,-24.767
84.94,-163.087,-25.145
84.98,-164.912,-25.752
85.01,-167.299,-26.027
85.04,-168.948,-26.164
85.07,-171.686,-26.531
85.11,-175.406,-26.989
85.14,-178.459,-27.619
85.17,-182.144,-28.352
85.2,-185.548,-28.914
85.24,-188.321,-29.532
85.27,-191.444,-30.014
85.3,-194.322,-30.346
85.33,-197.13,-30.678
85.37,-199.832,-31.056
85.4,-202.359,-31.48
85.43,-205.026,-31.824
85.46,-207.202,-32.03
85.5,-208.922,-32.339
85.53,-210.817,-32.625
85.56,-212.396,-32.832
85.59,-214.116,-33.038
85.63,-215.836,-33.244
85.66,-217.59,-33.588
85.69,-219.696,-33.92
85.72,-221.732,-34.218
85.76,-223.697,-34.538
85.79,-225.381,-34.905
85.82,-227.171,-35.237
85.85,-228.996,-35.466
85.89,-231.137,-35.776
85.92,-233.138,-36.119
85.95,-234.857,-36.474
85.98,-236.577,-36.749
86.02,-238.156,-36.933
86.05,-239.665,-37.185
86.08,-241.385,-37.46
86.11,-242.964,-37.7
86.15,-244.824,-37.918
86.18,-246.474,-38.17
86.21,-247.983,-38.536
86.24,-249.808,-38.846
86.28,-251.282,-38.972
86.31,-252.37,-39.201
86.34,-253.773,-39.361
86.37,-254.756,-39.533
86.41,-256.371,-39.751
86.44,-257.95,-39.945
86.47,-259.213,-40.243
86.5,-260.863,-40.587
86.54,-262.337,-40.782
86.57,-263.354,-40.954
86.6,-264.442,-41.103
86.64,-265.53,-41.297
86.67,-266.864,-41.458
86.7,-268.373,-41.607
86.73,-269.707,-41.836
86.77,-270.865,-42.134
86.8,-272.128,-42.34
86.83,-273.216,-42.466
86.86,-274.199,-42.592
86.9,-275.146,-42.741
86.93,-275.954,-42.844
86.96,-277.112,-42.993
86.99,-278.445,-43.153
87.03,-279.674,-43.417
87.06,-280.656,-43.588
87.09,-281.148,-43.691
87.12,-281.604,-43.68
87.16,-281.815,-43.646
87.19,-282.06,-43.623
87.22,-282.622,-43.657
87.25,-283.534,-43.714
87.29,-284.026,-43.863
87.32,-284.552,-43.989
87.35,-284.692,-44.035
87.38,-284.973,-44.035
87.42,-285.078,-43.932
87.45,-284.833,-43.898
87.48,-284.727,-43.852
87.51,-285.078,-43.806
87.55,-284.903,-43.714
87.58,-284.412,-43.669
87.61,-283.815,-43.577
87.64,-284.447,-43.6
87.68,-283.71,-43.313
87.71,-282.552,-43.382
87.74,-283.289,-43.279
87.77,-283.218,-43.279
87.81,-283.64,-43.394
87.84,-283.183,-43.302
87.87,-282.13,-43.21
87.9,-281.323,-42.947
87.94,-280.235,-42.615
87.97,-279.428,-42.397
88.0,-278.972,-42.26
88.03,-278.586,-42.237
88.07,-278.2,-42.145
88.1,-277.217,-42.03
88.13,-275.989,-41.881
88.16,-274.69,-41.618
88.2,-273.497,-41.274
88.23,-272.304,-40.954
88.26,-271.356,-40.805
88.29,-270.409,-40.69
88.33,-269.215,-40.495
88.36,-268.127,-40.289
88.39,-266.583,-39.98
88.43,-264.618,-39.705
88.46,-263.109,-39.338
88.49,-261.389,-38.937
88.52,-260.161,-38.731
88.56,-259.108,-38.536
88.59,-257.634,-38.388
88.62,-256.651,-38.227
88.65,-255.177,-37.918
88.69,-253.072,-37.723
88.72,-251.913,-37.483
88.75,-250.545,-37.105
88.78,-248.825,-36.818
88.82,-247.141,-36.52
88.85,-244.789,-36.188
88.88,-243.175,-35.89
88.91,-241.701,-35.455
88.95,-239.876,-35.203
88.98,-237.84,-34.917
89.01,-236.086,-34.687
89.04,-235.068,-34.39
89.08,-233.313,-34.138
89.11,-231.488,-34.012
89.14,-230.014,-33.759
89.17,-228.294,-33.359
89.21,-226.048,-32.992
89.24,-223.943,-32.66
89.27,-221.872,-32.282
89.3,-220.117,-31.927
89.34,-218.433,-31.56
89.37,-216.292,-31.285
89.4,-214.291,-31.056
89.43,-212.186,-30.644
89.47,-209.659,-30.197
89.5,-207.132,-29.842
89.53,-204.816,-29.452
89.56,-202.499,-29.063
89.6,-200.464,-28.639
89.63,-198.007,-28.261
89.66,-195.305,-27.974
89.69,-192.918,-27.551
89.73,-190.251,-27.024
89.76,-187.479,-26.577
89.79,-184.636,-26.21
89.82,-182.249,-25.844
89.86,-180.354,-25.42
89.89,-177.933,-24.996
89.92,-174.809,-24.698
89.95,-171.861,-24.309
89.99,-169.019,-23.77
90.02,-166.106,-23.232
90.05,-162.947,-22.739
90.08,-159.824,-22.327
90.12,-157.121,-21.857
90.15,-154.138,-21.296
90.18,-150.488,-20.792
90.21,-146.909,-20.345
90.25,-143.118,-19.692
90.28,-139.398,-19.073
90.31,-136.029,-18.432
90.35,-132.484,-18.031
90.38,-130.273,-17.768
90.41,-127.957,-17.344
90.44,-124.974,-17.092
90.48,-122.096,-16.771
90.51,-118.797,-16.336
90.54,-115.674,-15.809
90.57,-112.515,-15.19
90.61,-109.322,-14.743
90.64,-106.374,-14.297
90.67,-102.689,-13.724
90.7,-99.004,-13.162
90.74,-95.354,-12.544
90.77,-91.493,-12.074
90.8,-88.335,-11.582
90.83,-85.246,-11.009
90.87,-82.018,-10.619
90.9,-79.245,-10.344
90.93,-76.648,-10.012
90.96,-73.77,-9.611
91.0,-70.436,-9.13
91.03,-66.646,-8.66
91.06,-63.031,-8.111
91.09,-59.557,-7.469
91.13,-56.082,-6.839
91.16,-52.327,-6.312
91.19,-48.537,-5.831
91.22,-44.992,-5.315
91.26,-41.623,-4.743
91.29,-37.727,-4.239
91.32,-34.113,-3.861
91.35,-32.323,-3.654
91.39,-29.094,-2.898
91.42,-23.058,-2.44
91.45,-19.373,-1.993
91.48,-15.512,-1.168
91.52,-13.091,-0.55
91.55,-9.441,-0.126
91.58,-5.054,-0.229
91.61,-0.807,-0.241
91.65,0.702,0.538
91.68,3.966,1.604
91.71,8.107,1.237
91.74,9.827,1.673
91.78,15.933,1.982
91.81,20.461,1.707
91.84,23.935,2.051
91.87,26.672,2.429
91.91,29.059,2.875
91.94,31.972,3.288
91.97,34.358,3.803
92.0,35.867,4.766
92.04,38.148,5.911
92.07,40.71,6.862
92.1,42.57,8.03
92.14,43.764,9.542
92.17,45.483,11.272
92.2,51.625,11.937
92.23,58.855,11.742
92.27,65.347,12.04
92.3,70.682,12.235
92.33,73.138,12.372
92.36,74.542,12.372
92.4,76.683,12.509
92.43,80.473,12.807
92.46,84.369,13.197
92.49,87.843,13.804
92.53,91.072,14.423
92.56,93.704,15.041
92.59,96.793,15.557
92.62,100.092,15.877
92.66,103.075,16.29
92.69,106.514,16.851
92.72,110.129,17.367
92.75,113.603,17.859
92.79,116.937,18.363
92.82,119.78,18.89
92.85,122.798,19.417
92.88,126.308,19.795
92.92,129.466,20.196
92.95,132.73,20.769
92.98,136.696,21.422
93.01,140.451,21.96
93.05,143.364,22.407
93.08,145.399,22.785
93.11,147.681,23.175
93.14,150.945,23.461
93.18,153.928,23.747
93.21,156.7,24.171
93.24,158.946,24.652
93.27,162.491,25.328
93.31,166.281,25.695
93.34,168.457,26.199
93.37,171.159,26.726
93.4,173.756,27.035
93.44,176.599,27.447
93.47,180.074,27.86
93.5,182.881,28.387
93.53,185.619,28.96
93.57,188.707,29.303
93.6,190.883,29.555
93.63,192.883,29.922
93.66,195.059,30.231
93.7,197.27,30.495
93.73,199.832,30.793
93.76,202.078,31.148
93.79,204.324,31.629
93.83,206.781,32.007
93.86,208.852,32.247
93.89,210.396,32.557
93.93,212.466,32.9
93.96,214.642,33.233
93.99,217.204,33.576
94.02,219.45,33.908
94.06,221.31,34.355
94.09,223.486,34.733
94.12,225.592,34.939
94.15,227.031,35.134
94.19,228.926,35.478
94.22,230.927,35.776
94.25,233.032,36.085
94.28,234.927,36.371
94.32,236.366,36.658
94.35,237.63,36.921
94.38,239.104,37.105
94.41,240.858,37.265
94.45,242.438,37.483
94.48,244.193,37.872
94.51,246.158,38.17
94.54,248.053,38.491
94.58,249.878,38.777
94.61,251.527,39.155
94.64,253.282,39.419
94.67,254.335,39.545
94.71,255.634,39.728
94.74,257.283,39.911
94.77,258.862,40.186
94.8,260.547,40.461
94.84,261.916,40.656
94.87,262.723,40.839
94.9,263.495,40.976
94.93,264.372,41.045
94.97,265.636,41.091
95.0,266.794,41.297
95.03,268.163,41.595
95.06,269.566,41.859
95.1,270.935,42.076
95.13,272.339,42.305
95.16,273.532,42.58
95.19,274.655,42.775
95.23,275.743,42.855
95.26,276.691,42.97
95.29,277.779,43.13
95.32,278.972,43.313
95.36,280.235,43.474
95.39,281.113,43.6
95.42,281.674,43.714
95.45,282.025,43.737
95.49,282.236,43.703
95.52,282.376,43.611
95.55,282.727,43.623
95.58,283.289,43.669
95.62,283.78,43.795
95.65,284.306,43.875
95.68,284.657,43.943
95.72,284.903,44.001
95.75,284.903,43.989
95.78,284.868,43.886
95.81,284.727,43.817
95.85,285.008,43.783
95.88,284.973,43.783
95.91,285.149,43.817
95.94,285.078,43.772
95.98,285.078,43.806
96.01,285.008,43.76
96.04,284.973,43.726
96.07,285.043,43.68
96.11,285.64,43.772
96.14,285.219,43.646
96.17,284.096,43.554
96.2,283.253,43.21
96.24,281.815,42.844
96.27,280.516,42.523
96.3,279.288,42.225
96.33,278.41,42.042
96.37,278.094,41.962
96.4,277.252,41.95
96.43,276.55,41.962
96.46,275.603,41.733
96.5,274.234,41.503
96.53,273.286,41.286
96.56,272.234,41.103
96.59,271.461,40.908
96.63,270.619,40.667
96.66,269.25,40.484
96.69,267.882,40.301
96.72,266.408,39.98
96.76,264.758,39.636
96.79,263.214,39.281
96.82,261.565,39.018
96.85,260.336,38.788
96.89,259.108,38.536
96.92,257.739,38.342
96.95,256.335,38.181
96.98,254.826,37.964
97.02,253.247,37.631
97.05,251.633,37.288
97.08,250.089,37.082
97.11,248.685,36.83
97.15,246.93,36.532
97.18,245.807,36.303
97.21,244.052,35.948
97.24,241.631,35.684
97.28,239.349,35.18
97.31,237.419,34.825
97.34,236.612,34.538
97.37,234.927,34.332
97.41,232.927,34.172
97.44,231.313,33.851
97.47,229.663,33.565
97.51,227.768,33.347
97.54,226.083,33.072
97.57,224.013,32.637
97.6,221.942,32.259
97.64,219.977,31.915
97.67,217.941,31.583
97.7,216.151,31.274
97.73,214.432,30.919
97.77,212.08,30.621
97.8,209.624,30.323
97.83,207.378,29.91
97.86,205.237,29.441
97.9,202.991,29.097
97.93,200.955,28.811
97.96,198.639,28.478
97.99,196.393,28.055
98.03,193.69,27.596
98.06,190.918,27.218
98.09,188.216,26.783
98.12,185.724,26.313
98.16,183.408,25.878
98.19,181.021,25.523
98.22,178.178,25.179
98.25,175.441,24.755
98.29,172.353,24.194
98.32,169.019,23.736
98.35,166.035,23.278
98.38,163.017,22.716
98.42,160.034,22.201
98.45,157.191,21.754
98.48,153.963,21.399
98.51,150.594,20.895
98.55,146.979,20.299
98.58,143.75,19.772
98.61,140.451,19.28
98.64,137.433,18.879
98.68,134.45,18.317
98.71,131.01,17.848
98.74,128.098,17.527
98.77,125.114,17.057
98.81,121.921,16.668
98.84,119.604,16.221
98.87,115.884,15.66
98.9,112.305,15.408
98.94,110.445,14.904
98.97,107.462,14.365
99.0,103.987,13.999
99.03,100.443,13.483
99.07,96.266,12.842
99.1,92.581,12.2
99.13,89.177,11.536
99.16,85.597,11.1
99.2,82.439,10.677
99.23,79.245,10.173
99.26,75.735,9.714
99.3,72.366,9.336
99.33,69.032,8.878
99.36,65.733,8.351
99.39,62.364,7.801
99.43,58.679,7.309
99.46,55.17,6.873
99.49,51.871,6.335
99.52,48.502,5.785
99.56,45.097,5.315
99.59,41.377,4.857
99.62,37.692,4.33
99.65,34.709,3.906
99.69,33.446,3.746
99.72,29.936,3.116
99.75,24.11,2.761
99.78,20.987,2.188
99.82,18.039,1.294
99.85,15.793,0.928
99.88,12.985,0.515
99.91,9.125,0.034
99.95,3.053,-0.034
99.98,-0.14,-0.286
100.01,-3.018,-1.65
100.04,-8.774,-1.42
100.08,-10.669,-1.249
100.11,-14.986,-1.925
100.14,-19.478,-1.936
100.17,-22.566,-2.062
100.21,-26.743,-2.325
100.24,-30.077,-2.589
100.27,-31.902,-3.345
100.3,-34.253,-4.216
100.34,-36.639,-4.88
100.37,-38.499,-5.739
100.4,-39.833,-6.942
100.43,-41.553,-8.385
100.47,-43.553,-9.646
100.5,-45.203,-11.123
100.53,-50.748,-12.189
100.56,-58.328,-11.994
100.6,-64.47,-12.12
100.63,-70.19,-12.189
100.66,-72.296,-12.235
100.69,-73.7,-12.418
100.73,-76.508,-12.441
100.76,-80.157,-12.635
100.79,-83.842,-13.14
100.82,-87.457,-13.873
100.86,-90.862,-14.491
100.89,-93.81,-15.018
100.92,-96.828,-15.499
100.95,-99.916,-15.992
100.99,-103.215,-16.45
101.02,-106.97,-16.863
101.05,-110.304,-17.344
101.09,-113.603,-17.962
101.12,-116.972,-18.501
101.15,-120.236,-18.936
101.18,-123.395,-19.371
101.22,-126.413,-19.864
101.25,-129.501,-20.368
101.28,-133.081,-20.815
101.31,-136.485,-21.25
101.35,-139.749,-21.857
101.38,-143.153,-22.43
101.41,-145.715,-22.831
101.44,-148.769,-23.266
101.48,-151.717,-23.564
101.51,-154.208,-24.011
101.54,-157.121,-24.435
101.57,-160.631,-24.881
101.61,-163.438,-25.259
101.64,-165.825,-25.878
101.67,-168.738,-26.256
101.7,-170.949,-26.52
101.74,-173.967,-26.955
101.77,-177.09,-27.379
101.8,-180.003,-27.997
101.83,-183.478,-28.559
101.87,-186.496,-28.948
101.9,-188.988,-29.441
101.93,-191.76,-29.888
101.96,-194.147,-30.174
102.0,-196.428,-30.437
102.03,-198.639,-30.724
102.06,-200.885,-31.136
102.09,-203.552,-31.503
102.13,-206.184,-31.801
102.16,-207.658,-32.064
102.19,-209.413,-32.499
102.22,-211.87,-32.763
102.26,-213.94,-33.061
102.29,-216.713,-33.519
102.32,-219.24,-33.943
102.35,-221.275,-34.435
102.39,-223.767,-34.779
102.42,-226.048,-35.043
102.45,-228.154,-35.466
102.48,-230.646,-35.856
102.52,-232.822,-36.154
102.55,-234.752,-36.452
102.58,-236.577,-36.726
102.61,-238.297,-37.036
102.65,-240.262,-37.299
102.68,-242.157,-37.471
102.71,-243.596,-37.723
102.74,-245.035,-38.032
102.78,-246.719,-38.262
102.81,-248.439,-38.456
102.84,-250.089,-38.697
102.88,-251.633,-39.029
102.91,-253.282,-39.315
102.94,-254.897,-39.556
102.97,-256.651,-39.831
103.01,-258.441,-40.152
103.04,-260.056,-40.461
103.07,-261.81,-40.724
103.1,-263.039,-40.839
103.14,-264.197,-41.091
103.17,-265.636,-41.274
103.2,-266.794,-41.423
103.23,-267.847,-41.469
103.27,-268.233,-41.549
103.3,-268.97,-41.687
103.33,-269.882,-41.744
103.36,-270.935,-41.859
103.4,-271.988,-42.042
103.43,-273.041,-42.317
103.46,-274.164,-42.534
103.49,-275.111,-42.649
103.53,-275.848,-42.764
103.56,-276.62,-42.878
103.59,-277.568,-43.027
103.62,-278.691,-43.142
103.66,-279.99,-43.348
103.69,-281.078,-43.565
103.72,-281.92,-43.737
103.75,-282.446,-43.817
103.79,-282.903,-43.829
103.82,-283.289,-43.806
103.85,-283.815,-43.863
103.88,-284.622,-43.943
103.92,-285.464,-44.047
103.95,-286.096,-44.161
103.98,-286.272,-44.23
104.01,-286.096,-44.184
104.05,-285.675,-43.978
104.08,-285.008,-43.737
104.11,-284.482,-43.6
104.14,-284.657,-43.554
104.18,-285.043,-43.611
104.21,-285.324,-43.691
104.24,-284.938,-43.714
104.27,-284.271,-43.646
104.31,-283.955,-43.531
104.34,-283.85,-43.348
104.37,-283.499,-43.302
104.4,-283.675,-43.302
104.44,-283.71,-43.336
104.47,-283.604,-43.291
104.5,-282.727,-43.176
104.53,-281.709,-42.935
104.57,-280.762,-42.741
104.6,-278.375,-41.893
104.63,-267.25,-39.819
104.67,-256.055,-38.078
104.7,-252.721,-36.348
104.73,-251.703,-35.661
104.76,-251.422,-35.97
104.8,-248.369,-36.348
104.83,-245.561,-36.99
104.86,-248.158,-37.574
104.89,-252.405,-38.273
104.93,-256.02,-39.373
104.96,-259.319,-40.358
104.99,-261.916,-40.954
105.02,-263.635,-41.068
105.06,-264.056,-40.896
105.09,-263.811,-40.53
105.12,-263.53,-40.037
105.15,-262.933,-39.579
105.19,-262.653,-39.315
105.22,-261.81,-39.063
105.25,-260.196,-38.857
105.28,-259.319,-38.651
105.32,-258.231,-38.33
105.35,-256.055,-38.055
105.38,-254.37,-37.792
105.41,-253.036,-37.391
105.45,-251.738,-37.116
105.48,-250.124,-36.864
105.51,-248.088,-36.669
105.54,-246.474,-36.383
105.58,-244.859,-35.982
105.61,-242.929,-35.673
105.64,-241.42,-35.443
105.67,-239.665,-35.111
105.71,-237.7,-34.802
105.74,-235.524,-34.39
105.77,-233.348,-34.092
105.8,-231.593,-33.759
105.84,-229.242,-33.313
105.87,-226.75,-32.877
105.9,-224.048,-32.499
105.93,-222.118,-32.224
105.97,-220.749,-31.881
106.0,-218.959,-31.594
106.03,-216.994,-31.423
106.06,-214.818,-31.079
106.1,-211.8,-30.632
106.13,-209.378,-30.128
106.16,-206.921,-29.635
106.19,-204.57,-29.349
106.23,-202.78,-29.04
106.26,-200.92,-28.685
106.29,-198.639,-28.433
106.32,-196.533,-28.215
106.36,-193.901,-27.78
106.39,-191.339,-27.344
106.42,-189.268,-26.84
106.46,-186.356,-26.474
106.49,-183.899,-26.164
106.52,-181.828,-25.649
106.55,-178.845,-25.099
106.59,-175.652,-24.744
106.62,-172.668,-24.286
106.65,-169.37,-23.759
106.68,-166.422,-23.22
106.72,-163.298,-22.693
106.75,-160.139,-22.315
106.78,-157.542,-21.903
106.81,-154.7,-21.342
106.85,-150.874,-20.872
106.88,-147.295,-20.425
106.91,-144.101,-19.887
106.94,-140.942,-19.314
106.98,-137.924,-18.821
107.01,-134.59,-18.386
107.04,-131.081,-17.974
107.07,-127.957,-17.458
107.11,-124.518,-16.84
107.14,-120.868,-16.404
107.17,-117.955,-15.98
107.2,-114.867,-15.465
107.24,-111.533,-14.949
107.27,-108.234,-14.537
107.3,-105.145,-14.136
107.33,-101.776,-13.632
107.37,-98.688,-13.14
107.4,-95.529,-12.624
107.43,-91.809,-12.2
107.46,-88.545,-11.742
107.5,-85.492,-11.192
107.53,-82.614,-10.757
107.56,-79.877,-10.436
107.59,-77.104,-10.104
107.63,-74.156,-9.691
107.66,-70.892,-9.164
107.69,-66.962,-8.672
107.72,-63.347,-8.133
107.76,-59.908,-7.503
107.79,-56.573,-6.919
107.82,-53.064,-6.404
107.85,-49.274,-5.945
107.89,-45.448,-5.396
107.92,-41.623,-4.8
107.95,-37.833,-4.25
107.98,-35.341,-4.055
108.02,-34.148,-3.792
108.05,-29.761,-3.082
108.08,-24.391,-2.807
108.11,-21.198,-2.154
108.15,-17.232,-1.569
108.18,-16.003,-1.02
108.21,-12.845,-0.115
108.24,-7.335,-0.034
108.28,-1.685,-0.195
108.31,0.667,0.515
108.34,3.86,1.638
108.38,7.932,1.191
108.41,9.441,1.661
108.44,15.968,2.119
108.47,20.987,1.707
108.51,23.549,1.902
108.54,26.497,2.497
108.57,29.585,2.875
108.6,31.866,3.299
108.64,34.393,3.861
108.67,36.078,4.754
108.7,38.219,5.934
108.73,40.886,6.965
108.77,42.746,8.076
108.8,44.08,9.634
108.83,46.115,11.478
108.86,51.625,12.154
108.9,58.188,11.902
108.93,64.224,11.914
108.96,68.646,11.914
108.99,71.489,12.028
109.03,73.244,11.937
109.06,74.788,12.086
109.09,78.438,12.487
109.12,82.509,12.899
109.16,86.159,13.563
109.19,89.563,14.262
109.22,92.511,14.904
109.25,95.599,15.454
109.29,99.249,15.877
109.32,102.618,16.267
109.35,105.917,16.851
109.38,109.673,17.412
109.42,113.287,17.894
109.45,116.621,18.363
109.48,119.499,18.913
109.51,122.868,19.429
109.55,126.202,19.852
109.58,129.817,20.299
109.61,132.625,20.735
109.64,135.889,21.376
109.68,139.433,21.811
109.71,142.767,22.258
109.74,144.838,22.556
109.77,147.014,23.071
109.81,150.102,23.335
109.84,153.612,23.782
109.87,156.946,24.206
109.9,159.683,24.893
109.94,162.912,25.42
109.97,165.509,25.809
110.0,168.492,26.245
110.03,171.3,26.646
110.07,173.967,27.069
110.1,176.81,27.459
110.13,179.793,27.848
110.17,182.671,28.387
110.2,185.548,28.914
110.23,188.531,29.326
110.26,190.988,29.601
110.3,192.989,29.979
110.33,195.27,30.334
110.36,197.446,30.598
110.39,199.937,30.873
110.43,202.254,31.193
110.46,204.079,31.606
110.49,206.36,31.972
110.52,208.536,32.19
110.56,210.22,32.499
110.59,212.256,32.866
110.62,214.326,33.221
110.65,216.748,33.588
110.69,219.17,33.897
110.72,221.03,34.332
110.75,223.381,34.79
110.78,225.522,34.974
110.82,226.575,35.146
110.85,228.294,35.421
110.88,230.33,35.684
110.91,232.611,36.051
110.95,234.927,36.383
110.98,236.647,36.761
111.01,238.753,37.231
111.04,240.929,37.517
111.08,242.297,37.723
111.11,244.298,38.032
111.14,246.228,38.25
111.17,247.702,38.582
111.21,249.316,38.685
111.24,250.299,38.857
111.27,251.984,39.121
111.3,253.212,39.281
111.34,254.124,39.441
111.37,255.388,39.579
111.4,256.686,39.808
111.43,258.231,40.094
111.47,259.775,40.358
111.5,261.284,40.61
111.53,262.477,40.828
111.56,263.425,41.034
111.6,264.442,41.183
111.63,265.636,41.24
111.66,266.969,41.446
111.69,268.408,41.733
111.73,269.812,42.007
111.76,271.251,42.214
111.79,272.62,42.42
111.82,273.848,42.672
111.86,274.901,42.855
111.89,275.954,42.947
111.92,276.901,43.027
111.96,277.744,43.153
111.99,278.761,43.302
112.02,279.884,43.428
112.05,280.727,43.577
112.09,281.429,43.68
112.12,281.92,43.772
112.15,282.341,43.795
112.18,282.622,43.76
112.22,283.078,43.783
112.25,283.71,43.863
112.28,284.377,43.978
112.31,284.798,44.047
112.35,285.043,44.081
112.38,285.078,44.081
112.41,284.973,44.024
112.44,284.692,43.886
112.48,285.008,43.863
112.51,285.394,43.875
112.54,285.605,43.955
112.57,285.219,43.909
112.61,284.727,43.806
112.64,283.78,43.543
112.67,283.604,43.531
112.7,283.745,43.348
112.74,283.183,43.371
112.77,283.815,43.439
112.8,283.64,43.405
112.83,283.429,43.52
112.87,283.113,43.313
112.9,281.885,43.119
112.93,281.183,42.901
112.96,280.13,42.58
113.0,279.533,42.466
113.03,279.393,42.294
113.06,278.375,42.248
113.09,277.603,42.191
113.13,276.445,41.893
113.16,275.006,41.618
113.19,273.848,41.343
113.22,272.444,41.125
113.26,271.461,40.908
113.29,270.619,40.656
113.32,269.391,40.507
113.35,268.163,40.381
113.39,266.513,40.072
113.42,264.758,39.705
113.45,263.109,39.35
113.48,261.565,39.041
113.52,260.196,38.811
113.55,258.932,38.559
113.58,257.388,38.33
113.61,256.055,38.193
113.65,254.932,38.021
113.68,253.528,37.757
113.71,252.124,37.505
113.75,250.755,37.276
113.78,249.457,37.093
113.81,248.053,36.83
113.84,246.684,36.52
113.88,245.0,36.211
113.91,242.999,35.936
113.94,241.209,35.581
113.97,239.139,35.134
114.01,237.454,34.813
114.04,235.664,34.504
114.07,233.629,34.264
114.1,232.014,33.943
114.14,230.119,33.576
114.17,227.908,33.347
114.2,226.048,33.049
114.23,223.907,32.625
114.27,222.047,32.293
114.3,220.503,31.995
114.33,218.573,31.766
114.36,216.713,31.468
114.4,214.783,31.079
114.43,212.326,30.712
114.46,209.764,30.346
114.49,207.378,29.922
114.53,205.167,29.429
114.56,202.78,29.04
114.59,200.464,28.776
114.62,198.393,28.478
114.66,196.288,28.078
114.69,193.515,27.631
114.72,190.742,27.253
114.75,188.11,26.817
114.79,185.268,26.313
114.82,182.741,25.832
114.85,180.284,25.397
114.88,177.617,25.065
114.92,175.02,24.698
114.95,172.002,24.171
114.98,168.633,23.724
115.01,165.685,23.289
115.05,162.631,22.728
115.08,159.613,22.212
115.11,156.805,21.731
115.14,153.612,21.33
115.18,150.208,20.883
115.21,146.558,20.242
115.24,142.873,19.658
115.27,139.714,19.199
115.31,137.047,18.799
115.34,134.485,18.375
115.37,131.361,17.928
115.4,127.887,17.573
115.44,125.044,17.183
115.47,122.096,16.702
115.5,119.78,16.29
115.54,116.411,15.728
115.57,112.41,15.385
115.6,109.778,14.892
115.63,106.9,14.285
115.67,103.461,13.827
115.7,99.881,13.357
115.73,95.775,12.75
115.76,91.914,12.097
115.8,88.405,11.456
115.83,84.755,10.963
115.86,81.596,10.596
115.89,78.824,10.127
115.93,75.63,9.714
115.96,72.366,9.371
115.99,68.962,8.947
116.02,65.698,8.454
116.06,62.54,7.893
116.09,59.241,7.446
116.12,56.012,7.011
116.15,52.818,6.53
116.19,49.554,6.014
116.22,46.08,5.51
116.25,42.36,5.063
116.28,38.956,4.559
116.32,35.867,4.078
116.35,34.604,3.975
116.38,31.375,3.288
116.41,24.847,2.83
116.45,21.057,2.245
116.48,17.583,1.237
116.51,14.775,0.825
116.54,12.389,0.619
116.58,9.406,0.149
116.61,3.439,-0.115
