Trigger_Date,2023/07/06
Trigger_Time,T 11:50:47.647 PDT
Samples_Per_Cycle,512
Microseconds_Per_Sample,32.563
Time (ms),Voltage (V),Current (A)
-16.67,0.597,0.458
-16.64,3.474,1.546
-16.61,7.51,1.191
-16.57,8.914,1.627
-16.54,15.372,2.062
-16.51,20.706,1.753
-16.48,24.146,2.039
-16.44,27.094,2.509
-16.41,29.831,2.99
-16.38,32.849,3.437
-16.35,35.341,4.044
-16.31,37.025,5.098
-16.28,39.517,6.312
-16.25,41.974,7.412
-16.22,43.869,8.649
-16.18,44.852,10.367
-16.15,48.256,12.005
-16.12,55.591,12.097
-16.09,61.557,11.891
-16.05,67.102,12.097
-16.02,71.7,12.223
-15.99,74.051,12.326
-15.96,76.157,12.464
-15.92,79.07,12.716
-15.89,82.368,13.071
-15.86,85.667,13.54
-15.83,89.037,14.045
-15.79,91.949,14.583
-15.76,94.827,15.19
-15.73,98.302,15.671
-15.7,101.495,16.049
-15.66,104.584,16.553
-15.63,108.163,17.137
-15.6,111.533,17.619
-15.56,114.832,18.1
-15.53,118.095,18.569
-15.5,121.043,19.085
-15.47,124.307,19.623
-15.43,127.747,19.99
-15.4,130.87,20.448
-15.37,134.239,21.009
-15.34,137.152,21.468
-15.3,140.521,22.075
-15.27,144.031,22.338
-15.24,145.891,22.819
-15.21,149.19,23.358
-15.17,152.138,23.61
-15.14,155.261,24.102
-15.11,158.209,24.481
-15.08,160.982,25.111
-15.04,164.211,25.569
-15.01,166.632,25.878
-14.98,168.317,26.119
-14.95,169.791,26.359
-14.91,171.861,26.554
-14.88,174.739,26.829
-14.85,177.933,27.299
-14.82,180.811,27.963
-14.78,183.653,28.616
-14.75,186.847,29.166
-14.72,189.935,29.555
-14.69,192.708,30.059
-14.65,195.796,30.575
-14.62,198.814,30.987
-14.59,201.622,31.331
-14.56,204.044,31.732
-14.52,206.395,32.156
-14.49,209.097,32.488
-14.46,211.203,32.683
-14.43,212.782,32.992
-14.39,214.713,33.267
-14.36,216.713,33.565
-14.33,219.205,33.874
-14.29,221.381,34.138
-14.26,222.96,34.561
-14.23,224.785,34.871
-14.2,226.048,34.962
-14.16,227.171,35.1
-14.13,228.821,35.34
-14.1,230.435,35.558
-14.07,232.401,35.925
-14.03,234.296,36.131
-14.0,234.927,36.429
-13.97,236.823,36.795
-13.94,238.823,36.99
-13.9,240.613,37.288
-13.87,241.841,37.494
-13.84,243.21,37.849
-13.81,245.386,38.101
-13.77,247.246,38.342
-13.74,249.036,38.651
-13.71,250.65,39.018
-13.68,252.159,39.281
-13.64,253.528,39.453
-13.61,255.072,39.625
-13.58,256.686,39.9
-13.55,258.476,40.198
-13.51,260.126,40.461
-13.48,261.705,40.724
-13.45,262.968,40.954
-13.42,263.986,41.171
-13.38,265.285,41.274
-13.35,266.548,41.366
-13.32,267.847,41.572
-13.29,269.11,41.824
-13.25,270.444,42.053
-13.22,271.777,42.214
-13.19,273.111,42.454
-13.16,274.234,42.66
-13.12,275.252,42.855
-13.09,276.27,42.912
-13.06,277.112,43.027
-13.03,278.059,43.142
-12.99,279.077,43.313
-12.96,280.235,43.439
-12.93,281.007,43.588
-12.89,281.569,43.691
-12.86,281.92,43.726
-12.83,282.166,43.691
-12.8,282.341,43.646
-12.76,282.973,43.68
-12.73,283.675,43.772
-12.7,284.166,43.898
-12.67,284.552,43.966
-12.63,284.763,43.989
-12.6,284.868,44.024
-12.57,284.692,43.909
-12.54,284.236,43.795
-12.5,284.517,43.714
-12.47,284.798,43.726
-12.44,285.043,43.806
-12.41,284.973,43.852
-12.37,284.938,43.76
-12.34,284.096,43.657
-12.31,284.552,43.669
-12.28,284.341,43.497
-12.24,284.341,43.634
-12.21,284.938,43.577
-12.18,284.587,43.669
-12.15,284.692,43.623
-12.11,283.78,43.394
-12.08,282.692,43.176
-12.05,281.569,42.821
-12.02,280.411,42.569
-11.98,280.06,42.374
-11.95,279.533,42.248
-11.92,278.586,42.237
-11.89,277.779,42.111
-11.85,276.515,41.847
-11.82,275.146,41.572
-11.79,273.813,41.297
-11.76,272.444,41.068
-11.72,271.637,40.862
-11.69,270.654,40.598
-11.66,269.215,40.45
-11.62,267.847,40.266
-11.59,266.197,39.934
-11.56,264.513,39.613
-11.53,263.109,39.258
-11.49,261.565,39.018
-11.46,260.266,38.8
-11.43,258.862,38.514
-11.4,257.248,38.284
-11.36,255.879,38.113
-11.33,254.546,37.872
-11.3,253.001,37.597
-11.27,251.527,37.288
-11.23,250.053,37.105
-11.2,248.509,36.83
-11.17,246.544,36.497
-11.14,245.0,36.142
-11.1,243.105,35.799
-11.07,241.104,35.501
-11.04,238.788,35.077
-11.01,237.419,34.825
-10.97,236.156,34.481
-10.94,234.225,34.39
-10.91,232.822,34.172
-10.88,231.277,33.863
-10.84,229.628,33.611
-10.81,227.803,33.381
-10.78,225.873,33.049
-10.75,223.767,32.614
-10.71,221.661,32.167
-10.68,219.731,31.858
-10.65,217.871,31.537
-10.62,215.8,31.205
-10.58,213.765,30.804
-10.55,210.957,30.426
-10.52,208.255,30.071
-10.49,206.009,29.613
-10.45,203.868,29.143
-10.42,201.552,28.845
-10.39,199.516,28.605
-10.35,197.516,28.318
-10.32,195.2,27.894
-10.29,192.322,27.459
-10.26,189.549,27.047
-10.22,186.812,26.565
-10.19,184.215,26.073
-10.16,181.828,25.615
-10.13,179.161,25.214
-10.09,176.283,24.904
-10.06,173.686,24.435
-10.03,170.493,23.908
-10.0,167.264,23.484
-9.96,164.316,23.014
-9.93,161.473,22.522
-9.9,158.911,22.04
-9.87,156.104,21.674
-9.83,153.226,21.365
-9.8,149.962,20.872
-9.77,146.417,20.265
-9.74,143.013,19.704
-9.7,139.539,19.165
-9.67,136.064,18.638
-9.64,132.835,18.042
-9.61,129.572,17.55
-9.57,126.764,17.241
-9.54,123.921,16.851
-9.51,121.078,16.53
-9.48,118.587,16.061
-9.44,114.41,15.568
-9.41,111.076,15.202
-9.38,108.69,14.629
-9.35,106.093,14.171
-9.31,103.04,13.781
-9.28,99.074,13.3
-9.25,94.897,12.693
-9.22,91.212,11.994
-9.18,87.843,11.375
-9.15,84.264,10.906
-9.12,81.175,10.493
-9.08,78.052,9.989
-9.05,74.718,9.6
-9.02,71.629,9.256
-8.99,68.471,8.844
-8.95,65.312,8.351
-8.92,62.048,7.836
-8.89,58.574,7.366
-8.86,55.38,6.965
-8.82,52.397,6.438
-8.79,49.063,5.923
-8.76,45.378,5.418
-8.73,41.588,4.949
-8.69,37.833,4.33
-8.66,35.095,4.009
-8.63,33.867,3.666
-8.6,28.497,2.91
-8.56,22.777,2.612
-8.53,19.899,1.787
-8.5,16.565,0.974
-8.47,14.284,0.745
-8.43,11.652,0.458
-8.4,7.791,0.0
-8.37,1.965,0.0
-8.34,-0.246,-0.435
-8.3,-3.299,-1.558
-8.27,-8.107,-1.272
-8.24,-10.669,-1.524
-8.21,-16.46,-2.062
-8.17,-20.811,-1.959
-8.14,-23.689,-2.142
-8.11,-27.585,-2.394
-8.08,-30.708,-2.749
-8.04,-32.603,-3.54
-8.01,-34.99,-4.399
-7.98,-37.341,-5.121
-7.95,-39.131,-6.026
-7.91,-40.64,-7.354
-7.88,-42.886,-8.89
-7.85,-45.168,-10.31
-7.82,-47.835,-11.811
-7.78,-54.678,-12.372
-7.75,-61.311,-12.051
-7.72,-66.541,-12.166
-7.68,-71.594,-12.189
-7.65,-74.086,-12.338
-7.62,-76.227,-12.59
-7.59,-79.21,-12.784
-7.55,-82.474,-13.014
-7.52,-85.562,-13.518
-7.49,-89.142,-14.148
-7.46,-92.336,-14.675
-7.42,-95.389,-15.167
-7.39,-98.232,-15.637
-7.36,-101.109,-16.129
-7.33,-104.478,-16.576
-7.29,-107.918,-16.954
-7.26,-111.147,-17.47
-7.23,-114.516,-18.054
-7.2,-117.78,-18.581
-7.16,-120.938,-19.016
-7.13,-123.816,-19.383
-7.1,-126.588,-19.887
-7.07,-129.958,-20.391
-7.03,-133.607,-20.838
-7.0,-137.082,-21.365
-6.97,-140.627,-22.018
-6.94,-143.61,-22.522
-6.9,-145.891,-22.923
-6.87,-149.014,-23.255
-6.84,-151.892,-23.564
-6.81,-154.735,-24.068
-6.77,-158.209,-24.584
-6.74,-161.824,-25.065
-6.71,-164.667,-25.603
-6.68,-167.509,-26.21
-6.64,-170.282,-26.565
-6.61,-172.844,-26.898
-6.58,-175.827,-27.253
-6.55,-178.564,-27.7
-6.51,-181.548,-28.261
-6.48,-185.057,-28.719
-6.45,-187.935,-29.109
-6.41,-190.321,-29.601
-6.38,-192.778,-29.991
-6.35,-194.884,-30.231
-6.32,-197.165,-30.483
-6.28,-199.411,-30.781
-6.25,-201.622,-31.193
-6.22,-204.114,-31.514
-6.19,-206.079,-31.755
-6.15,-207.764,-32.076
-6.12,-209.518,-32.396
-6.09,-211.238,-32.637
-6.06,-213.098,-32.877
-6.02,-215.169,-33.152
-5.99,-217.064,-33.542
-5.96,-219.205,-33.931
-5.93,-221.346,-34.218
-5.89,-223.206,-34.516
-5.86,-225.066,-34.905
-5.83,-226.961,-35.214
-5.8,-228.786,-35.443
-5.76,-230.681,-35.707
-5.73,-232.295,-35.948
-5.7,-233.839,-36.291
-5.67,-235.594,-36.486
-5.63,-237.524,-36.818
-5.6,-239.735,-37.105
-5.57,-240.648,-37.379
-5.54,-242.543,-37.757
-5.5,-244.193,-37.746
-5.47,-245.245,-38.078
-5.44,-247.386,-38.376
-5.41,-249.211,-38.685
-5.37,-251.247,-39.018
-5.34,-252.896,-39.247
-5.31,-254.089,-39.579
-5.28,-255.809,-39.831
-5.24,-257.423,-40.014
-5.21,-259.108,-40.255
-5.18,-260.793,-40.541
-5.14,-262.302,-40.828
-5.11,-263.425,-40.988
-5.08,-264.513,-41.091
-5.05,-265.495,-41.217
-5.01,-266.513,-41.412
-4.98,-267.671,-41.526
-4.95,-268.97,-41.664
-4.92,-270.163,-41.87
-4.88,-271.461,-42.191
-4.85,-272.83,-42.397
-4.82,-274.094,-42.58
-4.79,-275.111,-42.752
-4.75,-276.094,-42.901
-4.72,-276.831,-43.004
-4.69,-277.814,-43.096
-4.66,-278.867,-43.187
-4.62,-279.779,-43.359
-4.59,-280.516,-43.474
-4.56,-281.042,-43.565
-4.53,-281.499,-43.554
-4.49,-281.744,-43.577
-4.46,-281.885,-43.554
-4.43,-282.411,-43.611
-4.4,-283.183,-43.634
-4.36,-283.675,-43.772
-4.33,-284.096,-43.875
-4.3,-284.447,-43.966
-4.27,-284.938,-43.966
-4.23,-284.938,-43.955
-4.2,-284.692,-43.875
-4.17,-284.517,-43.829
-4.14,-284.903,-43.726
-4.1,-284.763,-43.68
-4.07,-284.552,-43.634
-4.04,-284.166,-43.634
-4.01,-284.727,-43.634
-3.97,-283.534,-43.336
-3.94,-282.622,-43.359
-3.91,-283.113,-43.176
-3.87,-283.078,-43.21
-3.84,-283.429,-43.268
-3.81,-282.727,-43.199
-3.78,-281.429,-43.061
-3.74,-280.481,-42.764
-3.71,-279.533,-42.431
-3.68,-278.831,-42.248
-3.65,-278.481,-42.156
-3.61,-278.165,-42.145
-3.58,-277.814,-42.099
-3.55,-277.007,-41.996
-3.52,-275.673,-41.824
-3.48,-274.339,-41.572
-3.45,-273.357,-41.24
-3.42,-272.409,-40.954
-3.39,-271.497,-40.839
-3.35,-270.619,-40.724
-3.32,-269.426,-40.518
-3.29,-268.092,-40.243
-3.26,-266.267,-39.9
-3.22,-264.232,-39.59
-3.19,-262.688,-39.201
-3.16,-261.284,-38.846
-3.13,-259.95,-38.628
-3.09,-258.617,-38.433
-3.06,-257.002,-38.262
-3.03,-255.634,-38.01
-3.0,-254.124,-37.712
-2.96,-252.335,-37.528
-2.93,-251.106,-37.299
-2.9,-249.702,-36.979
-2.87,-248.439,-36.738
-2.83,-246.79,-36.486
-2.8,-245.21,-36.326
-2.77,-243.947,-35.97
-2.74,-241.631,-35.558
-2.7,-239.665,-35.237
-2.67,-237.805,-34.859
-2.64,-236.156,-34.584
-2.61,-234.471,-34.195
-2.57,-232.05,-33.863
-2.54,-229.944,-33.633
-2.51,-228.014,-33.244
-2.47,-225.873,-32.877
-2.44,-223.907,-32.488
-2.41,-220.819,-32.076
-2.38,-219.38,-31.938
-2.34,-218.643,-31.526
-2.31,-216.573,-31.331
-2.28,-214.853,-31.193
-2.25,-212.817,-30.896
-2.21,-210.501,-30.495
-2.18,-208.325,-30.025
-2.15,-205.798,-29.613
-2.12,-203.412,-29.28
-2.08,-201.587,-28.891
-2.05,-199.727,-28.524
-2.02,-197.411,-28.226
-1.99,-194.849,-27.906
-1.95,-191.936,-27.436
-1.92,-189.304,-26.898
-1.89,-186.426,-26.382
-1.86,-183.478,-25.993
-1.82,-181.267,-25.592
-1.79,-178.986,-25.111
-1.76,-176.178,-24.733
-1.73,-173.37,-24.446
-1.69,-170.457,-24.022
-1.66,-167.299,-23.518
-1.63,-164.561,-22.98
-1.6,-161.649,-22.522
-1.56,-158.771,-22.178
-1.53,-156.209,-21.743
-1.5,-153.296,-21.239
-1.47,-149.892,-20.78
-1.43,-146.382,-20.322
-1.4,-142.943,-19.726
-1.37,-139.714,-19.142
-1.34,-136.696,-18.615
-1.3,-133.467,-18.214
-1.27,-130.519,-17.859
-1.24,-127.361,-17.309
-1.2,-123.816,-16.851
-1.17,-120.798,-16.439
-1.14,-117.604,-15.969
-1.11,-114.656,-15.499
-1.07,-111.708,-14.972
-1.04,-108.83,-14.686
-1.01,-106.128,-14.308
-0.98,-102.408,-13.781
-0.94,-98.723,-13.22
-0.91,-94.827,-12.532
-0.88,-90.967,-12.028
-0.85,-87.703,-11.433
-0.81,-84.334,-10.86
-0.78,-81.14,-10.436
-0.75,-77.982,-10.081
-0.72,-74.858,-9.714
-0.68,-72.015,-9.279
-0.65,-68.611,-8.763
-0.62,-64.926,-8.374
-0.59,-61.838,-7.893
-0.55,-58.398,-7.297
-0.52,-54.924,-6.759
-0.49,-51.414,-6.243
-0.46,-47.729,-5.774
-0.42,-44.36,-5.247
-0.39,-40.64,-4.617
-0.36,-36.429,-4.09
-0.33,-33.34,-3.792
-0.29,-31.691,-3.448
-0.26,-27.234,-2.658
-0.23,-21.724,-2.325
-0.2,-18.425,-1.73
-0.16,-15.161,-1.111
-0.13,-13.828,-0.573
-0.1,-10.423,-0.149
-0.07,-5.721,-0.149
-0.03,-0.772,-0.172
0.0,0.597,0.596
0.03,3.825,1.501
0.07,7.054,1.134
0.1,9.16,1.799
0.13,16.214,2.062
0.16,20.882,1.695
0.2,23.619,1.982
0.23,26.357,2.463
0.26,29.164,2.852
0.29,32.042,3.253
0.33,34.779,3.861
0.36,36.78,4.914
0.39,39.412,6.106
0.42,41.869,7.183
0.46,43.694,8.454
0.49,44.676,10.115
0.52,47.098,11.902
0.55,54.222,12.303
0.59,61.206,12.063
0.62,66.997,12.257
0.65,71.84,12.429
0.68,74.718,12.487
0.72,76.367,12.544
0.75,79.14,12.842
0.78,82.93,13.128
0.81,85.983,13.529
0.85,89.317,14.09
0.88,92.511,14.606
0.91,95.073,15.19
0.94,98.477,15.706
0.98,101.601,16.003
1.01,104.198,16.462
1.04,107.321,16.977
1.07,110.69,17.412
1.11,113.884,17.836
1.14,116.972,18.295
1.17,119.991,18.856
1.2,123.289,19.406
1.24,126.799,19.841
1.27,130.028,20.322
1.3,133.467,20.941
1.34,137.503,21.582
1.37,141.258,22.121
1.4,144.171,22.556
1.43,146.452,23.003
1.47,149.365,23.427
1.5,152.489,23.69
1.53,155.542,24.068
1.56,158.244,24.458
1.6,161.017,25.065
1.63,164.211,25.489
1.66,167.123,25.912
1.69,169.545,26.268
1.73,171.756,26.703
1.76,174.529,27.058
1.79,177.406,27.425
1.82,180.635,27.906
1.86,183.583,28.501
1.89,186.461,29.074
1.92,189.725,29.487
1.95,192.357,29.819
1.99,194.638,30.288
2.02,197.27,30.667
2.05,199.727,30.976
2.08,202.394,31.285
2.12,204.675,31.64
2.15,206.711,32.041
2.18,208.957,32.328
2.21,210.501,32.465
2.25,211.8,32.717
2.28,213.554,32.958
2.31,215.379,33.221
2.34,217.59,33.496
2.38,219.521,33.817
2.41,221.31,34.229
2.44,223.346,34.596
2.47,224.89,34.745
2.51,225.838,34.882
2.54,228.049,35.295
2.57,230.505,35.558
2.61,232.014,35.936
2.64,233.875,36.222
2.67,235.103,36.452
2.7,236.823,36.818
2.74,238.928,37.013
2.77,240.402,37.253
2.8,242.262,37.563
2.83,243.877,37.861
2.87,245.561,38.181
2.9,247.562,38.388
2.93,249.141,38.651
2.96,250.931,39.052
3.0,252.686,39.281
3.03,253.879,39.476
3.06,255.528,39.693
3.09,257.072,39.911
3.13,258.617,40.209
3.16,260.582,40.472
3.19,262.091,40.702
3.22,263.144,40.954
3.26,264.197,41.137
3.29,265.32,41.24
3.32,266.548,41.309
3.35,267.776,41.492
3.39,268.97,41.755
3.42,270.268,41.985
3.45,271.672,42.145
3.48,273.041,42.386
3.52,274.094,42.603
3.55,275.006,42.775
3.58,275.919,42.832
3.61,276.796,42.912
3.65,277.638,43.038
3.68,278.691,43.21
3.71,279.884,43.348
3.74,280.656,43.497
3.78,281.323,43.611
3.81,281.709,43.669
3.84,282.025,43.634
3.87,282.06,43.577
3.91,282.376,43.565
3.94,282.938,43.623
3.97,283.429,43.691
4.01,283.815,43.772
4.04,284.061,43.829
4.07,284.306,43.875
4.1,284.201,43.817
4.14,283.955,43.737
4.17,284.131,43.657
4.2,284.412,43.68
4.23,284.692,43.726
4.27,284.798,43.783
4.3,284.798,43.691
4.33,283.92,43.611
4.36,284.271,43.623
4.4,284.131,43.439
4.43,284.061,43.554
4.46,284.657,43.497
4.49,284.306,43.554
4.53,284.236,43.497
4.56,283.148,43.268
4.59,282.095,43.038
4.62,280.867,42.649
4.66,279.604,42.397
4.69,279.393,42.237
4.72,278.867,42.088
4.75,277.814,42.099
4.79,277.182,42.007
4.82,275.883,41.733
4.85,274.585,41.492
4.88,273.427,41.24
4.92,272.198,41.034
4.95,271.426,40.839
4.98,270.549,40.61
5.01,269.286,40.484
5.05,267.987,40.289
5.08,266.338,39.945
5.11,264.653,39.613
5.14,263.249,39.281
5.18,261.635,39.006
5.21,260.371,38.777
5.24,259.038,38.514
5.28,257.599,38.307
5.31,256.3,38.147
5.34,254.932,37.929
5.37,253.352,37.631
5.41,251.984,37.345
5.44,250.404,37.162
5.47,249.001,36.933
5.5,247.351,36.6
5.54,245.877,36.28
5.57,243.982,35.948
5.6,241.841,35.65
5.63,239.911,35.237
5.67,238.261,34.882
5.7,236.682,34.596
5.73,234.717,34.39
5.76,232.857,34.08
5.8,230.821,33.691
5.83,229.207,33.427
5.86,227.452,33.164
5.89,225.381,32.9
5.93,223.346,32.488
5.96,221.135,32.087
5.99,219.24,31.812
6.02,217.485,31.491
6.06,215.59,31.171
6.09,213.484,30.77
6.12,210.712,30.392
6.15,208.009,30.014
6.19,205.728,29.544
6.22,203.517,29.063
6.25,201.06,28.753
6.28,199.165,28.524
6.32,197.2,28.215
6.35,194.533,27.768
6.38,191.62,27.321
6.41,188.882,26.898
6.45,186.145,26.462
6.48,183.759,25.981
6.51,181.442,25.523
6.55,178.81,25.202
6.58,176.108,24.916
6.61,173.721,24.492
6.64,170.808,23.988
6.68,167.685,23.587
6.71,164.772,23.129
6.74,161.859,22.602
6.77,159.157,22.086
6.81,156.349,21.697
6.84,153.401,21.353
6.87,149.962,20.826
6.9,146.452,20.242
6.94,143.188,19.681
6.97,139.679,19.165
7.0,136.555,18.73
7.03,133.643,18.146
7.07,130.133,17.676
7.1,127.08,17.355
7.13,124.062,16.897
7.16,121.043,16.507
7.2,118.762,16.049
7.23,114.867,15.534
7.26,111.322,15.213
7.29,108.83,14.652
7.33,106.023,14.148
7.36,102.724,13.724
7.39,98.898,13.231
7.42,94.792,12.613
7.46,91.107,11.948
7.49,87.527,11.318
7.52,83.878,10.848
7.55,80.719,10.402
7.59,77.596,9.909
7.62,74.437,9.531
7.65,71.313,9.199
7.68,68.225,8.809
7.72,64.891,8.305
7.75,61.732,7.813
7.78,58.434,7.343
7.82,55.345,6.954
7.85,52.538,6.461
7.88,49.168,5.945
7.91,45.413,5.476
7.95,41.728,4.995
7.98,38.394,4.433
8.01,36.394,4.239
8.04,35.481,3.906
8.08,29.761,3.219
8.11,24.356,2.91
8.14,20.882,1.959
8.17,17.442,1.283
8.21,15.372,0.871
8.24,11.932,0.332
8.27,6.668,-0.137
8.3,0.842,-0.08
8.34,-0.807,-0.997
8.37,-5.65,-1.581
8.4,-8.388,-1.077
8.43,-10.669,-1.569
8.47,-15.512,-1.81
8.5,-19.337,-1.947
8.53,-23.514,-2.165
8.56,-27.901,-2.348
8.6,-30.989,-2.784
8.63,-33.2,-3.654
8.66,-35.271,-4.456
8.69,-37.271,-5.235
8.73,-39.166,-6.152
8.76,-40.57,-7.492
8.79,-42.886,-9.004
8.82,-45.097,-10.413
8.86,-48.431,-11.799
8.89,-55.661,-12.166
8.92,-61.592,-11.902
8.95,-66.716,-12.086
8.99,-71.454,-12.063
9.02,-73.524,-12.235
9.05,-75.841,-12.532
9.08,-79.175,-12.716
9.12,-82.123,-12.945
9.15,-85.141,-13.506
9.18,-88.58,-14.056
9.22,-91.739,-14.571
9.25,-94.968,-15.087
9.28,-98.161,-15.591
9.31,-101.144,-16.129
9.35,-104.408,-16.622
9.38,-107.953,-17.0
9.41,-111.217,-17.504
9.44,-114.621,-18.1
9.48,-117.955,-18.604
9.51,-121.008,-19.039
9.54,-123.886,-19.406
9.57,-126.729,-19.887
9.61,-130.028,-20.402
9.64,-133.607,-20.815
9.67,-137.152,-21.376
9.7,-140.697,-21.995
9.74,-143.645,-22.533
9.77,-145.891,-22.854
9.8,-148.663,-23.255
9.83,-152.313,-23.598
9.87,-155.051,-24.091
9.9,-158.35,-24.618
9.93,-161.052,-24.939
9.96,-163.754,-25.5
10.0,-166.878,-25.97
10.03,-169.826,-26.428
10.06,-172.563,-26.772
10.09,-175.406,-27.207
10.13,-178.108,-27.654
10.16,-181.056,-28.249
10.19,-184.671,-28.673
10.22,-187.514,-29.086
10.26,-190.146,-29.578
10.29,-192.638,-29.968
10.32,-194.778,-30.254
10.35,-197.06,-30.483
10.39,-199.06,-30.77
10.42,-201.306,-31.159
10.45,-203.763,-31.434
10.49,-205.833,-31.709
10.52,-207.693,-32.03
10.55,-209.308,-32.362
10.58,-211.063,-32.625
10.62,-212.923,-32.843
10.65,-214.748,-33.118
10.68,-216.678,-33.507
10.71,-218.994,-33.886
10.75,-221.275,-34.218
10.78,-223.17,-34.516
10.81,-224.785,-34.905
10.84,-226.645,-35.169
10.88,-228.4,-35.386
10.91,-230.54,-35.638
10.94,-232.19,-35.925
10.97,-233.769,-36.268
11.01,-235.699,-36.543
11.04,-237.56,-36.784
11.07,-239.174,-37.105
11.1,-240.753,-37.402
11.14,-242.473,-37.654
11.17,-244.193,-37.849
11.2,-245.877,-38.113
11.23,-247.667,-38.491
11.27,-249.597,-38.788
11.3,-251.352,-39.018
11.33,-252.686,-39.258
11.36,-253.949,-39.499
11.4,-255.423,-39.705
11.43,-257.213,-39.934
11.46,-258.932,-40.175
11.49,-260.477,-40.484
11.53,-261.916,-40.77
11.56,-262.933,-40.919
11.59,-263.951,-41.022
11.62,-265.074,-41.16
11.66,-266.267,-41.355
11.69,-267.636,-41.526
11.72,-269.005,-41.71
11.76,-270.268,-41.962
11.79,-271.637,-42.26
11.82,-273.041,-42.477
11.85,-274.129,-42.603
11.89,-275.146,-42.764
11.92,-275.989,-42.878
11.95,-276.691,-42.958
11.98,-277.708,-43.05
12.02,-278.726,-43.153
12.05,-279.709,-43.359
12.08,-280.516,-43.485
12.11,-281.148,-43.6
12.15,-281.604,-43.611
12.18,-281.815,-43.623
12.21,-282.025,-43.6
12.24,-282.622,-43.646
12.28,-283.359,-43.669
12.31,-283.85,-43.829
12.34,-284.306,-43.909
12.37,-284.552,-43.978
12.41,-284.938,-43.955
12.44,-284.973,-43.932
12.47,-284.657,-43.84
12.5,-284.517,-43.829
12.54,-284.903,-43.714
12.57,-284.763,-43.691
12.6,-284.517,-43.646
12.63,-284.131,-43.657
12.67,-284.798,-43.657
12.7,-283.745,-43.394
12.73,-282.867,-43.417
12.76,-283.253,-43.245
12.8,-283.148,-43.268
12.83,-283.499,-43.291
12.86,-282.727,-43.187
12.89,-281.534,-43.061
12.93,-280.621,-42.764
12.96,-279.568,-42.466
12.99,-278.902,-42.271
13.03,-278.551,-42.202
13.06,-278.27,-42.191
13.09,-277.849,-42.111
13.12,-276.901,-42.007
13.16,-275.743,-41.847
13.19,-274.585,-41.595
13.22,-273.497,-41.274
13.25,-272.374,-40.976
13.29,-271.251,-40.816
13.32,-270.303,-40.667
13.35,-269.215,-40.472
13.38,-268.057,-40.232
13.42,-266.443,-39.923
13.45,-264.372,-39.636
13.48,-262.688,-39.235
13.51,-261.073,-38.846
13.55,-259.705,-38.594
13.58,-258.441,-38.399
13.61,-257.002,-38.262
13.64,-255.844,-38.032
13.68,-254.37,-37.792
13.71,-252.65,-37.609
13.74,-251.457,-37.402
13.77,-250.159,-37.07
13.81,-248.685,-36.795
13.84,-246.79,-36.509
13.87,-245.28,-36.348
13.9,-244.368,-35.993
13.94,-242.052,-35.615
13.97,-239.876,-35.34
14.0,-237.805,-34.871
14.03,-235.735,-34.538
14.07,-234.261,-34.126
14.1,-231.804,-33.759
14.13,-229.453,-33.576
14.16,-227.803,-33.198
14.2,-225.768,-32.855
14.23,-224.013,-32.545
14.26,-221.346,-32.179
14.29,-219.556,-32.007
14.33,-218.503,-31.594
14.36,-216.643,-31.354
14.39,-214.958,-31.193
14.43,-212.888,-30.884
14.46,-210.431,-30.483
14.49,-208.115,-29.991
14.52,-205.728,-29.601
14.56,-203.587,-29.292
14.59,-201.797,-28.914
14.62,-199.762,-28.559
14.65,-197.375,-28.261
14.69,-194.954,-27.929
14.72,-191.901,-27.436
14.75,-189.198,-26.909
14.78,-186.531,-26.371
14.82,-183.618,-26.004
14.85,-181.372,-25.626
14.88,-179.021,-25.145
14.91,-176.248,-24.767
14.95,-173.511,-24.481
14.98,-170.668,-24.068
15.01,-167.58,-23.564
15.04,-164.772,-23.026
15.08,-161.754,-22.556
15.11,-158.911,-22.212
15.14,-156.384,-21.754
15.17,-153.366,-21.239
15.21,-149.962,-20.803
15.24,-146.452,-20.322
15.27,-142.943,-19.738
15.3,-139.784,-19.165
15.34,-136.801,-18.627
15.37,-133.432,-18.26
15.4,-130.73,-17.905
15.43,-127.325,-17.275
15.47,-123.676,-16.897
15.5,-120.973,-16.416
15.53,-117.534,-15.98
15.56,-114.796,-15.522
15.6,-111.638,-14.949
15.63,-108.514,-14.709
15.66,-106.128,-14.308
15.7,-102.513,-13.758
15.73,-98.969,-13.277
15.76,-95.108,-12.567
15.79,-90.826,-12.04
15.83,-87.492,-11.433
15.86,-84.088,-10.768
15.89,-80.649,-10.333
15.92,-77.455,-9.955
15.96,-74.297,-9.577
15.99,-71.384,-9.176
16.02,-68.19,-8.683
16.05,-64.505,-8.305
16.09,-61.382,-7.847
16.12,-58.153,-7.274
16.15,-54.749,-6.736
16.18,-51.239,-6.255
16.22,-47.554,-5.762
16.25,-43.939,-5.224
16.28,-40.43,-4.605
16.31,-36.569,-4.124
16.35,-34.428,-3.998
16.38,-33.13,-3.62
16.41,-28.181,-2.933
16.44,-23.022,-2.658
16.48,-19.724,-1.925
16.51,-16.284,-1.398
16.54,-15.547,-0.779
16.57,-12.213,-0.172
16.61,-7.51,-0.149
16.64,-1.79,-0.126
16.67,0.632,0.63
16.7,4.071,1.638
16.74,7.896,1.191
16.77,9.721,1.718
16.8,16.6,2.073
16.83,21.338,1.695
16.87,23.654,1.959
16.9,26.602,2.566
16.93,29.936,2.921
16.97,32.428,3.299
17.0,34.85,3.987
17.03,36.78,4.995
17.06,39.166,6.163
17.1,41.623,7.217
17.13,43.518,8.477
17.16,44.852,10.161
17.19,47.343,11.983
17.23,54.362,12.509
17.26,61.066,12.166
17.29,66.576,12.338
17.32,72.015,12.441
17.36,74.753,12.464
17.39,76.648,12.624
17.42,79.526,12.853
17.45,82.825,13.151
17.49,85.878,13.54
17.52,89.212,14.056
17.55,92.336,14.571
17.58,94.968,15.144
17.62,98.056,15.625
17.65,101.18,15.935
17.68,103.812,16.37
17.71,106.935,16.908
17.75,110.339,17.355
17.78,113.638,17.825
17.81,116.937,18.329
17.84,119.92,18.902
17.88,123.325,19.452
17.91,126.799,19.887
17.94,130.063,20.357
17.97,133.467,20.941
18.01,136.801,21.456
18.04,140.556,22.086
18.07,144.347,22.453
18.1,146.312,22.98
18.14,149.751,23.541
18.17,152.524,23.69
18.2,155.331,24.183
18.24,158.665,24.538
18.27,161.298,25.088
18.3,164.491,25.603
18.33,167.474,25.97
18.37,169.896,26.371
18.4,172.318,26.817
18.43,175.16,27.184
18.46,178.003,27.551
18.5,181.232,28.066
18.53,184.145,28.593
18.56,186.987,29.177
18.59,190.497,29.613
18.63,193.34,29.979
18.66,195.866,30.506
18.69,198.604,30.919
18.72,201.271,31.297
18.76,204.044,31.594
18.79,206.184,31.927
18.82,208.185,32.316
18.85,210.501,32.58
18.89,212.572,32.832
18.92,214.888,33.244
18.95,217.45,33.645
18.98,219.696,34.069
19.02,222.012,34.39
19.05,223.907,34.676
19.08,225.732,35.031
19.11,228.014,35.375
19.15,230.365,35.638
19.18,232.436,35.97
19.21,234.366,36.337
19.24,235.945,36.646
19.28,237.595,36.852
19.31,239.384,37.047
19.34,240.858,37.276
19.37,242.543,37.586
19.41,243.842,37.689
19.44,244.368,37.757
19.47,245.351,37.872
19.5,246.509,38.044
19.54,248.264,38.319
19.57,250.089,38.548
19.6,251.387,38.869
19.64,252.826,39.235
19.67,254.16,39.43
19.7,255.247,39.636
19.73,257.072,39.854
19.77,258.722,40.129
19.8,260.968,40.576
19.83,262.477,40.736
19.86,263.214,41.011
19.9,264.688,41.16
19.93,265.846,41.355
19.96,267.39,41.492
19.99,268.619,41.595
20.03,269.882,41.87
20.06,271.181,42.122
20.09,272.549,42.34
20.12,273.953,42.5
20.16,275.041,42.706
20.19,275.848,42.821
20.22,276.48,42.901
20.25,277.217,42.924
20.29,278.13,43.027
20.32,279.218,43.199
20.35,280.481,43.428
20.38,281.604,43.611
20.42,282.306,43.76
20.45,282.797,43.84
20.48,282.973,43.84
20.51,283.218,43.783
20.55,283.534,43.691
20.58,284.026,43.772
20.61,284.763,43.852
20.64,285.114,43.955
20.68,285.324,43.966
20.71,285.008,43.909
20.74,284.763,43.84
20.77,284.482,43.714
20.81,284.552,43.634
20.84,284.938,43.657
20.87,285.359,43.76
20.91,285.429,43.829
20.94,285.114,43.783
20.97,284.412,43.623
21.0,284.552,43.565
21.04,279.639,42.248
21.07,266.759,40.209
21.1,258.511,38.307
21.13,255.879,36.681
21.17,256.02,36.704
21.2,256.721,37.139
21.23,253.001,37.643
21.26,252.054,38.479
21.3,255.844,39.086
21.33,259.705,39.957
21.36,263.986,41.034
21.39,267.636,41.881
21.43,270.303,42.58
21.46,272.479,42.809
21.49,273.357,42.626
21.52,273.743,42.305
21.56,273.918,41.962
21.59,273.813,41.675
21.62,273.848,41.446
21.65,273.462,41.194
21.69,271.988,41.034
21.72,270.9,40.828
21.75,269.461,40.427
21.78,267.531,39.991
21.82,265.811,39.625
21.85,264.372,39.338
21.88,263.004,39.098
21.91,261.565,38.834
21.95,259.845,38.594
21.98,258.511,38.422
22.01,257.037,38.147
22.04,255.142,37.826
22.08,253.493,37.517
22.11,251.913,37.265
22.14,250.299,37.013
22.18,248.72,36.704
22.21,247.246,36.417
22.24,245.631,36.222
22.27,244.263,36.016
22.31,242.578,35.707
22.34,240.648,35.352
22.37,238.998,35.065
22.4,237.103,34.699
22.44,235.033,34.401
22.47,233.699,34.057
22.5,231.453,33.668
22.53,228.786,33.393
22.57,226.224,32.946
22.6,223.907,32.431
22.63,221.942,32.041
22.66,220.082,31.778
22.7,218.082,31.514
22.73,215.8,31.159
22.76,213.589,30.804
22.79,211.063,30.392
22.83,208.08,30.002
22.86,205.939,29.59
22.89,204.008,29.131
22.92,201.727,28.857
22.96,199.481,28.616
22.99,197.446,28.307
23.02,195.235,27.883
23.05,192.567,27.47
23.09,189.655,27.058
23.12,186.917,26.6
23.15,184.566,26.142
23.18,182.495,25.706
23.22,179.933,25.385
23.25,177.301,25.088
23.28,174.599,24.629
23.31,171.616,24.125
23.35,168.317,23.656
23.38,165.123,23.152
23.41,162.386,22.648
23.45,159.894,22.144
23.48,156.841,21.743
23.51,153.822,21.468
23.54,150.909,20.952
23.58,147.224,20.391
23.61,144.066,19.898
23.64,140.872,19.383
23.67,137.573,18.913
23.71,134.695,18.363
23.74,131.607,17.882
23.77,127.992,17.47
23.8,124.448,16.977
23.84,121.114,16.416
23.87,117.85,15.866
23.9,114.621,15.454
23.93,111.427,15.007
23.97,108.058,14.503
24.0,104.689,13.93
24.03,100.969,13.449
24.06,97.495,12.991
24.1,94.196,12.429
24.13,90.651,11.845
24.16,87.106,11.375
24.19,83.737,10.952
24.23,80.894,10.551
24.26,78.157,10.104
24.29,75.174,9.714
24.32,72.015,9.394
24.36,68.997,8.993
24.39,65.874,8.466
24.42,62.75,7.985
24.45,59.557,7.538
24.49,56.328,7.125
24.52,53.275,6.61
24.55,50.116,6.106
24.58,46.431,5.602
24.62,42.781,5.166
24.65,39.412,4.594
24.68,37.622,4.422
24.71,35.657,3.849
24.75,29.094,3.23
24.78,24.461,2.83
24.81,20.811,1.764
24.85,17.267,1.249
24.88,15.337,0.813
24.91,11.687,0.355
24.94,7.616,0.069
24.98,2.176,0.046
25.01,-0.246,-0.298
25.04,-2.527,-1.443
25.07,-7.159,-1.249
25.11,-9.019,-1.34
25.14,-13.898,-2.005
25.17,-19.057,-1.97
25.2,-22.777,-2.039
25.24,-27.129,-2.314
25.27,-30.568,-2.704
25.3,-32.533,-3.517
25.33,-35.306,-4.41
25.37,-37.727,-5.109
25.4,-39.587,-6.163
25.43,-41.447,-7.561
25.46,-43.729,-9.119
25.5,-45.694,-10.619
25.53,-49.168,-11.971
25.56,-56.468,-12.2
25.59,-62.013,-11.891
25.63,-66.435,-11.937
25.66,-70.682,-11.914
25.69,-72.928,-12.028
25.72,-75.244,-12.315
25.76,-78.543,-12.532
25.79,-81.561,-12.842
25.82,-84.65,-13.437
25.85,-88.159,-14.033
25.89,-91.248,-14.549
25.92,-94.301,-15.041
25.95,-97.459,-15.545
25.98,-100.513,-16.049
26.02,-103.741,-16.507
26.05,-107.181,-16.897
26.08,-110.445,-17.424
26.12,-113.708,-17.974
26.15,-117.148,-18.535
26.18,-120.306,-18.902
26.21,-123.289,-19.406
26.25,-126.448,-19.887
26.28,-129.642,-20.414
26.31,-133.537,-20.906
26.34,-136.977,-21.388
26.38,-140.24,-22.04
26.41,-143.715,-22.636
26.44,-146.207,-22.865
26.47,-147.505,-23.106
26.51,-150.734,-23.472
26.54,-153.682,-23.747
26.57,-157.016,-24.343
26.6,-160.315,-24.733
26.64,-162.912,-25.374
26.67,-165.93,-25.958
26.7,-168.983,-26.428
26.73,-171.967,-26.795
26.77,-175.055,-27.241
26.8,-177.898,-27.734
26.83,-180.986,-28.295
26.86,-184.566,-28.742
26.9,-187.514,-29.177
26.93,-190.251,-29.647
26.96,-192.638,-30.059
26.99,-194.954,-30.334
27.03,-197.165,-30.54
27.06,-199.13,-30.85
27.09,-201.341,-31.216
27.12,-203.903,-31.514
27.16,-206.079,-31.789
27.19,-207.764,-32.098
27.22,-209.238,-32.442
27.25,-210.922,-32.648
27.29,-212.747,-32.843
27.32,-214.677,-33.129
27.35,-216.643,-33.53
27.39,-218.959,-33.931
27.42,-221.205,-34.252
27.45,-223.135,-34.596
27.48,-224.855,-34.985
27.52,-226.891,-35.283
27.55,-228.751,-35.512
27.58,-230.611,-35.764
27.61,-232.33,-36.062
27.65,-234.05,-36.394
27.68,-236.191,-36.704
27.71,-237.981,-36.921
27.74,-239.455,-37.265
27.78,-241.209,-37.54
27.81,-242.824,-37.815
27.84,-245.21,-38.067
27.87,-246.719,-38.319
27.91,-248.193,-38.708
27.94,-249.562,-38.857
27.97,-251.001,-39.063
28.0,-252.686,-39.212
28.04,-253.879,-39.476
28.07,-255.423,-39.739
28.1,-256.932,-39.945
28.13,-258.476,-40.198
28.17,-259.985,-40.495
28.2,-261.705,-40.816
28.23,-262.933,-40.976
28.26,-264.056,-41.148
28.3,-265.109,-41.286
28.33,-266.267,-41.492
28.36,-267.706,-41.629
28.39,-269.11,-41.79
28.43,-270.409,-42.053
28.46,-271.742,-42.363
28.49,-273.111,-42.557
28.52,-274.129,-42.695
28.56,-275.076,-42.832
28.59,-275.848,-42.935
28.62,-276.62,-43.016
28.66,-277.568,-43.107
28.69,-278.656,-43.21
28.72,-279.604,-43.417
28.75,-280.376,-43.565
28.79,-280.937,-43.657
28.82,-281.499,-43.691
28.85,-281.885,-43.714
28.88,-282.201,-43.749
28.92,-282.903,-43.84
28.95,-283.745,-43.886
28.98,-284.271,-44.012
29.01,-284.692,-44.092
29.05,-284.727,-44.127
29.08,-284.903,-44.035
29.11,-284.727,-43.943
29.14,-284.341,-43.84
29.18,-284.166,-43.817
29.21,-284.622,-43.726
29.24,-284.622,-43.749
29.27,-284.622,-43.795
29.31,-284.201,-43.795
29.34,-284.727,-43.817
29.37,-283.675,-43.485
29.4,-282.446,-43.439
29.44,-282.797,-43.256
29.47,-282.832,-43.245
29.5,-283.008,-43.279
29.53,-282.411,-43.245
29.57,-281.534,-43.13
29.6,-280.797,-42.924
29.63,-279.99,-42.649
29.66,-279.077,-42.454
29.7,-278.621,-42.34
29.73,-278.305,-42.271
29.76,-277.849,-42.168
29.79,-276.936,-42.065
29.83,-275.708,-41.904
29.86,-274.445,-41.664
29.89,-273.427,-41.32
29.93,-272.269,-41.022
29.96,-271.181,-40.908
29.99,-270.374,-40.77
30.02,-269.426,-40.564
30.06,-268.198,-40.358
30.09,-266.443,-40.06
30.12,-264.548,-39.762
30.15,-263.074,-39.384
30.19,-261.53,-39.029
30.22,-260.091,-38.777
30.25,-258.792,-38.582
30.28,-257.494,-38.41
30.32,-256.23,-38.17
30.35,-254.405,-37.861
30.38,-252.405,-37.654
30.41,-251.106,-37.345
30.45,-249.667,-37.013
30.48,-248.334,-36.761
30.51,-246.544,-36.532
30.54,-244.754,-36.314
30.58,-243.456,-36.005
30.61,-241.736,-35.627
30.64,-239.771,-35.375
30.67,-238.507,-35.134
30.71,-236.401,-34.71
30.74,-234.19,-34.401
30.77,-232.26,-33.954
30.8,-229.909,-33.691
30.84,-228.4,-33.381
30.87,-226.54,-33.003
30.9,-224.434,-32.694
30.93,-221.661,-32.328
30.97,-219.977,-32.11
31.0,-219.029,-31.72
31.03,-216.924,-31.445
31.06,-215.134,-31.285
31.1,-212.993,-30.93
31.13,-210.361,-30.495
31.16,-208.08,-30.014
31.19,-205.763,-29.635
31.23,-203.517,-29.326
31.26,-201.552,-28.96
31.29,-199.516,-28.559
31.33,-197.165,-28.284
31.36,-194.989,-28.009
31.39,-192.357,-27.528
31.42,-189.339,-27.001
31.46,-186.426,-26.52
31.49,-183.583,-26.084
31.52,-181.232,-25.66
31.55,-178.951,-25.179
31.59,-176.389,-24.801
31.62,-173.441,-24.492
31.65,-170.457,-24.091
31.68,-167.545,-23.587
31.72,-164.737,-23.06
31.75,-161.719,-22.625
31.78,-158.946,-22.27
31.81,-156.419,-21.8
31.85,-153.331,-21.284
31.88,-149.962,-20.861
31.91,-146.487,-20.368
31.94,-142.943,-19.761
31.98,-139.819,-19.199
32.01,-136.942,-18.684
32.04,-133.783,-18.352
32.07,-131.326,-18.054
32.11,-127.782,-17.378
32.14,-123.816,-17.023
32.17,-121.324,-16.542
32.2,-117.815,-15.992
32.24,-114.726,-15.545
32.27,-111.568,-14.938
32.3,-108.304,-14.652
32.33,-105.988,-14.297
32.37,-102.373,-13.724
32.4,-98.653,-13.254
32.43,-94.862,-12.578
32.46,-90.791,-12.051
32.5,-87.563,-11.467
32.53,-84.123,-10.837
32.56,-80.649,-10.402
32.6,-77.525,-10.012
32.63,-74.367,-9.623
32.66,-71.454,-9.187
32.69,-68.19,-8.695
32.73,-64.575,-8.34
32.76,-61.487,-7.87
32.79,-58.293,-7.309
32.82,-54.994,-6.805
32.86,-51.52,-6.323
32.89,-47.905,-5.877
32.92,-44.571,-5.327
32.95,-40.851,-4.697
32.99,-37.096,-4.239
33.02,-34.358,-3.952
33.05,-33.481,-3.78
33.08,-29.62,-3.024
33.12,-23.759,-2.749
33.15,-20.531,-2.177
33.18,-16.846,-1.455
33.21,-15.547,-0.859
33.25,-12.318,-0.16
33.28,-7.019,-0.069
33.31,-1.193,-0.126
33.34,0.842,0.813
33.38,5.124,1.695
33.41,8.318,1.134
33.44,10.143,1.776
33.47,16.846,1.993
33.51,21.127,1.673
33.54,23.619,1.993
33.57,26.602,2.555
33.6,29.901,2.887
33.64,32.463,3.288
33.67,34.85,3.975
33.7,36.815,5.029
33.73,39.236,6.163
33.77,41.693,7.194
33.8,43.483,8.489
33.83,44.817,10.161
33.87,47.098,11.983
33.9,54.082,12.532
33.93,60.995,12.2
33.96,66.611,12.372
34.0,72.05,12.475
34.03,74.612,12.464
34.06,76.227,12.578
34.09,79.07,12.807
34.13,82.579,13.094
34.16,85.773,13.518
34.19,89.177,14.067
34.22,92.125,14.606
34.26,94.757,15.179
34.29,97.845,15.625
34.32,101.004,15.946
34.35,103.777,16.416
34.39,107.076,16.954
34.42,110.585,17.424
34.45,113.919,17.905
34.48,117.113,18.409
34.52,120.131,18.982
34.55,123.395,19.509
34.58,126.764,19.91
34.61,129.958,20.357
34.65,133.432,20.952
34.68,136.836,21.468
34.71,140.486,22.098
34.74,144.312,22.499
34.78,146.136,22.991
34.81,149.471,23.564
34.84,152.489,23.736
34.87,155.331,24.206
34.91,158.56,24.595
34.94,161.368,25.191
34.97,164.667,25.66
35.0,167.58,26.05
35.04,170.071,26.462
35.07,172.633,26.921
35.1,175.371,27.264
35.14,178.564,27.757
35.17,182.635,28.352
35.2,186.812,29.189
35.23,190.953,29.933
35.27,193.866,30.403
35.3,195.972,30.793
35.33,198.112,31.01
35.36,200.253,31.216
35.4,202.675,31.342
35.43,204.675,31.468
35.46,205.974,31.732
35.49,207.343,31.972
35.53,208.957,32.179
35.56,210.571,32.316
35.59,211.694,32.534
35.62,212.888,32.82
35.66,214.256,33.003
35.69,215.765,33.221
35.72,217.52,33.45
35.75,218.924,33.817
35.79,220.714,34.138
35.82,222.258,34.344
35.85,223.697,34.561
35.88,225.346,34.905
35.92,227.171,35.203
35.95,229.172,35.535
35.98,231.172,35.776
36.01,232.716,36.222
36.05,235.489,36.692
36.08,237.384,36.956
36.11,239.209,37.334
36.14,240.858,37.517
36.18,242.508,37.906
36.21,245.035,38.147
36.24,246.79,38.353
36.27,248.369,38.674
36.31,250.089,39.006
36.34,251.668,39.212
36.37,253.317,39.441
36.4,255.037,39.671
36.44,256.757,39.991
36.47,258.511,40.301
36.5,260.231,40.564
36.54,261.845,40.805
36.57,263.004,41.034
36.6,264.162,41.24
36.63,265.46,41.343
36.67,266.724,41.446
36.7,267.882,41.652
36.73,268.97,41.87
36.76,270.163,42.042
36.8,271.497,42.179
36.83,272.865,42.42
36.86,274.094,42.672
36.89,275.217,42.89
36.93,276.34,43.004
36.96,277.182,43.13
36.99,277.954,43.21
37.02,278.796,43.348
37.06,279.849,43.417
37.09,280.586,43.531
37.12,281.288,43.646
37.15,281.815,43.76
37.19,282.341,43.795
37.22,282.622,43.783
37.25,283.008,43.829
37.28,283.534,43.863
37.32,283.92,43.898
37.35,284.236,43.932
37.38,284.412,43.955
37.41,284.657,43.989
37.45,284.692,43.955
37.48,284.412,43.863
37.51,284.306,43.795
37.54,284.622,43.817
37.58,284.903,43.829
37.61,284.763,43.829
37.64,283.745,43.577
37.67,281.253,43.165
37.71,280.235,42.855
37.74,279.463,42.408
37.77,279.112,42.466
37.81,279.955,42.557
37.84,279.709,42.775
37.87,279.884,42.97
37.9,279.849,42.912
37.94,279.744,42.993
37.97,280.481,43.016
38.0,280.762,43.027
38.03,281.499,43.153
38.07,282.271,43.21
38.1,282.201,43.291
38.13,282.025,43.199
38.16,281.113,42.878
38.2,279.639,42.534
38.23,278.305,42.111
38.26,276.691,41.71
38.29,275.357,41.366
38.33,273.918,41.011
38.36,271.812,40.759
38.39,269.987,40.507
38.42,268.127,40.106
38.46,266.092,39.728
38.49,264.302,39.396
38.52,262.547,39.121
38.55,260.968,38.857
38.59,259.389,38.582
38.62,257.774,38.342
38.65,256.09,38.136
38.68,254.475,37.849
38.72,252.615,37.494
38.75,250.685,37.139
38.78,248.965,36.921
38.81,247.562,36.646
38.85,245.491,36.28
38.88,243.842,36.028
38.91,242.508,35.73
38.94,240.578,35.489
38.98,238.612,35.123
39.01,236.963,34.836
39.04,235.699,34.584
39.08,234.085,34.412
39.11,232.541,34.183
39.14,230.927,33.863
39.17,229.172,33.599
39.21,227.277,33.347
39.24,225.346,32.981
39.27,223.206,32.511
39.3,220.924,32.087
39.34,218.924,31.778
39.37,217.099,31.457
39.4,215.134,31.125
39.43,213.098,30.758
39.47,210.536,30.437
39.5,207.974,30.105
39.53,205.728,29.635
39.56,203.447,29.177
39.6,201.376,28.902
39.63,199.306,28.627
39.66,197.305,28.33
39.69,195.164,27.94
39.73,192.427,27.505
39.76,189.619,27.127
39.79,187.128,26.691
39.82,184.496,26.164
39.86,182.144,25.741
39.89,179.793,25.385
39.92,177.126,25.042
39.95,174.178,24.595
39.99,171.089,24.08
40.02,168.001,23.621
40.05,164.912,23.117
40.08,161.824,22.567
40.12,158.981,22.052
40.15,156.068,21.662
40.18,153.05,21.296
40.21,149.611,20.735
40.25,145.715,20.162
40.28,142.627,19.646
40.31,139.223,19.096
40.35,135.924,18.661
40.38,133.081,18.088
40.41,129.922,17.699
40.44,127.185,17.401
40.48,124.062,16.954
40.51,120.973,16.565
40.54,118.481,16.095
40.57,114.761,15.602
40.61,111.568,15.259
40.64,109.286,14.72
40.67,106.268,14.239
40.7,102.794,13.827
40.74,99.004,13.3
40.77,94.897,12.635
40.8,91.248,11.983
40.83,87.808,11.387
40.87,84.193,10.929
40.9,80.93,10.482
40.93,77.841,9.966
40.96,74.542,9.577
41.0,71.419,9.256
41.03,68.365,8.832
41.06,65.347,8.363
41.09,62.434,7.927
41.13,59.416,7.538
41.16,56.258,7.137
41.19,53.099,6.633
41.22,49.765,6.094
41.26,46.326,5.636
41.29,42.886,5.155
41.32,39.307,4.582
41.35,36.955,4.319
41.39,35.657,3.964
41.42,29.796,3.15
41.45,23.795,2.772
41.48,20.18,1.764
41.52,15.933,0.985
41.55,13.231,0.676
41.58,9.897,0.298
41.61,5.405,0.0
41.65,0.632,0.046
41.68,-0.667,-0.825
41.71,-4.843,-1.546
41.75,-8.282,-1.168
41.78,-11.441,-1.73
41.81,-17.126,-1.936
41.84,-20.566,-1.936
41.88,-24.251,-2.199
41.91,-28.217,-2.348
41.94,-30.392,-2.761
41.97,-32.358,-3.631
42.01,-34.744,-4.33
42.04,-36.78,-5.052
42.07,-38.885,-5.968
42.1,-40.5,-7.274
42.14,-42.641,-8.752
42.17,-44.922,-10.127
42.2,-47.624,-11.547
42.23,-54.327,-12.097
42.27,-61.066,-11.902
42.3,-66.611,-12.074
42.33,-71.138,-12.154
42.36,-73.419,-12.349
42.4,-75.63,-12.544
42.43,-78.789,-12.739
42.46,-82.333,-12.991
42.49,-85.457,-13.54
42.53,-88.791,-14.148
42.56,-92.125,-14.686
42.59,-95.213,-15.144
42.62,-97.951,-15.625
42.66,-100.864,-16.118
42.69,-104.303,-16.542
42.72,-107.707,-16.931
42.75,-110.831,-17.447
42.79,-114.305,-18.054
42.82,-117.639,-18.558
42.85,-120.728,-19.005
42.88,-123.676,-19.429
42.92,-126.659,-19.933
42.95,-130.063,-20.448
42.98,-133.713,-20.895
43.02,-137.152,-21.41
43.05,-140.697,-22.063
43.08,-143.82,-22.59
43.11,-145.996,-22.9
43.15,-148.769,-23.289
43.18,-152.278,-23.644
43.21,-155.016,-24.102
43.24,-158.455,-24.652
43.28,-161.473,-25.007
43.31,-164.105,-25.603
43.34,-167.264,-26.119
43.37,-170.107,-26.508
43.41,-172.809,-26.829
43.44,-175.581,-27.241
43.47,-178.214,-27.7
43.5,-181.232,-28.261
43.54,-184.776,-28.685
43.57,-187.619,-29.109
43.6,-190.181,-29.624
43.63,-192.567,-30.014
43.67,-194.919,-30.266
43.7,-197.025,-30.506
43.73,-199.06,-30.815
43.76,-201.306,-31.182
43.8,-203.798,-31.468
43.83,-205.904,-31.732
43.86,-207.553,-32.064
43.89,-209.167,-32.385
43.93,-210.957,-32.614
43.96,-212.712,-32.832
43.99,-214.537,-33.095
44.02,-216.502,-33.507
44.06,-218.784,-33.863
44.09,-220.995,-34.183
44.12,-222.89,-34.516
44.15,-224.68,-34.905
44.19,-226.434,-35.191
44.22,-228.259,-35.386
44.25,-230.119,-35.615
44.29,-231.874,-35.948
44.32,-233.734,-36.28
44.35,-235.77,-36.589
44.38,-237.595,-36.875
44.42,-239.42,-37.219
44.45,-241.139,-37.563
44.48,-242.964,-37.803
44.51,-244.508,-37.941
44.55,-245.807,-38.17
44.58,-247.421,-38.456
44.61,-249.316,-38.72
44.64,-251.317,-38.983
44.68,-252.896,-39.27
44.71,-254.054,-39.579
44.74,-255.388,-39.797
44.77,-257.072,-39.957
44.81,-258.792,-40.22
44.84,-260.617,-40.53
44.87,-262.056,-40.816
44.9,-263.039,-40.976
44.94,-264.197,-41.091
44.97,-265.25,-41.251
45.0,-266.408,-41.435
45.03,-267.671,-41.561
45.07,-268.935,-41.721
45.1,-270.163,-41.939
45.13,-271.461,-42.248
45.16,-272.865,-42.431
45.2,-273.953,-42.58
45.23,-274.866,-42.729
45.26,-275.638,-42.867
45.29,-276.515,-42.947
45.33,-277.498,-43.05
45.36,-278.656,-43.187
45.39,-279.674,-43.405
45.42,-280.516,-43.554
45.46,-281.113,-43.646
45.49,-281.569,-43.646
45.52,-281.709,-43.646
45.56,-281.955,-43.623
45.59,-282.376,-43.646
45.62,-283.183,-43.68
45.65,-283.71,-43.817
45.69,-284.131,-43.921
45.72,-284.412,-43.989
45.75,-284.727,-43.966
45.78,-284.657,-43.921
45.82,-284.236,-43.806
45.85,-284.131,-43.783
45.88,-284.692,-43.68
45.91,-284.552,-43.703
45.95,-284.622,-43.726
45.98,-284.236,-43.714
46.01,-284.833,-43.749
46.04,-283.99,-43.474
46.08,-282.832,-43.462
46.11,-283.218,-43.302
46.14,-283.253,-43.279
46.17,-283.604,-43.336
46.21,-283.043,-43.268
46.24,-281.779,-43.119
46.27,-280.867,-42.878
46.3,-279.955,-42.546
46.34,-279.112,-42.351
46.37,-278.796,-42.26
46.4,-278.305,-42.202
46.43,-277.884,-42.134
46.47,-276.971,-42.019
46.5,-275.813,-41.859
46.53,-274.55,-41.607
46.56,-273.462,-41.263
46.6,-272.304,-40.999
46.63,-271.321,-40.885
46.66,-270.549,-40.747
46.69,-269.426,-40.541
46.73,-268.163,-40.312
46.76,-266.583,-40.014
46.79,-264.828,-39.728
46.82,-263.249,-39.373
46.86,-261.67,-38.995
46.89,-260.196,-38.754
46.92,-258.722,-38.502
46.96,-257.108,-38.284
46.99,-255.739,-38.01
47.02,-253.949,-37.7
47.05,-251.913,-37.46
47.09,-250.439,-37.185
47.12,-249.001,-36.818
47.15,-247.562,-36.589
47.18,-245.947,-36.36
47.22,-244.403,-36.211
47.25,-243.526,-35.936
47.28,-241.315,-35.547
47.31,-239.209,-35.283
47.35,-237.384,-34.871
47.38,-235.489,-34.55
47.41,-234.225,-34.195
47.44,-232.26,-33.92
47.48,-230.154,-33.771
47.51,-228.54,-33.439
47.54,-226.61,-33.072
47.57,-224.785,-32.751
47.61,-222.363,-32.385
47.64,-220.679,-32.179
47.67,-219.24,-31.732
47.7,-216.853,-31.423
47.74,-214.958,-31.171
47.77,-212.923,-30.815
47.8,-210.536,-30.38
47.83,-208.009,-29.933
47.87,-205.482,-29.567
47.9,-203.236,-29.223
47.93,-201.482,-28.891
47.96,-199.657,-28.547
48.0,-197.27,-28.249
48.03,-194.673,-27.963
48.06,-192.146,-27.482
48.09,-189.409,-26.921
48.13,-186.461,-26.462
48.16,-183.759,-26.073
48.19,-181.337,-25.638
48.23,-179.021,-25.168
48.26,-176.529,-24.824
48.29,-173.756,-24.503
48.32,-170.738,-24.114
48.36,-167.755,-23.61
48.39,-164.912,-23.049
48.42,-161.789,-22.59
48.45,-159.087,-22.247
48.49,-156.63,-21.777
48.52,-153.577,-21.273
48.55,-150.102,-20.861
48.58,-146.628,-20.379
48.62,-143.188,-19.761
48.65,-139.89,-19.165
48.68,-136.906,-18.65
48.71,-133.537,-18.26
48.75,-130.94,-17.939
48.78,-127.676,-17.298
48.81,-123.781,-16.931
48.84,-121.078,-16.496
48.88,-117.639,-15.969
48.91,-114.726,-15.534
48.94,-111.568,-14.927
48.97,-108.409,-14.675
49.01,-106.198,-14.308
49.04,-102.618,-13.747
49.07,-98.793,-13.254
49.1,-94.862,-12.567
49.14,-90.721,-12.017
49.17,-87.598,-11.433
49.2,-84.229,-10.768
49.23,-80.649,-10.367
49.27,-77.455,-10.001
49.3,-74.332,-9.577
49.33,-71.208,-9.153
49.36,-68.015,-8.672
49.4,-64.33,-8.259
49.43,-61.066,-7.801
49.46,-57.837,-7.217
49.5,-54.468,-6.69
49.53,-51.064,-6.255
49.56,-47.624,-5.785
49.59,-44.255,-5.292
49.63,-41.096,-4.777
49.66,-37.798,-4.353
49.69,-35.587,-4.239
49.72,-35.025,-4.044
49.76,-30.673,-3.276
49.79,-24.812,-3.001
49.82,-21.092,-2.188
49.85,-16.53,-1.443
49.89,-14.74,-0.768
49.92,-10.88,-0.034
49.95,-5.159,-0.092
49.98,-0.351,-0.137
50.02,1.228,1.031
50.05,5.826,1.604
50.08,8.212,1.168
50.11,11.406,2.016
50.15,18.425,1.959
50.18,21.864,1.673
50.21,24.391,2.119
50.24,27.269,2.577
50.28,29.761,2.91
50.31,32.112,3.311
50.34,34.358,3.941
50.37,36.359,4.972
50.41,38.956,6.083
50.44,41.377,7.045
50.47,43.202,8.317
50.5,44.501,9.978
50.54,46.817,11.742
50.57,53.52,12.292
50.6,60.75,12.097
50.63,66.681,12.292
50.67,71.77,12.464
50.7,74.577,12.498
50.73,75.981,12.532
50.77,78.543,12.784
50.8,82.368,13.048
50.83,85.667,13.426
50.86,89.037,14.033
50.9,92.125,14.594
50.93,94.722,15.167
50.96,97.881,15.637
50.99,101.109,15.946
51.03,103.847,16.416
51.06,107.146,16.966
51.09,110.725,17.435
51.12,114.059,17.905
51.16,117.253,18.398
51.19,120.166,18.993
51.22,123.43,19.474
51.25,126.834,19.864
51.29,130.028,20.322
51.32,133.432,20.929
51.35,136.906,21.445
51.38,140.556,22.052
51.42,144.206,22.476
51.45,146.242,22.98
51.48,149.751,23.564
51.51,152.594,23.702
51.55,155.402,24.206
51.58,158.736,24.584
51.61,161.368,25.145
51.64,164.702,25.638
51.68,167.685,25.993
51.71,170.001,26.416
51.74,172.423,26.84
51.77,175.195,27.184
51.81,178.143,27.585
51.84,181.653,28.112
51.87,184.952,28.776
51.9,188.181,29.383
51.94,191.304,29.807
51.97,193.761,30.14
52.0,196.007,30.575
52.03,198.428,30.85
52.07,200.499,31.045
52.1,202.71,31.251
52.13,204.395,31.503
52.17,206.044,31.812
52.2,207.939,32.018
52.23,209.273,32.098
52.26,210.045,32.328
52.3,211.87,32.625
52.33,213.905,32.877
52.36,216.116,33.267
52.39,218.362,33.679
52.43,220.222,34.138
52.46,222.188,34.55
52.49,224.083,34.722
52.52,225.417,34.905
52.56,227.312,35.249
52.59,229.382,35.501
52.62,231.313,35.81
52.65,233.524,36.131
52.69,234.927,36.44
52.72,236.717,36.841
52.75,238.858,37.07
52.78,240.788,37.357
52.82,242.122,37.609
52.85,243.806,37.987
52.88,245.912,38.181
52.91,247.491,38.41
52.95,249.352,38.697
52.98,251.071,39.052
53.01,252.721,39.304
53.04,253.984,39.476
53.08,255.669,39.728
53.11,257.388,40.014
53.14,259.073,40.312
53.17,260.968,40.61
53.21,262.337,40.793
53.24,263.284,41.034
53.27,264.478,41.183
53.3,265.636,41.263
53.34,266.829,41.343
53.37,267.882,41.549
53.4,269.04,41.79
53.44,270.233,41.962
53.47,271.672,42.134
53.5,273.041,42.386
53.53,274.164,42.638
53.57,275.146,42.798
53.6,276.094,42.878
53.63,276.831,42.97
53.66,277.673,43.073
53.7,278.551,43.187
53.73,279.604,43.302
53.76,280.516,43.439
53.79,281.078,43.577
53.83,281.569,43.634
53.86,281.779,43.623
53.89,281.92,43.577
53.92,282.306,43.577
53.96,282.797,43.623
53.99,283.324,43.703
54.02,283.675,43.772
54.05,283.99,43.829
54.09,284.166,43.863
54.12,284.236,43.852
54.15,284.061,43.76
54.18,284.096,43.714
54.22,284.412,43.703
54.25,284.552,43.714
54.28,284.412,43.703
54.31,284.166,43.6
54.35,282.938,43.417
54.38,283.183,43.428
54.41,283.148,43.187
54.44,283.008,43.371
54.48,284.026,43.394
54.51,283.885,43.543
54.54,284.201,43.588
54.57,283.71,43.462
54.61,283.289,43.382
54.64,282.797,43.142
54.67,282.095,42.981
54.71,281.744,42.809
54.74,281.253,42.66
54.77,280.376,42.557
54.8,279.533,42.351
54.84,278.059,42.042
54.87,276.515,41.721
54.9,274.76,41.366
54.93,273.181,41.057
54.97,272.023,40.747
55.0,270.689,40.495
55.03,269.25,40.369
55.06,267.812,40.175
55.1,266.162,39.865
55.13,264.442,39.522
55.16,262.863,39.224
55.19,261.424,38.972
55.23,260.196,38.766
55.26,258.827,38.502
55.29,257.318,38.307
55.32,255.914,38.136
55.36,254.651,37.906
55.39,253.177,37.586
55.42,251.457,37.288
55.45,249.773,37.07
55.49,248.439,36.795
55.52,246.614,36.406
55.55,244.859,36.154
55.58,243.596,35.879
55.62,241.631,35.581
55.65,239.314,35.18
55.68,237.419,34.825
55.71,235.91,34.481
55.75,234.19,34.309
55.78,232.716,34.057
55.81,230.891,33.714
55.84,228.716,33.439
55.88,226.75,33.175
55.91,224.82,32.797
55.94,222.714,32.373
55.98,220.819,32.007
56.01,218.889,31.72
56.04,216.748,31.4
56.07,214.888,31.067
56.11,212.958,30.689
56.14,210.466,30.392
56.17,208.08,30.071
56.2,205.904,29.624
56.24,203.587,29.177
56.27,201.517,28.891
56.3,199.762,28.662
56.33,197.621,28.318
56.37,195.129,27.906
56.4,192.357,27.459
56.43,189.479,27.001
56.46,186.636,26.543
56.5,184.32,26.027
56.53,181.688,25.546
56.56,179.021,25.225
56.59,176.599,24.916
56.63,174.072,24.492
56.66,170.949,24.022
56.69,167.72,23.621
56.72,164.772,23.106
56.76,161.684,22.533
56.79,158.771,22.029
56.82,156.068,21.64
56.85,153.05,21.273
56.89,149.681,20.746
56.92,145.996,20.162
56.95,142.873,19.692
56.98,139.854,19.211
57.02,137.117,18.844
57.05,134.485,18.329
57.08,130.94,17.882
57.11,127.641,17.55
57.15,124.623,17.023
57.18,121.359,16.519
57.21,118.727,16.038
57.25,114.937,15.488
57.28,111.427,15.179
57.31,109.286,14.663
57.34,106.514,14.182
57.38,103.004,13.815
57.41,99.074,13.311
57.44,95.003,12.67
57.47,91.318,11.971
57.51,87.808,11.375
57.54,84.369,10.906
57.57,81.07,10.436
57.6,77.701,9.932
57.64,74.332,9.531
57.67,71.173,9.153
57.7,68.085,8.763
57.73,65.277,8.305
57.77,62.154,7.836
57.8,58.644,7.435
57.83,55.24,6.976
57.86,52.011,6.392
57.9,48.642,5.854
57.93,45.062,5.373
57.96,41.342,4.869
57.99,37.447,4.261
58.03,34.639,3.918
58.06,33.305,3.631
58.09,28.532,2.933
58.12,22.987,2.612
58.16,20.004,1.833
58.19,16.67,1.031
58.22,14.143,0.768
58.25,11.195,0.355
58.29,6.844,0.0
58.32,1.649,0.103
58.35,-0.316,-0.286
58.38,-2.667,-1.432
58.42,-7.3,-1.226
58.45,-9.616,-1.478
58.48,-15.652,-2.154
58.51,-20.636,-1.97
58.55,-23.759,-2.085
58.58,-27.795,-2.348
58.61,-30.638,-2.772
58.65,-32.428,-3.586
58.68,-34.885,-4.387
58.71,-37.411,-5.086
58.74,-39.447,-6.094
58.78,-41.202,-7.492
58.81,-43.307,-8.947
58.84,-44.922,-10.344
58.87,-47.624,-11.753
58.91,-54.784,-12.074
58.94,-61.066,-11.799
58.97,-66.435,-11.983
59.0,-71.138,-12.017
59.04,-73.068,-12.189
59.07,-75.174,-12.464
59.1,-78.719,-12.635
59.13,-82.018,-12.899
59.17,-85.106,-13.518
59.2,-88.756,-14.125
59.23,-92.055,-14.652
59.26,-95.178,-15.167
59.3,-98.126,-15.66
59.33,-101.144,-16.164
59.36,-104.478,-16.565
59.39,-107.848,-16.966
59.43,-111.041,-17.47
59.46,-114.41,-18.054
59.49,-117.78,-18.558
59.52,-120.973,-18.97
59.56,-123.781,-19.417
59.59,-126.659,-19.91
59.62,-130.063,-20.391
59.65,-133.607,-20.838
59.69,-137.047,-21.342
59.72,-140.521,-22.018
59.75,-143.68,-22.522
59.78,-146.347,-22.957
59.82,-149.26,-23.255
59.85,-151.471,-23.576
59.88,-154.454,-24.068
59.92,-157.893,-24.423
59.95,-161.403,-24.962
59.98,-164.421,-25.489
60.01,-166.878,-26.119
60.05,-169.826,-26.497
60.08,-172.528,-26.806
60.11,-175.616,-27.23
60.14,-178.494,-27.665
60.18,-181.407,-28.249
60.21,-184.811,-28.685
60.24,-187.408,-29.074
60.27,-189.97,-29.567
60.31,-192.638,-29.945
60.34,-194.954,-30.208
60.37,-197.27,-30.518
60.4,-199.446,-30.827
60.44,-201.587,-31.216
60.47,-204.008,-31.503
60.5,-206.079,-31.743
60.53,-207.869,-32.098
60.57,-209.518,-32.385
60.6,-210.992,-32.58
60.63,-212.642,-32.774
60.66,-214.502,-33.026
60.7,-216.537,-33.404
60.73,-218.748,-33.794
60.76,-220.854,-34.149
60.79,-222.89,-34.481
60.83,-224.469,-34.859
60.86,-226.434,-35.169
60.89,-228.4,-35.34
60.92,-230.33,-35.638
60.96,-232.401,-35.982
60.99,-234.296,-36.394
61.02,-236.401,-36.681
61.05,-238.016,-36.944
61.09,-239.63,-37.253
61.12,-240.823,-37.414
61.15,-242.683,-37.7
61.19,-244.754,-37.792
61.22,-245.842,-38.101
61.25,-247.456,-38.422
61.28,-248.965,-38.64
61.32,-250.72,-38.892
61.35,-252.44,-39.132
61.38,-253.773,-39.419
61.41,-255.247,-39.693
61.45,-256.932,-39.888
61.48,-258.582,-40.175
61.51,-260.477,-40.507
61.54,-262.056,-40.793
61.58,-263.074,-40.976
61.61,-264.162,-41.068
61.64,-265.179,-41.206
61.67,-266.373,-41.4
61.71,-267.741,-41.515
61.74,-269.075,-41.687
61.77,-270.303,-41.95
61.8,-271.672,-42.271
61.84,-273.111,-42.431
61.87,-274.129,-42.58
61.9,-275.041,-42.741
61.93,-275.848,-42.867
61.97,-276.761,-42.935
62.0,-277.744,-43.038
62.03,-278.796,-43.153
62.06,-279.709,-43.359
62.1,-280.586,-43.508
62.13,-281.253,-43.611
62.16,-281.744,-43.646
62.19,-282.06,-43.669
62.23,-282.271,-43.657
62.26,-282.797,-43.691
62.29,-283.499,-43.703
62.32,-283.99,-43.829
62.36,-284.412,-43.921
62.39,-284.692,-43.978
62.42,-285.008,-43.955
62.46,-284.973,-43.932
62.49,-284.973,-43.898
62.52,-285.114,-43.898
62.55,-285.535,-43.852
62.59,-285.359,-43.852
62.62,-285.114,-43.783
62.65,-284.447,-43.703
62.68,-285.078,-43.691
62.72,-283.955,-43.336
62.75,-282.657,-43.359
62.78,-283.183,-43.153
62.81,-282.938,-43.153
62.85,-283.429,-43.268
62.88,-283.078,-43.199
62.91,-281.92,-43.153
62.94,-281.218,-42.912
62.98,-280.2,-42.592
63.01,-279.147,-42.363
63.04,-278.726,-42.225
63.07,-278.445,-42.145
63.11,-277.884,-42.053
63.14,-276.971,-41.973
63.17,-275.708,-41.79
63.2,-274.445,-41.549
63.24,-273.357,-41.217
63.27,-272.198,-40.931
63.3,-271.146,-40.793
63.33,-270.338,-40.667
63.37,-269.18,-40.438
63.4,-267.812,-40.209
63.43,-266.057,-39.9
63.46,-264.021,-39.533
63.5,-262.231,-39.132
63.53,-260.477,-38.697
63.56,-258.897,-38.433
63.59,-257.599,-38.25
63.63,-256.265,-38.078
63.66,-255.072,-37.883
63.69,-253.528,-37.631
63.72,-251.457,-37.448
63.76,-250.229,-37.196
63.79,-249.071,-36.852
63.82,-247.948,-36.681
63.86,-246.474,-36.474
63.89,-244.824,-36.303
63.92,-243.806,-36.016
63.95,-241.771,-35.592
63.99,-239.63,-35.34
64.02,-237.875,-34.905
64.05,-235.875,-34.55
64.08,-234.401,-34.195
64.12,-232.225,-33.863
64.15,-230.154,-33.691
64.18,-228.575,-33.347
64.21,-226.434,-32.958
64.25,-224.434,-32.66
64.28,-221.977,-32.27
64.31,-220.152,-32.053
64.34,-219.029,-31.663
64.38,-216.924,-31.377
64.41,-214.923,-31.171
64.44,-212.852,-30.827
64.47,-210.571,-30.403
64.51,-208.185,-29.945
64.54,-205.658,-29.59
64.57,-203.412,-29.246
64.6,-201.411,-28.857
64.64,-199.411,-28.478
64.67,-197.2,-28.215
64.7,-194.814,-27.906
64.73,-192.146,-27.459
64.77,-189.549,-26.955
64.8,-186.777,-26.485
64.83,-183.899,-26.107
64.86,-181.618,-25.695
64.9,-179.477,-25.214
64.93,-176.704,-24.836
64.96,-173.792,-24.538
64.99,-170.914,-24.102
65.03,-167.86,-23.564
65.06,-165.053,-23.049
65.09,-162.0,-22.59
65.13,-159.122,-22.212
65.16,-156.419,-21.731
65.19,-153.471,-21.227
65.22,-150.102,-20.792
65.26,-146.628,-20.334
65.29,-143.083,-19.738
65.32,-139.96,-19.165
65.35,-136.591,-18.581
65.39,-132.941,-18.203
65.42,-130.484,-17.813
65.45,-127.782,-17.321
65.48,-124.623,-16.989
65.52,-121.675,-16.645
65.55,-118.306,-16.164
65.58,-115.042,-15.625
65.61,-111.778,-15.018
65.65,-108.655,-14.652
65.68,-105.988,-14.216
65.71,-102.232,-13.632
65.74,-98.337,-13.094
65.78,-94.476,-12.464
65.81,-90.651,-11.971
65.84,-87.492,-11.375
65.87,-83.983,-10.78
65.91,-80.473,-10.367
65.94,-77.28,-9.978
65.97,-74.191,-9.577
66.0,-71.313,-9.142
66.04,-68.085,-8.672
66.07,-64.68,-8.328
66.1,-61.557,-7.859
66.13,-58.363,-7.332
66.17,-55.275,-6.85
66.2,-52.116,-6.427
66.23,-48.607,-5.98
66.26,-45.308,-5.464
66.3,-41.798,-4.88
66.33,-38.078,-4.399
66.36,-35.236,-4.101
66.4,-34.183,-3.883
66.43,-30.147,-3.047
66.46,-23.338,-2.6
66.49,-19.162,-1.936
66.53,-15.021,-1.077
66.56,-12.775,-0.493
66.59,-9.195,-0.137
66.62,-4.071,-0.137
66.66,0.07,-0.057
66.69,1.123,1.008
66.72,5.334,1.432
66.75,7.054,1.123
66.79,10.283,1.982
66.82,16.951,1.867
66.85,20.671,1.661
66.88,23.373,2.005
66.92,26.111,2.451
66.95,28.954,2.749
66.98,31.551,3.093
67.01,34.007,3.78
67.05,36.569,4.846
67.08,39.693,5.98
67.11,42.43,7.045
67.14,44.22,8.42
67.18,45.308,10.184
67.21,47.694,12.005
67.24,54.889,12.452
67.27,61.662,12.143
67.31,67.137,12.338
67.34,72.191,12.441
67.37,74.753,12.418
67.4,76.051,12.498
67.44,78.683,12.704
67.47,82.053,12.933
67.5,85.211,13.346
67.53,88.651,13.873
67.57,91.528,14.457
67.6,94.336,15.098
67.63,97.881,15.591
67.67,101.074,15.958
67.7,103.917,16.473
67.73,107.426,17.034
67.76,110.901,17.493
67.8,114.27,17.974
67.83,117.569,18.478
67.86,120.482,19.016
67.89,123.711,19.52
67.93,127.185,19.91
67.96,130.484,20.379
67.99,134.064,21.021
68.02,138.135,21.662
68.06,141.679,22.166
68.09,144.066,22.533
68.12,145.75,22.9
68.15,148.453,23.175
68.19,151.295,23.404
68.22,155.437,23.988
68.25,159.016,24.446
68.28,161.192,25.168
68.32,164.316,25.66
68.35,166.983,25.97
68.38,169.756,26.405
68.41,172.809,26.84
68.45,175.406,27.184
68.48,177.898,27.562
68.51,180.811,28.009
68.54,183.723,28.547
68.58,186.917,29.074
68.61,190.041,29.441
68.64,192.287,29.819
68.67,194.392,30.243
68.71,196.709,30.529
68.74,198.814,30.758
68.77,201.271,31.022
68.8,203.447,31.377
68.84,205.518,31.778
68.87,207.693,32.076
68.9,209.378,32.259
68.93,210.641,32.557
68.97,212.607,32.855
69.0,214.642,33.129
69.03,216.959,33.473
69.07,219.205,33.828
69.1,220.959,34.286
69.13,223.346,34.676
69.16,225.171,34.825
69.2,226.259,35.054
69.23,228.084,35.363
69.26,230.014,35.581
69.29,231.944,35.89
69.33,233.91,36.165
69.36,235.349,36.486
69.39,236.823,36.795
69.42,238.507,37.001
69.46,240.016,37.162
69.49,241.631,37.471
69.52,243.806,37.826
69.55,245.491,38.09
69.59,247.176,38.376
69.62,248.79,38.628
69.65,250.615,39.018
69.68,252.545,39.247
69.72,253.914,39.464
69.75,255.423,39.728
69.78,257.143,39.968
69.81,258.617,40.243
69.85,260.477,40.507
69.88,261.951,40.69
69.91,262.968,40.942
69.94,264.021,41.091
69.98,265.039,41.16
70.01,266.197,41.229
70.04,267.32,41.435
70.07,268.549,41.687
70.11,269.917,41.893
70.14,271.321,42.099
70.17,272.69,42.374
70.2,273.813,42.603
70.24,274.831,42.775
70.27,275.778,42.821
70.3,276.585,42.924
70.34,277.533,43.038
70.37,278.621,43.199
70.4,279.779,43.336
70.43,280.551,43.508
70.47,281.253,43.611
70.5,281.534,43.669
70.53,281.955,43.657
70.56,282.201,43.6
70.6,282.587,43.646
70.63,283.113,43.691
70.66,283.675,43.795
70.69,284.096,43.829
70.73,284.271,43.886
70.76,284.412,43.921
70.79,284.447,43.863
70.82,284.271,43.772
70.86,284.236,43.691
70.89,284.587,43.737
70.92,284.868,43.76
70.95,285.078,43.84
70.99,285.149,43.795
71.02,284.903,43.84
71.05,285.324,43.795
71.08,284.061,43.52
71.12,283.92,43.565
71.15,284.727,43.428
71.18,284.552,43.543
71.21,284.692,43.554
71.25,283.71,43.348
71.28,282.552,43.176
71.31,281.779,42.855
71.34,280.692,42.603
71.38,280.411,42.477
71.41,279.849,42.317
71.44,279.498,42.466
71.47,280.937,42.683
71.51,282.025,42.878
71.54,282.236,43.119
71.57,282.06,43.142
71.61,281.183,42.924
71.64,280.27,42.58
71.67,279.288,42.145
71.7,277.814,41.767
71.74,275.813,41.355
71.77,273.532,40.839
71.8,271.146,40.312
71.83,268.584,39.865
71.87,266.267,39.487
71.9,264.372,39.121
71.93,262.407,38.788
71.96,260.301,38.479
72.0,258.09,38.181
72.03,255.879,37.849
72.06,253.844,37.448
72.09,251.808,37.105
72.13,249.948,36.898
72.16,248.299,36.658
72.19,246.719,36.383
72.22,245.421,36.142
72.26,244.017,35.97
72.29,242.578,35.799
72.32,240.999,35.478
72.35,238.998,35.134
72.39,237.524,34.894
72.42,235.945,34.561
72.45,233.945,34.286
72.48,232.436,33.897
72.52,229.768,33.473
72.55,227.101,33.152
72.58,224.96,32.683
72.61,222.925,32.236
72.65,221.135,31.915
72.68,219.099,31.675
72.71,216.994,31.423
72.74,214.958,31.033
72.78,212.642,30.655
72.81,210.396,30.346
72.84,208.009,29.968
72.88,206.009,29.601
72.91,204.079,29.189
72.94,202.008,28.971
72.97,200.148,28.776
73.01,198.218,28.41
73.04,195.445,27.906
73.07,192.322,27.459
73.1,189.584,26.943
73.14,186.952,26.474
73.17,184.566,26.016
73.2,182.249,25.626
73.23,179.793,25.363
73.27,177.371,25.053
73.3,174.213,24.526
73.33,170.668,23.999
73.36,167.509,23.461
73.4,164.281,22.934
73.43,161.543,22.384
73.46,158.56,21.846
73.49,155.367,21.514
73.53,152.383,21.113
73.56,148.558,20.483
73.59,144.487,19.887
73.62,141.469,19.371
73.66,138.626,18.913
73.69,135.643,18.501
73.72,132.484,18.008
73.75,129.431,17.642
73.79,126.062,17.183
73.82,122.166,16.679
73.85,118.762,16.026
73.88,115.533,15.488
73.92,111.357,14.72
73.95,102.654,13.414
73.98,94.511,12.292
74.01,90.3,11.043
74.05,87.106,10.367
74.08,84.369,10.23
74.11,82.474,10.31
74.14,79.736,10.195
74.18,77.034,10.367
74.21,76.122,10.321
74.24,74.612,10.115
74.28,73.103,9.943
74.31,71.349,9.668
74.34,69.208,9.439
74.37,67.383,9.13
74.41,65.417,8.66
74.44,62.82,8.294
74.47,60.399,7.927
74.5,57.346,7.435
74.54,54.257,6.931
74.57,51.169,6.335
74.6,47.484,5.808
74.63,43.764,5.304
74.67,40.149,4.628
74.7,37.517,4.342
74.73,37.131,4.181
74.76,31.972,3.345
74.8,24.988,2.967
74.83,21.443,2.073
74.86,17.197,1.214
74.89,15.056,1.042
74.93,12.81,0.412
74.96,8.458,0.011
74.99,3.264,0.103
75.02,-0.07,0.023
75.06,-1.509,-1.203
75.09,-6.212,-1.409
75.12,-8.142,-1.134
75.15,-11.441,-1.902
75.19,-17.091,-1.959
75.22,-20.882,-1.799
75.25,-24.532,-2.039
75.28,-28.462,-2.543
75.32,-31.761,-3.253
75.35,-34.85,-4.044
75.38,-37.727,-4.766
75.41,-39.587,-5.797
75.45,-41.167,-7.251
75.48,-43.483,-8.752
75.51,-45.308,-10.15
75.55,-47.905,-11.73
75.58,-55.17,-12.2
75.61,-61.136,-11.856
75.64,-66.049,-12.005
75.68,-71.033,-12.028
75.71,-73.244,-12.143
75.74,-75.42,-12.441
75.77,-78.508,-12.544
75.81,-81.245,-12.796
75.84,-84.369,-13.346
75.87,-88.194,-13.93
75.9,-91.353,-14.434
75.94,-94.231,-14.961
75.97,-97.179,-15.454
76.0,-100.092,-15.935
76.03,-103.32,-16.359
76.07,-106.725,-16.737
76.1,-109.883,-17.252
76.13,-113.252,-17.825
76.16,-116.481,-18.317
76.2,-119.604,-18.753
76.23,-122.623,-19.199
76.26,-125.465,-19.681
76.29,-128.519,-20.139
76.33,-131.958,-20.54
76.36,-135.397,-21.044
76.39,-138.907,-21.685
76.42,-142.241,-22.27
76.46,-144.908,-22.613
76.49,-147.295,-22.98
76.52,-150.348,-23.404
76.55,-153.717,-23.85
76.59,-157.156,-24.354
76.62,-160.526,-24.836
76.65,-163.368,-25.42
76.68,-166.422,-26.004
76.72,-169.791,-26.474
76.75,-173.055,-26.829
76.78,-175.932,-27.299
76.82,-178.775,-27.814
76.85,-181.898,-28.341
76.88,-185.268,-28.719
76.91,-188.11,-29.12
76.95,-190.602,-29.567
76.98,-192.918,-29.945
77.01,-195.129,-30.174
77.04,-197.235,-30.38
77.08,-199.165,-30.689
77.11,-201.376,-31.056
77.14,-203.833,-31.331
77.17,-205.798,-31.594
77.21,-207.483,-31.95
77.24,-209.167,-32.282
77.27,-210.992,-32.499
77.3,-212.677,-32.717
77.34,-214.537,-33.015
77.37,-216.678,-33.416
77.4,-219.064,-33.817
77.43,-221.381,-34.149
77.47,-223.206,-34.493
77.5,-224.925,-34.882
77.53,-226.855,-35.123
77.56,-228.505,-35.283
77.6,-230.4,-35.558
77.63,-232.225,-35.856
77.66,-233.839,-36.177
77.69,-235.735,-36.463
77.73,-237.56,-36.704
77.76,-239.139,-37.036
77.79,-241.174,-37.391
77.82,-242.929,-37.631
77.86,-244.789,-37.929
77.89,-246.86,-38.25
77.92,-248.825,-38.662
77.95,-251.036,-38.972
77.99,-252.44,-39.155
78.02,-253.668,-39.419
78.05,-254.897,-39.533
78.09,-256.09,-39.705
78.12,-257.845,-39.865
78.15,-259.459,-40.094
78.18,-260.793,-40.404
78.22,-262.091,-40.656
78.25,-263.144,-40.793
78.28,-264.127,-40.919
78.31,-265.109,-41.057
78.35,-266.232,-41.24
78.38,-267.636,-41.4
78.41,-268.829,-41.549
78.44,-270.023,-41.813
78.48,-271.251,-42.099
78.51,-272.62,-42.271
78.54,-273.708,-42.408
78.57,-274.655,-42.557
78.61,-275.497,-42.695
78.64,-276.305,-42.775
78.67,-277.322,-42.89
78.7,-278.41,-43.016
78.74,-279.358,-43.21
78.77,-280.165,-43.359
78.8,-280.832,-43.462
78.83,-281.323,-43.485
78.87,-281.709,-43.531
78.9,-282.06,-43.52
78.93,-282.762,-43.6
78.96,-283.078,-43.543
79.0,-283.394,-43.737
79.03,-284.552,-43.772
79.06,-284.447,-43.875
79.09,-285.324,-43.955
79.13,-284.166,-43.634
79.16,-282.657,-43.565
79.19,-283.745,-43.428
79.22,-284.271,-43.348
79.26,-284.482,-43.611
79.29,-285.008,-43.657
79.32,-283.885,-43.634
79.35,-284.341,-43.657
79.39,-283.534,-43.245
79.42,-282.306,-43.245
79.45,-282.938,-43.038
79.49,-282.481,-42.981
79.52,-282.587,-43.038
79.55,-281.99,-42.935
79.58,-280.867,-42.809
79.62,-280.025,-42.569
79.65,-279.007,-42.26
79.68,-278.27,-42.122
79.71,-278.13,-42.053
79.75,-277.954,-42.053
79.78,-277.708,-42.03
79.81,-276.901,-41.95
79.84,-275.848,-41.813
79.88,-274.69,-41.549
79.91,-273.637,-41.217
79.94,-272.549,-40.942
79.97,-271.532,-40.805
80.01,-270.654,-40.656
80.04,-269.566,-40.438
80.07,-268.268,-40.186
80.1,-266.583,-39.9
80.14,-264.758,-39.59
80.17,-263.284,-39.235
80.2,-261.88,-38.903
80.23,-260.652,-38.708
80.27,-259.459,-38.548
80.3,-258.02,-38.365
80.33,-256.932,-38.17
80.36,-255.458,-37.895
80.4,-253.458,-37.654
80.43,-252.019,-37.379
80.46,-250.79,-37.024
80.49,-249.457,-36.772
80.53,-247.878,-36.6
80.56,-246.158,-36.36
80.59,-244.543,-36.039
80.62,-242.859,-35.661
80.66,-240.964,-35.352
80.69,-239.139,-35.043
80.72,-237.349,-34.687
80.76,-235.594,-34.355
80.79,-233.629,-34.069
80.82,-231.523,-33.805
80.85,-229.628,-33.485
80.89,-227.592,-33.015
80.92,-224.89,-32.625
80.95,-222.679,-32.316
80.98,-220.679,-31.904
81.02,-218.643,-31.526
81.05,-216.643,-31.193
81.08,-214.326,-30.896
81.11,-212.326,-30.644
81.15,-210.291,-30.208
81.18,-207.588,-29.796
81.21,-205.096,-29.464
81.24,-202.78,-29.086
81.28,-200.99,-28.753
81.31,-199.306,-28.398
81.34,-197.13,-28.181
81.37,-194.919,-27.929
81.41,-192.287,-27.47
81.44,-189.549,-26.955
81.47,-186.882,-26.474
81.5,-184.004,-26.061
81.54,-181.653,-25.638
81.57,-179.477,-25.133
81.6,-176.74,-24.767
81.63,-173.967,-24.503
81.67,-171.159,-24.091
81.7,-168.176,-23.576
81.73,-165.123,-23.026
81.76,-161.929,-22.579
81.8,-159.157,-22.166
81.83,-156.49,-21.662
81.86,-153.471,-21.181
81.89,-150.102,-20.757
81.93,-146.558,-20.276
81.96,-143.118,-19.715
81.99,-140.065,-19.142
82.03,-137.117,-18.65
82.06,-133.888,-18.329
82.09,-131.361,-17.951
82.12,-127.536,-17.264
82.16,-123.535,-16.851
82.19,-120.587,-16.313
82.22,-117.218,-15.832
82.25,-114.656,-15.373
82.29,-111.568,-14.892
82.32,-108.374,-14.606
82.35,-105.882,-14.308
82.38,-102.899,-13.781
82.42,-99.214,-13.288
82.45,-95.494,-12.716
82.48,-91.423,-12.12
82.51,-88.089,-11.524
82.55,-84.79,-10.86
82.58,-81.21,-10.413
82.61,-78.052,-10.058
82.64,-74.893,-9.623
82.68,-71.735,-9.176
82.71,-68.436,-8.695
82.74,-64.821,-8.305
82.77,-61.697,-7.847
82.81,-58.539,-7.274
82.84,-55.135,-6.782
82.87,-51.625,-6.323
82.9,-48.08,-5.865
82.94,-44.606,-5.304
82.97,-41.096,-4.72
83.0,-37.166,-4.239
83.03,-34.779,-4.032
83.07,-33.621,-3.689
83.1,-28.813,-2.944
83.13,-23.338,-2.692
83.16,-19.899,-1.947
83.2,-16.214,-1.352
83.23,-15.196,-0.71
83.26,-11.757,-0.172
83.3,-6.738,-0.126
83.33,-1.018,-0.08
83.36,0.983,0.916
83.39,5.545,1.684
83.43,8.388,1.123
83.46,10.248,1.741
83.49,16.319,1.856
83.52,20.25,1.661
83.56,22.952,1.97
83.59,25.9,2.463
83.62,29.305,2.772
83.65,32.007,3.104
83.69,34.253,3.826
83.72,36.429,4.88
83.75,39.061,5.934
83.78,41.447,6.954
83.82,43.237,8.259
83.85,44.781,9.943
83.88,46.922,11.799
83.91,53.099,12.601
83.95,60.434,12.326
83.98,66.084,12.361
84.01,71.7,12.532
84.04,75.209,12.521
84.08,76.753,12.624
84.11,79.07,12.876
84.14,82.368,13.071
84.17,85.492,13.392
84.21,88.896,13.918
84.24,91.844,14.434
84.27,94.301,14.995
84.3,97.389,15.454
84.34,100.372,15.774
84.37,103.11,16.255
84.4,106.584,16.817
84.43,110.164,17.286
84.47,113.568,17.802
84.5,116.832,18.34
84.53,119.815,18.913
84.57,123.289,19.429
84.6,126.694,19.818
84.63,129.922,20.299
84.66,133.221,20.883
84.7,137.222,21.514
84.73,141.188,22.029
84.76,144.066,22.487
84.79,146.277,22.991
84.83,149.541,23.427
84.86,152.559,23.644
84.89,155.472,24.08
84.92,158.49,24.481
84.96,161.122,25.053
84.99,164.526,25.512
85.02,167.58,25.912
85.05,170.212,26.394
85.09,172.739,26.852
85.12,175.581,27.241
85.15,178.389,27.608
85.18,181.512,28.078
85.22,184.425,28.627
85.25,187.479,29.131
85.28,190.321,29.464
85.31,192.532,29.784
85.35,194.427,30.162
85.38,196.674,30.426
85.41,198.744,30.655
85.44,201.271,30.919
85.48,203.342,31.285
85.51,205.307,31.697
85.54,207.413,31.984
85.57,209.273,32.179
85.61,210.641,32.476
85.64,212.607,32.797
85.67,214.677,33.084
85.7,217.029,33.416
85.74,219.24,33.805
85.77,221.065,34.241
85.8,223.451,34.676
85.83,225.732,34.871
85.87,226.996,35.123
85.9,228.751,35.455
85.93,230.576,35.638
85.97,232.26,35.89
86.0,234.436,36.188
86.03,236.015,36.452
86.06,237.244,36.795
86.1,239.279,37.024
86.13,240.753,37.185
86.16,242.297,37.551
86.19,244.228,37.826
86.23,245.877,38.113
86.26,247.772,38.353
86.29,249.281,38.628
86.32,251.071,39.006
86.36,252.721,39.189
86.39,253.773,39.373
86.42,255.247,39.59
86.45,256.897,39.819
86.49,258.511,40.117
86.52,260.582,40.415
86.55,262.056,40.644
86.58,263.004,40.931
86.62,264.056,41.068
86.65,265.074,41.137
86.68,266.338,41.194
86.71,267.531,41.412
86.75,268.864,41.675
86.78,270.163,41.87
86.81,271.567,42.088
86.84,272.971,42.351
86.88,274.129,42.592
86.91,275.182,42.764
86.94,276.164,42.821
86.97,276.901,42.901
87.01,277.744,43.016
87.04,278.761,43.142
87.07,279.884,43.256
87.1,280.621,43.405
87.14,281.183,43.531
87.17,281.534,43.588
87.2,281.92,43.565
87.24,282.13,43.52
87.27,282.552,43.554
87.3,283.113,43.611
87.33,283.78,43.714
87.37,284.061,43.737
87.4,284.271,43.817
87.43,284.412,43.84
87.46,284.412,43.783
87.5,283.99,43.623
87.53,283.92,43.577
87.56,284.412,43.588
87.59,284.622,43.623
87.63,284.657,43.669
87.66,284.517,43.623
87.69,283.675,43.508
87.72,283.99,43.554
87.76,284.201,43.348
87.79,284.061,43.474
87.82,284.692,43.508
87.85,284.622,43.588
87.89,284.798,43.577
87.92,284.096,43.405
87.95,283.183,43.21
87.98,282.201,42.901
88.02,281.323,42.706
88.05,281.85,42.706
88.08,282.938,42.844
88.11,283.043,43.038
88.15,282.376,43.05
88.18,280.516,42.66
88.21,278.445,42.179
88.24,276.62,41.572
88.28,274.62,41.08
88.31,273.041,40.679
88.34,271.146,40.289
88.37,268.935,40.106
88.41,267.355,39.877
88.44,265.495,39.522
88.47,263.67,39.247
88.51,262.196,38.972
88.54,260.442,38.708
88.57,258.932,38.491
88.6,257.353,38.147
88.64,255.353,37.895
88.67,253.984,37.712
88.7,252.615,37.437
88.73,251.212,37.196
88.77,249.983,36.967
88.8,248.579,36.841
88.83,247.456,36.669
88.86,245.807,36.337
88.9,244.508,36.119
88.93,242.894,35.776
88.96,240.894,35.489
88.99,238.577,34.997
89.03,236.787,34.676
89.06,235.384,34.321
89.09,233.278,34.092
89.12,231.628,33.828
89.16,229.803,33.473
89.19,228.049,33.278
89.22,226.469,33.072
89.25,224.644,32.751
89.29,222.574,32.362
89.32,220.644,31.995
89.35,218.713,31.697
89.38,216.748,31.342
89.42,214.888,30.999
89.45,213.028,30.667
89.48,210.712,30.392
89.51,208.466,30.105
89.55,206.43,29.693
89.58,204.114,29.212
89.61,201.517,28.868
89.64,199.236,28.547
89.68,197.2,28.135
89.71,194.954,27.734
89.74,192.392,27.344
89.78,189.584,27.001
89.81,186.882,26.554
89.84,184.285,26.016
89.87,181.372,25.512
89.91,178.67,25.145
89.94,176.213,24.778
89.97,173.476,24.297
90.0,170.422,23.873
90.04,167.439,23.484
90.07,164.526,23.049
90.1,161.789,22.533
90.13,158.806,21.995
90.17,155.577,21.617
90.2,152.734,21.227
90.23,149.786,20.7
90.26,146.242,20.139
90.3,142.697,19.646
90.33,139.574,19.199
90.36,136.906,18.741
90.39,134.555,18.329
90.43,131.747,17.951
90.46,128.413,17.664
90.49,125.325,17.195
90.52,121.921,16.611
90.56,118.867,16.095
90.59,115.077,15.488
90.62,111.287,15.007
90.65,108.269,14.434
90.69,105.18,13.873
90.72,101.32,13.414
90.75,97.144,12.899
90.78,93.353,12.28
90.82,89.844,11.65
90.85,86.65,11.204
90.88,83.737,10.86
90.91,81.035,10.528
90.95,78.403,10.173
90.98,75.665,9.886
91.01,73.068,9.623
91.04,70.261,9.233
91.08,67.067,8.718
91.11,63.803,8.202
91.14,60.399,7.71
91.18,57.24,7.217
91.21,54.187,6.656
91.24,50.642,6.094
91.27,46.817,5.636
91.31,43.062,5.098
91.34,39.201,4.468
91.37,36.394,4.124
91.4,35.201,3.883
91.44,30.252,3.104
91.47,24.146,2.749
91.5,20.847,1.959
91.53,16.986,1.168
91.57,14.775,0.905
91.6,12.318,0.447
91.63,8.212,-0.057
91.66,1.965,0.034
91.7,-0.316,-0.515
91.73,-4.141,-1.741
91.76,-9.476,-1.317
91.79,-11.932,-1.501
91.83,-16.776,-1.959
91.86,-20.847,-2.005
91.89,-24.637,-2.165
91.92,-28.111,-2.325
91.96,-30.392,-2.83
91.99,-32.358,-3.631
92.02,-34.428,-4.284
92.05,-36.359,-4.949
92.09,-38.429,-5.923
92.12,-40.43,-7.228
92.15,-42.816,-8.637
92.18,-45.168,-9.989
92.22,-47.203,-11.639
92.25,-53.836,-12.544
92.28,-60.995,-12.189
92.31,-66.154,-12.28
92.35,-71.559,-12.338
92.38,-74.121,-12.418
92.41,-76.192,-12.647
92.45,-79.175,-12.75
92.48,-82.158,-12.945
92.51,-85.106,-13.46
92.54,-88.721,-14.033
92.58,-91.985,-14.537
92.61,-94.933,-15.041
92.64,-97.775,-15.568
92.67,-100.793,-16.049
92.71,-104.057,-16.473
92.74,-107.462,-16.885
92.77,-110.69,-17.39
92.8,-113.989,-17.997
92.84,-117.393,-18.489
92.87,-120.552,-18.913
92.9,-123.5,-19.371
92.93,-126.553,-19.898
92.97,-130.309,-20.448
93.0,-134.309,-20.952
93.03,-137.994,-21.548
93.06,-141.539,-22.247
93.1,-144.522,-22.728
93.13,-146.663,-23.014
93.16,-149.506,-23.335
93.19,-152.769,-23.667
93.23,-155.682,-24.125
93.26,-158.665,-24.572
93.29,-161.859,-25.03
93.32,-164.632,-25.534
93.36,-167.404,-26.084
93.39,-170.282,-26.451
93.42,-172.774,-26.749
93.45,-175.581,-27.184
93.49,-178.389,-27.642
93.52,-181.372,-28.158
93.55,-184.741,-28.616
93.58,-187.479,-29.04
93.62,-190.181,-29.578
93.65,-192.883,-29.968
93.68,-195.094,-30.243
93.72,-197.27,-30.518
93.75,-199.271,-30.804
93.78,-201.411,-31.148
93.81,-203.938,-31.423
93.85,-206.044,-31.675
93.88,-207.658,-32.018
93.91,-209.308,-32.316
93.94,-210.922,-32.534
93.98,-212.747,-32.751
94.01,-214.537,-33.038
94.04,-216.502,-33.404
94.07,-218.643,-33.771
94.11,-220.679,-34.057
94.14,-222.679,-34.424
94.17,-224.715,-34.836
94.2,-226.575,-35.123
94.24,-228.224,-35.34
94.27,-230.225,-35.627
94.3,-232.12,-35.925
94.33,-233.769,-36.257
94.37,-235.945,-36.543
94.4,-237.454,-36.749
94.43,-239.174,-37.116
94.46,-240.543,-37.288
94.5,-242.122,-37.609
94.53,-244.333,-37.723
94.56,-245.245,-38.01
94.59,-247.07,-38.376
94.63,-248.86,-38.571
94.66,-250.58,-38.846
94.69,-252.335,-39.132
94.72,-253.528,-39.396
94.76,-254.967,-39.636
94.79,-256.721,-39.831
94.82,-258.582,-40.14
94.85,-260.406,-40.472
94.89,-261.986,-40.782
94.92,-263.179,-40.954
94.95,-264.267,-41.08
94.99,-265.285,-41.229
95.02,-266.513,-41.4
95.05,-267.847,-41.503
95.08,-269.075,-41.664
95.12,-270.303,-41.893
95.15,-271.567,-42.191
95.18,-273.041,-42.386
95.21,-274.129,-42.534
95.25,-275.006,-42.718
95.28,-275.919,-42.832
95.31,-276.656,-42.901
95.34,-277.498,-42.993
95.38,-278.621,-43.119
95.41,-279.674,-43.302
95.44,-280.516,-43.462
95.47,-281.113,-43.554
95.51,-281.569,-43.6
95.54,-281.815,-43.6
95.57,-281.99,-43.577
95.6,-282.446,-43.588
95.64,-283.183,-43.623
95.67,-283.675,-43.749
95.7,-284.131,-43.852
95.73,-284.587,-43.943
95.77,-284.973,-43.932
95.8,-284.973,-43.932
95.83,-284.622,-43.829
95.86,-284.201,-43.749
95.9,-284.763,-43.657
95.93,-284.587,-43.588
95.96,-284.587,-43.646
95.99,-284.412,-43.623
96.03,-284.833,-43.691
96.06,-284.306,-43.474
96.09,-283.148,-43.439
96.12,-283.464,-43.336
96.16,-283.64,-43.279
96.19,-283.815,-43.325
96.22,-283.359,-43.279
96.25,-282.13,-43.084
96.29,-281.007,-42.821
96.32,-280.165,-42.489
96.35,-279.147,-42.26
96.39,-278.761,-42.191
96.42,-278.445,-42.122
96.45,-277.954,-42.065
96.48,-277.147,-42.007
96.52,-276.059,-41.847
96.55,-274.62,-41.584
96.58,-273.462,-41.229
96.61,-272.198,-40.896
96.65,-271.146,-40.782
96.68,-270.444,-40.633
96.71,-269.25,-40.415
96.74,-267.917,-40.198
96.78,-266.057,-39.877
96.81,-263.986,-39.533
96.84,-262.231,-39.121
96.87,-260.687,-38.72
96.91,-259.354,-38.502
96.94,-258.055,-38.307
96.97,-256.581,-38.147
97.0,-255.388,-37.929
97.04,-253.879,-37.677
97.07,-251.913,-37.505
97.1,-250.685,-37.265
97.13,-249.492,-36.921
97.17,-248.264,-36.715
97.2,-246.825,-36.509
97.23,-245.175,-36.326
97.26,-244.122,-36.028
97.3,-241.982,-35.604
97.33,-239.665,-35.283
97.36,-237.595,-34.859
97.39,-235.98,-34.516
97.43,-234.682,-34.172
97.46,-232.471,-33.92
97.49,-230.365,-33.748
97.52,-228.61,-33.347
97.56,-226.189,-32.912
97.59,-224.329,-32.614
97.62,-221.767,-32.144
97.66,-219.591,-31.95
97.69,-218.819,-31.56
97.72,-216.748,-31.285
97.75,-214.923,-31.193
97.79,-213.028,-30.861
97.82,-210.641,-30.449
97.85,-208.29,-30.014
97.88,-205.974,-29.658
97.92,-203.763,-29.303
97.95,-201.657,-28.879
97.98,-199.692,-28.524
98.01,-197.446,-28.238
98.05,-195.024,-27.917
98.08,-192.392,-27.47
98.11,-189.655,-26.943
98.14,-186.707,-26.474
98.18,-183.794,-26.061
98.21,-181.442,-25.615
98.24,-179.231,-25.122
98.27,-176.529,-24.767
98.31,-173.721,-24.503
98.34,-170.879,-24.068
98.37,-167.65,-23.518
98.4,-164.597,-23.003
98.44,-161.684,-22.533
98.47,-158.841,-22.155
98.5,-156.349,-21.708
98.53,-153.506,-21.239
98.57,-150.032,-20.815
98.6,-146.487,-20.357
98.63,-143.188,-19.749
98.66,-139.995,-19.154
98.7,-136.977,-18.673
98.73,-133.713,-18.283
98.76,-131.01,-17.916
98.79,-127.641,-17.298
98.83,-123.851,-16.908
98.86,-121.149,-16.485
98.89,-117.709,-15.935
98.93,-114.726,-15.488
98.96,-111.533,-14.904
98.99,-108.234,-14.629
99.02,-105.882,-14.251
99.06,-102.408,-13.678
99.09,-98.863,-13.243
99.12,-95.178,-12.624
99.15,-91.177,-12.109
99.19,-87.878,-11.49
99.22,-84.369,-10.837
99.25,-80.824,-10.413
99.28,-77.736,-10.001
99.32,-74.437,-9.554
99.35,-71.313,-9.13
99.38,-68.05,-8.649
99.41,-64.47,-8.271
99.45,-61.346,-7.801
99.48,-58.012,-7.24
99.51,-54.819,-6.77
99.54,-51.59,-6.346
99.58,-47.975,-5.865
99.61,-44.746,-5.373
99.64,-41.412,-4.788
99.67,-37.482,-4.307
99.71,-34.569,-4.032
99.74,-33.446,-3.757
99.77,-29.34,-2.967
99.8,-23.338,-2.635
99.84,-19.794,-2.016
99.87,-16.144,-1.272
99.9,-14.6,-0.653
99.93,-11.09,-0.183
99.97,-5.966,-0.103
100.0,-0.667,-0.08
100.03,0.948,0.928
100.06,5.299,1.592
100.1,7.861,1.123
100.13,10.248,1.867
100.16,17.021,1.89
100.2,20.776,1.661
100.23,23.444,2.039
100.26,26.357,2.509
100.29,29.726,2.852
100.33,32.744,3.265
100.36,35.095,4.021
100.39,36.85,5.052
100.42,38.78,6.094
100.46,40.675,7.057
100.49,42.36,8.294
100.52,43.729,9.898
100.55,46.255,11.559
100.59,53.029,12.051
100.62,60.364,11.971
100.65,66.576,12.212
100.68,71.384,12.395
100.72,74.191,12.509
100.75,75.806,12.521
100.78,78.297,12.796
100.81,82.263,13.059
100.85,85.878,13.46
100.88,89.142,14.056
100.91,92.16,14.652
100.94,94.792,15.179
100.98,97.845,15.625
101.01,101.004,15.923
101.04,103.882,16.404
101.07,107.216,16.943
101.11,110.831,17.412
101.14,114.095,17.894
101.17,117.288,18.421
101.2,120.236,18.982
101.24,123.465,19.463
101.27,126.869,19.852
101.3,130.063,20.322
101.33,133.292,20.895
101.37,137.187,21.502
101.4,141.013,22.018
101.43,143.89,22.476
101.46,145.996,22.968
101.5,149.33,23.461
101.53,152.559,23.656
101.56,155.402,24.125
101.6,158.56,24.584
101.63,161.157,25.122
101.66,164.491,25.603
101.69,167.685,25.993
101.73,170.247,26.439
101.76,172.774,26.898
101.79,175.476,27.253
101.82,178.284,27.608
101.86,181.302,28.078
101.89,184.18,28.627
101.92,187.198,29.109
101.95,190.005,29.441
101.99,192.252,29.784
102.02,194.392,30.197
102.05,196.674,30.472
102.08,198.744,30.724
102.12,201.096,30.987
102.15,203.096,31.319
102.18,205.132,31.72
102.21,207.413,32.007
102.25,209.238,32.224
102.28,210.571,32.545
102.31,212.431,32.843
102.34,214.432,33.107
102.38,216.853,33.439
102.41,219.029,33.817
102.44,220.889,34.264
102.47,223.135,34.653
102.51,225.171,34.836
102.54,226.294,35.031
102.57,228.049,35.386
102.6,229.944,35.547
102.64,231.593,35.821
102.67,233.98,36.165
102.7,235.349,36.452
102.73,237.138,36.91
102.77,239.314,37.105
102.8,240.929,37.368
102.83,242.227,37.597
102.87,243.526,37.883
102.9,245.772,38.101
102.93,247.667,38.319
102.96,249.387,38.697
103.0,251.001,39.041
103.03,252.299,39.235
103.06,253.458,39.384
103.09,255.107,39.602
103.13,256.897,39.877
103.16,258.687,40.186
103.19,260.477,40.495
103.22,262.056,40.736
103.26,263.004,40.999
103.29,264.127,41.16
103.32,265.144,41.194
103.35,266.267,41.274
103.39,267.461,41.469
103.42,268.724,41.71
103.45,270.093,41.916
103.48,271.567,42.122
103.52,272.935,42.408
103.55,274.023,42.649
103.58,274.971,42.786
103.61,275.919,42.844
103.65,276.691,42.935
103.68,277.638,43.05
103.71,278.726,43.21
103.74,279.849,43.348
103.78,280.692,43.52
103.81,281.323,43.634
103.84,281.639,43.703
103.87,281.99,43.634
103.91,281.885,43.554
103.94,282.306,43.577
103.97,282.938,43.611
104.0,283.569,43.737
104.04,283.99,43.817
104.07,284.271,43.909
104.1,284.482,43.943
104.14,284.552,43.909
104.17,284.131,43.76
104.2,283.99,43.691
104.23,284.412,43.68
104.27,284.727,43.703
104.3,284.727,43.76
104.33,284.727,43.737
104.36,283.955,43.623
104.4,284.201,43.669
104.43,284.447,43.474
104.46,284.096,43.565
104.49,284.622,43.565
104.53,284.517,43.611
104.56,284.657,43.6
104.59,283.815,43.382
104.62,282.692,43.187
104.66,281.534,42.844
104.69,280.376,42.557
104.72,280.2,42.408
104.75,280.165,42.363
104.79,279.639,42.42
104.82,278.867,42.351
104.85,277.428,42.065
104.88,275.883,41.755
104.92,274.339,41.4
104.95,272.795,41.034
104.98,271.497,40.69
105.01,270.128,40.392
105.05,268.268,40.209
105.08,266.794,39.968
105.11,265.179,39.648
105.14,263.46,39.35
105.18,261.986,39.075
105.21,260.442,38.834
105.24,259.108,38.617
105.27,257.845,38.353
105.31,256.335,38.181
105.34,255.353,38.09
105.37,254.265,37.872
105.41,252.791,37.597
105.44,251.422,37.368
105.47,250.159,37.219
105.5,249.141,36.99
105.54,247.772,36.715
105.57,246.614,36.486
105.6,244.719,36.188
105.63,242.578,35.856
105.67,240.016,35.26
105.7,237.946,34.894
105.73,236.787,34.538
105.76,234.717,34.298
105.8,232.927,34.057
105.83,230.997,33.679
105.86,228.891,33.427
105.89,227.136,33.21
105.93,225.241,32.832
105.96,223.17,32.454
105.99,221.205,32.121
106.02,219.205,31.824
106.06,217.204,31.503
106.09,215.379,31.136
106.12,213.449,30.781
106.15,210.887,30.449
106.19,208.325,30.105
106.22,206.219,29.647
106.25,203.798,29.166
106.28,201.271,28.857
106.32,199.236,28.57
106.35,197.2,28.169
106.38,194.778,27.791
106.41,192.216,27.413
106.45,189.304,27.001
106.48,186.671,26.565
106.51,184.32,26.05
106.54,181.618,25.603
106.58,178.915,25.259
106.61,176.459,24.893
106.64,173.967,24.481
106.67,171.124,24.057
106.71,168.036,23.667
106.74,165.193,23.22
106.77,162.28,22.648
106.81,159.297,22.144
106.84,156.419,21.766
106.87,153.506,21.365
106.9,150.278,20.826
106.94,146.803,20.276
106.97,143.575,19.795
107.0,140.205,19.303
107.03,137.012,18.764
107.07,133.362,18.111
107.1,129.501,17.596
107.13,126.483,17.241
107.16,124.132,16.794
107.2,121.219,16.404
107.23,118.587,16.118
107.26,114.972,15.637
107.29,111.182,15.236
107.33,108.83,14.675
107.36,106.303,14.182
107.39,102.899,13.792
107.42,99.004,13.311
107.46,95.073,12.67
107.49,91.388,11.983
107.52,88.019,11.467
107.55,84.86,11.02
107.59,81.772,10.585
107.62,78.719,10.15
107.65,75.7,9.794
107.68,72.647,9.462
107.72,69.559,9.027
107.75,66.225,8.489
107.78,62.82,7.973
107.81,59.346,7.492
107.85,55.942,6.999
107.88,52.748,6.438
107.91,49.309,5.911
107.94,45.694,5.464
107.98,42.079,4.983
108.01,38.675,4.433
108.04,36.359,4.193
108.08,34.92,3.861
108.11,29.234,3.139
108.14,24.005,2.795
108.17,20.811,1.89
108.21,17.372,1.272
108.24,15.266,0.894
108.27,11.827,0.275
108.3,6.598,-0.137
108.34,0.948,0.046
108.37,-0.562,-0.745
108.4,-4.808,-1.627
108.43,-8.704,-1.168
108.47,-11.301,-1.627
108.5,-16.565,-1.97
108.53,-20.496,-1.97
108.56,-24.426,-2.154
108.6,-27.831,-2.257
108.63,-29.831,-2.772
108.66,-32.042,-3.586
108.69,-34.534,-4.216
108.73,-36.815,-4.903
108.76,-38.921,-5.934
108.79,-41.026,-7.309
108.82,-43.448,-8.775
108.86,-45.624,-10.161
108.89,-47.519,-11.799
108.92,-54.047,-12.601
108.95,-61.171,-12.177
108.99,-66.154,-12.235
109.02,-71.454,-12.292
109.05,-74.437,-12.441
109.08,-76.683,-12.681
109.12,-79.561,-12.842
109.15,-82.474,-13.059
109.18,-85.316,-13.54
109.21,-88.791,-14.079
109.25,-92.09,-14.571
109.28,-95.213,-15.064
109.31,-98.056,-15.625
109.35,-101.215,-16.152
109.38,-104.549,-16.565
109.41,-107.848,-17.0
109.44,-111.076,-17.504
109.48,-114.375,-18.088
109.51,-117.92,-18.569
109.54,-121.008,-18.993
109.57,-123.816,-19.452
109.61,-126.799,-19.956
109.64,-130.168,-20.414
109.67,-133.713,-20.872
109.7,-137.187,-21.399
109.74,-140.662,-22.075
109.77,-143.925,-22.579
109.8,-146.277,-22.888
109.83,-148.874,-23.266
109.87,-151.717,-23.576
109.9,-154.7,-24.057
109.93,-157.964,-24.458
109.96,-161.192,-24.939
110.0,-163.895,-25.466
110.03,-166.597,-26.05
110.06,-169.65,-26.416
110.09,-172.247,-26.737
110.13,-175.195,-27.207
110.16,-178.108,-27.642
110.19,-181.021,-28.192
110.22,-184.531,-28.673
110.26,-187.479,-29.109
110.29,-190.005,-29.613
110.32,-192.462,-29.956
110.35,-194.638,-30.197
110.39,-196.849,-30.46
110.42,-198.955,-30.747
110.45,-200.955,-31.113
110.48,-203.377,-31.377
110.52,-205.447,-31.64
110.55,-207.307,-32.007
110.58,-209.132,-32.35
110.62,-210.852,-32.58
110.65,-212.607,-32.809
110.68,-214.502,-33.107
110.71,-216.432,-33.496
110.75,-218.748,-33.863
110.78,-220.995,-34.16
110.81,-222.82,-34.538
110.84,-224.785,-34.928
110.88,-226.855,-35.226
110.91,-228.575,-35.409
110.94,-230.505,-35.73
110.97,-232.365,-36.005
111.01,-233.91,-36.326
111.04,-236.121,-36.6
111.07,-237.665,-36.807
111.1,-239.244,-37.196
111.14,-240.543,-37.334
111.17,-242.122,-37.631
111.2,-244.333,-37.78
111.23,-245.526,-38.09
111.27,-247.351,-38.456
111.3,-249.281,-38.708
111.33,-251.141,-38.995
111.36,-252.756,-39.293
111.4,-254.089,-39.567
111.43,-255.388,-39.774
111.46,-257.178,-39.968
111.49,-258.862,-40.198
111.53,-260.442,-40.53
111.56,-261.986,-40.793
111.59,-263.039,-40.931
111.62,-264.127,-41.068
111.66,-265.144,-41.217
111.69,-266.408,-41.423
111.72,-267.776,-41.538
111.75,-269.005,-41.721
111.79,-270.233,-41.985
111.82,-271.602,-42.271
111.85,-273.041,-42.466
111.89,-274.164,-42.615
111.92,-275.041,-42.798
111.95,-275.954,-42.912
111.98,-276.656,-42.958
112.02,-277.568,-43.038
112.05,-278.586,-43.153
112.08,-279.639,-43.359
112.11,-280.481,-43.508
112.15,-281.183,-43.611
112.18,-281.744,-43.669
112.21,-282.13,-43.703
112.24,-282.271,-43.68
112.28,-282.622,-43.703
112.31,-283.394,-43.714
112.34,-283.885,-43.829
112.37,-284.236,-43.909
112.41,-284.482,-43.955
112.44,-284.833,-43.943
112.47,-284.938,-43.943
112.5,-284.833,-43.898
112.54,-284.517,-43.84
112.57,-284.798,-43.737
112.6,-284.692,-43.68
112.63,-284.447,-43.669
112.67,-283.885,-43.6
112.7,-284.482,-43.646
112.73,-283.92,-43.382
112.76,-282.622,-43.382
112.8,-282.832,-43.245
112.83,-282.832,-43.187
112.86,-283.113,-43.256
112.89,-282.692,-43.176
112.93,-281.358,-43.061
112.96,-280.481,-42.798
112.99,-279.639,-42.489
113.02,-278.726,-42.282
113.06,-278.235,-42.168
113.09,-277.989,-42.122
113.12,-277.708,-42.076
113.15,-276.761,-42.007
113.19,-275.568,-41.859
113.22,-274.409,-41.584
113.25,-273.357,-41.251
113.29,-272.093,-40.954
113.32,-271.005,-40.839
113.35,-270.303,-40.69
113.38,-269.145,-40.461
113.42,-267.847,-40.243
113.45,-266.232,-39.957
113.48,-264.302,-39.625
113.51,-262.758,-39.247
113.55,-261.214,-38.869
113.58,-259.599,-38.64
113.61,-258.336,-38.445
113.64,-257.108,-38.262
113.68,-255.984,-38.078
113.71,-254.616,-37.872
113.74,-252.826,-37.7
113.77,-251.668,-37.471
113.81,-250.58,-37.116
113.84,-249.141,-36.933
113.87,-247.597,-36.704
113.9,-245.807,-36.463
113.94,-244.754,-36.131
113.97,-242.543,-35.65
114.0,-240.086,-35.375
114.03,-238.226,-34.928
114.07,-236.331,-34.561
114.1,-234.576,-34.195
114.13,-232.085,-33.863
114.16,-229.839,-33.645
114.2,-228.084,-33.244
114.23,-225.943,-32.843
114.26,-223.907,-32.568
114.29,-221.872,-32.259
114.33,-219.801,-31.972
114.36,-218.187,-31.583
114.39,-215.8,-31.205
114.42,-213.94,-31.045
114.46,-212.572,-30.724
114.49,-210.396,-30.369
114.52,-208.044,-30.025
114.56,-205.658,-29.693
114.59,-203.552,-29.361
114.62,-201.868,-29.005
114.65,-200.078,-28.65
114.69,-197.797,-28.387
114.72,-195.375,-28.078
114.75,-192.778,-27.574
114.78,-189.935,-27.012
114.82,-186.952,-26.52
114.85,-184.109,-26.119
114.88,-181.618,-25.638
114.91,-179.266,-25.133
114.95,-176.494,-24.755
114.98,-173.651,-24.503
115.01,-170.949,-24.08
115.04,-167.755,-23.553
115.08,-164.702,-23.049
115.11,-161.684,-22.59
115.14,-158.876,-22.178
115.17,-156.279,-21.708
115.21,-153.506,-21.25
115.24,-150.137,-20.849
115.27,-146.452,-20.368
115.3,-143.048,-19.749
115.34,-139.784,-19.142
115.37,-136.871,-18.684
115.4,-133.853,-18.306
115.43,-131.221,-17.985
115.47,-128.027,-17.378
115.5,-123.921,-16.966
115.53,-121.078,-16.542
115.56,-117.885,-15.98
115.6,-114.796,-15.488
115.63,-111.603,-14.938
115.66,-108.269,-14.64
115.69,-105.672,-14.205
115.73,-102.127,-13.644
115.76,-98.582,-13.162
115.79,-94.897,-12.555
115.83,-90.826,-12.051
115.86,-87.598,-11.444
115.89,-83.983,-10.791
115.92,-80.508,-10.39
115.96,-77.42,-9.978
115.99,-74.261,-9.565
116.02,-71.349,-9.153
116.05,-68.19,-8.718
116.09,-64.54,-8.34
116.12,-61.487,-7.87
116.15,-58.293,-7.274
116.18,-54.854,-6.793
116.22,-51.59,-6.358
116.25,-48.151,-5.865
116.28,-44.817,-5.35
116.31,-41.342,-4.8
116.35,-37.376,-4.284
116.38,-34.85,-4.113
116.41,-33.867,-3.735
116.44,-28.813,-2.944
116.48,-23.268,-2.704
116.51,-19.864,-1.925
116.54,-16.249,-1.294
116.57,-15.161,-0.676
116.61,-11.336,-0.126
116.64,-5.791,-0.08
116.67,-0.526,-0.046
