Trigger_Date,2023/07/06
Trigger_Time,T 08:54:54.072 PDT
Samples_Per_Cycle,512
Microseconds_Per_Sample,32.539
Time (ms),Voltage (V),Current (A)
-16.66,5.019,1.707
-16.63,9.651,1.237
-16.59,13.055,1.741
-16.56,17.723,1.684
-16.53,18.53,1.546
-16.5,22.987,2.268
-16.46,28.673,2.257
-16.43,30.568,2.406
-16.4,31.445,3.208
-16.37,33.867,3.941
-16.33,35.622,4.445
-16.3,37.727,5.235
-16.27,40.43,6.312
-16.24,42.851,7.698
-16.2,44.992,9.256
-16.17,47.414,10.791
-16.14,48.782,12.475
-16.11,53.731,13.896
-16.07,61.908,13.678
-16.04,67.032,13.346
-16.01,71.875,13.266
-15.98,75.42,13.059
-15.94,77.245,13.094
-15.91,79.596,13.243
-15.88,83.0,13.46
-15.85,86.755,13.896
-15.81,90.125,14.514
-15.78,92.862,15.167
-15.75,95.67,15.694
-15.72,98.547,16.084
-15.68,101.706,16.519
-15.65,105.321,17.092
-15.62,108.865,17.642
-15.59,112.059,18.157
-15.55,115.077,18.592
-15.52,117.674,19.005
-15.49,120.377,19.509
-15.46,123.921,19.956
-15.42,127.396,20.357
-15.39,130.273,20.838
-15.36,133.502,21.422
-15.33,136.661,21.937
-15.29,139.363,22.43
-15.26,142.557,22.831
-15.23,145.75,23.266
-15.2,148.488,23.724
-15.16,151.12,24.217
-15.13,153.998,24.561
-15.1,156.349,24.847
-15.07,159.473,25.374
-15.03,162.14,25.706
-15.0,163.754,26.164
-14.97,166.632,26.508
-14.94,169.054,26.691
-14.9,171.194,27.15
-14.87,174.283,27.631
-14.84,177.266,28.135
-14.81,180.074,28.639
-14.77,182.671,29.063
-14.74,184.917,29.544
-14.71,187.584,29.933
-14.67,189.935,30.22
-14.64,192.392,30.552
-14.61,194.849,30.884
-14.58,196.849,31.262
-14.54,198.955,31.663
-14.51,201.236,31.904
-14.48,202.815,32.064
-14.45,204.149,32.328
-14.41,206.114,32.614
-14.38,208.15,32.923
-14.35,210.326,33.244
-14.32,212.291,33.565
-14.28,213.87,33.943
-14.25,215.836,34.344
-14.22,217.696,34.573
-14.19,219.24,34.813
-14.15,221.416,35.111
-14.12,223.276,35.432
-14.09,225.031,35.776
-14.06,226.855,36.062
-14.02,228.645,36.28
-13.99,230.365,36.589
-13.96,231.909,36.83
-13.93,233.032,37.127
-13.89,235.699,37.483
-13.86,237.454,37.609
-13.83,238.542,38.044
-13.8,240.297,38.273
-13.76,241.771,38.559
-13.73,244.052,38.811
-13.7,245.491,38.972
-13.67,246.579,39.327
-13.63,248.264,39.567
-13.6,249.843,39.774
-13.57,251.633,40.014
-13.54,253.282,40.289
-13.5,254.756,40.633
-13.47,256.335,40.908
-13.44,257.388,41.011
-13.41,258.266,41.16
-13.37,259.424,41.251
-13.34,260.336,41.412
-13.31,261.775,41.618
-13.28,263.39,41.824
-13.24,264.899,42.076
-13.21,266.022,42.374
-13.18,266.899,42.58
-13.15,267.776,42.683
-13.11,268.794,42.718
-13.08,269.812,42.832
-13.05,270.9,43.038
-13.02,272.163,43.279
-12.98,273.392,43.439
-12.95,274.269,43.588
-12.92,275.041,43.714
-12.89,275.497,43.795
-12.85,275.989,43.806
-12.82,276.375,43.76
-12.79,276.901,43.806
-12.76,277.744,43.886
-12.72,278.27,44.024
-12.69,278.796,44.138
-12.66,279.323,44.207
-12.63,279.99,44.264
-12.59,280.13,44.287
-12.56,280.06,44.287
-12.53,280.376,44.264
-12.49,280.937,44.241
-12.46,281.113,44.253
-12.43,281.042,44.287
-12.4,281.042,44.264
-12.36,281.183,44.218
-12.33,280.937,44.104
-12.3,280.411,44.001
-12.27,280.621,44.047
-12.23,281.253,44.024
-12.2,280.2,43.875
-12.17,279.533,43.84
-12.14,279.393,43.611
-12.1,278.27,43.405
-12.07,276.901,43.119
-12.04,275.568,42.786
-12.01,274.866,42.569
-11.97,274.269,42.408
-11.94,272.795,42.271
-11.91,271.637,42.088
-11.88,270.479,41.744
-11.84,268.584,41.458
-11.81,266.864,41.171
-11.78,265.495,40.873
-11.75,264.653,40.633
-11.71,263.741,40.45
-11.68,262.477,40.346
-11.65,261.249,40.198
-11.62,259.599,39.888
-11.58,257.95,39.59
-11.55,256.757,39.258
-11.52,255.388,39.018
-11.49,253.949,38.823
-11.45,252.44,38.536
-11.42,251.001,38.227
-11.39,249.352,37.918
-11.36,247.316,37.643
-11.32,245.21,37.299
-11.29,243.701,36.944
-11.26,242.543,36.635
-11.23,240.858,36.348
-11.19,238.858,36.188
-11.16,237.77,35.959
-11.13,235.805,35.535
-11.1,233.629,35.26
-11.06,231.944,34.905
-11.03,230.119,34.653
-11.0,228.68,34.332
-10.97,226.82,34.023
-10.93,225.136,33.748
-10.9,223.065,33.473
-10.87,221.696,33.301
-10.84,220.258,32.866
-10.8,217.696,32.511
-10.77,216.011,32.236
-10.74,214.256,31.869
-10.71,212.326,31.629
-10.67,210.852,31.308
-10.64,209.062,30.976
-10.61,206.781,30.701
-10.58,204.395,30.38
-10.54,202.324,29.968
-10.51,200.288,29.498
-10.48,198.112,29.109
-10.44,196.077,28.868
-10.41,194.392,28.616
-10.38,192.532,28.295
-10.35,190.181,27.883
-10.31,187.584,27.551
-10.28,185.303,27.184
-10.25,182.951,26.714
-10.22,180.495,26.233
-10.18,178.424,25.786
-10.15,175.862,25.431
-10.12,173.335,25.156
-10.09,170.668,24.733
-10.05,167.825,24.217
-10.02,165.123,23.759
-9.99,162.21,23.278
-9.96,159.262,22.9
-9.92,156.981,22.499
-9.89,154.594,22.006
-9.86,151.787,21.651
-9.83,149.084,21.319
-9.79,146.207,20.906
-9.76,143.294,20.414
-9.73,140.521,19.887
-9.7,137.784,19.452
-9.66,134.625,19.039
-9.63,131.747,18.627
-9.6,128.905,18.088
-9.57,125.746,17.584
-9.53,123.114,17.275
-9.5,120.552,16.84
-9.47,116.867,16.359
-9.44,114.13,15.969
-9.4,111.919,15.431
-9.37,108.655,15.075
-9.34,105.742,14.743
-9.31,102.759,14.182
-9.27,98.758,13.529
-9.24,94.547,12.887
-9.21,90.721,12.235
-9.18,86.72,11.57
-9.14,83.141,10.94
-9.11,79.631,10.333
-9.08,75.911,9.863
-9.05,72.366,9.451
-9.01,68.787,8.97
-8.98,65.277,8.408
-8.95,61.978,7.95
-8.92,58.714,7.503
-8.88,55.521,7.102
-8.85,52.187,6.644
-8.82,49.063,6.14
-8.79,45.483,5.613
-8.75,41.833,5.155
-8.72,38.359,4.639
-8.69,35.271,4.17
-8.66,34.779,4.307
-8.62,37.341,4.536
-8.59,31.375,3.54
-8.56,20.566,2.944
-8.53,16.074,1.81
-8.49,11.617,0.195
-8.46,7.581,0.412
-8.43,4.984,0.389
-8.39,0.597,-0.149
-8.36,-1.193,-1.203
-8.33,-6.071,-1.512
-8.3,-8.493,-1.306
-8.26,-12.74,-2.051
-8.23,-16.811,-1.363
-8.2,-17.548,-1.386
-8.17,-22.882,-2.28
-8.13,-28.673,-2.589
-8.1,-31.024,-2.956
-8.07,-32.954,-3.563
-8.04,-34.955,-3.929
-8.0,-35.973,-4.697
-7.97,-37.657,-5.774
-7.94,-40.044,-6.931
-7.91,-42.992,-8.076
-7.87,-45.624,-9.348
-7.84,-46.677,-11.043
-7.81,-49.484,-12.968
-7.78,-56.714,-13.3
-7.74,-62.399,-12.899
-7.71,-67.102,-12.887
-7.68,-71.875,-12.853
-7.65,-74.577,-12.853
-7.61,-76.683,-12.968
-7.58,-79.456,-13.094
-7.55,-82.544,-13.46
-7.52,-86.053,-14.022
-7.48,-89.598,-14.606
-7.45,-92.686,-15.133
-7.42,-95.389,-15.648
-7.39,-98.196,-16.164
-7.35,-101.425,-16.668
-7.32,-105.11,-17.115
-7.29,-108.549,-17.584
-7.26,-111.919,-18.146
-7.22,-114.867,-18.673
-7.19,-117.569,-19.165
-7.16,-120.728,-19.555
-7.13,-123.816,-19.898
-7.09,-126.729,-20.391
-7.06,-129.922,-20.929
-7.03,-133.292,-21.445
-7.0,-136.942,-21.983
-6.96,-139.714,-22.338
-6.93,-141.855,-22.9
-6.9,-145.364,-23.415
-6.87,-148.383,-23.736
-6.83,-151.015,-24.148
-6.8,-154.208,-24.629
-6.77,-157.472,-25.145
-6.74,-159.648,-25.557
-6.7,-162.035,-26.004
-6.67,-164.877,-26.21
-6.64,-166.808,-26.554
-6.61,-169.37,-27.001
-6.57,-172.282,-27.379
-6.54,-175.336,-27.826
-6.51,-178.143,-28.284
-6.48,-180.46,-28.822
-6.44,-182.951,-29.361
-6.41,-185.759,-29.67
-6.38,-188.145,-29.933
-6.35,-190.392,-30.254
-6.31,-192.497,-30.644
-6.28,-194.919,-31.067
-6.25,-197.446,-31.377
-6.21,-199.446,-31.64
-6.18,-201.131,-31.95
-6.15,-202.815,-32.247
-6.12,-204.535,-32.488
-6.08,-206.43,-32.694
-6.05,-208.395,-32.958
-6.02,-210.185,-33.301
-5.99,-211.94,-33.691
-5.95,-214.151,-34.069
-5.92,-216.292,-34.355
-5.89,-218.011,-34.664
-5.86,-219.626,-34.974
-5.82,-221.416,-35.306
-5.79,-223.732,-35.592
-5.76,-225.627,-35.787
-5.73,-226.961,-36.096
-5.69,-228.716,-36.452
-5.66,-230.435,-36.681
-5.63,-231.734,-36.887
-5.6,-233.383,-37.105
-5.56,-235.103,-37.379
-5.53,-236.893,-37.735
-5.5,-238.647,-38.044
-5.47,-240.297,-38.296
-5.43,-242.052,-38.594
-5.4,-243.806,-38.892
-5.37,-245.386,-39.201
-5.34,-246.86,-39.419
-5.3,-248.369,-39.567
-5.27,-249.702,-39.762
-5.24,-251.176,-40.049
-5.21,-252.931,-40.324
-5.17,-254.546,-40.576
-5.14,-255.984,-40.793
-5.11,-257.037,-41.022
-5.08,-258.125,-41.217
-5.04,-259.073,-41.309
-5.01,-260.091,-41.423
-4.98,-261.424,-41.549
-4.95,-262.828,-41.813
-4.91,-264.302,-42.111
-4.88,-265.495,-42.351
-4.85,-266.618,-42.5
-4.82,-267.496,-42.638
-4.78,-268.408,-42.798
-4.75,-269.356,-42.924
-4.72,-270.654,-43.096
-4.69,-271.988,-43.21
-4.65,-273.041,-43.451
-4.62,-274.023,-43.646
-4.59,-274.69,-43.795
-4.56,-275.497,-43.829
-4.52,-275.989,-43.829
-4.49,-276.164,-43.84
-4.46,-276.691,-43.898
-4.43,-277.498,-43.943
-4.39,-278.165,-44.012
-4.36,-278.691,-44.127
-4.33,-279.147,-44.253
-4.3,-279.744,-44.344
-4.26,-279.919,-44.344
-4.23,-280.06,-44.31
-4.2,-280.411,-44.322
-4.16,-280.832,-44.333
-4.13,-280.902,-44.379
-4.1,-280.867,-44.276
-4.07,-280.692,-44.241
-4.03,-280.411,-44.058
-4.0,-279.358,-43.955
-3.97,-279.779,-43.921
-3.94,-279.709,-43.749
-3.9,-279.674,-43.886
-3.87,-279.884,-43.852
-3.84,-279.112,-43.817
-3.81,-278.445,-43.669
-3.77,-277.463,-43.348
-3.74,-276.48,-43.107
-3.71,-275.778,-42.89
-3.68,-274.971,-42.764
-3.64,-274.304,-42.58
-3.61,-273.953,-42.58
-3.58,-275.322,-42.832
-3.55,-275.568,-42.924
-3.51,-274.796,-43.096
-3.48,-274.585,-42.89
-3.45,-273.602,-42.615
-3.42,-272.971,-42.386
-3.38,-271.848,-42.088
-3.35,-270.268,-41.778
-3.32,-268.619,-41.297
-3.29,-266.267,-40.782
-3.25,-264.021,-40.381
-3.22,-262.091,-39.945
-3.19,-259.88,-39.522
-3.16,-257.95,-39.167
-3.12,-256.16,-38.846
-3.09,-254.054,-38.594
-3.06,-251.703,-38.25
-3.03,-248.93,-37.746
-2.99,-246.474,-37.276
-2.96,-244.403,-36.841
-2.93,-242.262,-36.543
-2.9,-240.788,-36.348
-2.86,-239.314,-36.016
-2.83,-237.033,-35.753
-2.8,-235.524,-35.604
-2.77,-234.19,-35.363
-2.73,-232.576,-35.123
-2.7,-230.751,-34.768
-2.67,-228.961,-34.481
-2.64,-227.277,-34.206
-2.6,-225.031,-33.874
-2.57,-223.521,-33.599
-2.54,-221.907,-33.107
-2.51,-219.556,-32.809
-2.47,-217.52,-32.511
-2.44,-215.59,-32.179
-2.41,-214.081,-31.835
-2.38,-212.045,-31.423
-2.34,-209.834,-31.228
-2.31,-208.43,-30.999
-2.28,-206.184,-30.621
-2.25,-203.903,-30.266
-2.21,-202.148,-29.865
-2.18,-199.902,-29.544
-2.15,-198.148,-29.338
-2.12,-196.603,-29.017
-2.08,-194.778,-28.673
-2.05,-192.603,-28.341
-2.02,-189.9,-27.963
-1.98,-186.952,-27.528
-1.95,-184.776,-27.047
-1.92,-182.6,-26.462
-1.89,-179.793,-26.038
-1.85,-177.477,-25.809
-1.82,-175.722,-25.5
-1.79,-172.949,-25.053
-1.76,-169.615,-24.607
-1.72,-166.597,-24.125
-1.69,-164.0,-23.679
-1.66,-161.473,-23.163
-1.63,-158.736,-22.693
-1.59,-156.279,-22.35
-1.56,-153.963,-22.052
-1.53,-150.945,-21.662
-1.5,-147.891,-21.216
-1.46,-145.294,-20.712
-1.43,-142.592,-20.242
-1.4,-139.784,-19.898
-1.37,-137.292,-19.532
-1.33,-134.766,-19.085
-1.3,-131.993,-18.604
-1.27,-128.273,-18.088
-1.24,-124.342,-17.55
-1.2,-120.938,-16.954
-1.17,-118.446,-16.37
-1.14,-113.042,-15.259
-1.11,-104.584,-14.297
-1.07,-98.161,-13.162
-1.04,-94.547,-12.28
-1.01,-93.81,-11.834
-0.98,-91.142,-11.593
-0.94,-88.229,-11.96
-0.91,-85.387,-11.639
-0.88,-80.403,-11.146
-0.85,-77.42,-10.699
-0.81,-76.122,-10.207
-0.78,-73.805,-9.875
-0.75,-71.243,-9.714
-0.72,-68.997,-9.359
-0.68,-66.014,-8.89
-0.65,-62.785,-8.557
-0.62,-60.504,-8.191
-0.59,-58.398,-7.778
-0.55,-55.872,-7.343
-0.52,-52.573,-6.885
-0.49,-49.168,-6.484
-0.46,-46.115,-5.98
-0.42,-42.5,-5.327
-0.39,-38.745,-4.743
-0.36,-35.622,-4.204
-0.33,-33.34,-4.055
-0.29,-35.306,-4.548
-0.26,-35.446,-4.067
-0.23,-24.005,-2.807
-0.2,-14.88,-2.314
-0.16,-11.336,-0.699
-0.13,-6.422,-0.286
-0.1,-5.615,-0.642
-0.07,-2.422,-0.057
-0.03,0.351,0.447
0.0,2.211,1.329
0.03,6.563,1.214
0.07,8.739,1.375
0.1,13.757,1.81
0.13,17.477,1.65
0.16,19.969,1.833
0.2,24.146,2.142
0.23,28.708,2.268
0.26,31.621,2.726
0.29,34.183,3.608
0.33,36.71,4.513
0.36,39.236,5.384
0.39,41.342,6.346
0.42,42.781,7.652
0.46,44.29,9.313
0.49,46.606,10.997
0.52,49.519,12.59
0.55,56.152,13.288
0.59,62.364,12.945
0.62,66.576,12.922
0.65,71.489,12.796
0.68,74.086,12.555
0.72,75.841,12.75
0.75,78.999,13.025
0.78,82.439,13.334
0.81,85.843,13.85
0.85,89.247,14.434
0.88,92.16,15.041
0.91,94.827,15.614
0.94,97.845,16.026
0.98,101.039,16.393
1.01,104.514,16.908
1.04,108.199,17.481
1.07,111.147,18.02
1.11,114.2,18.512
1.14,117.078,18.844
1.17,119.745,19.28
1.2,122.693,19.738
1.24,125.816,20.185
1.27,129.045,20.609
1.3,132.204,21.055
1.33,135.117,21.617
1.37,137.994,22.144
1.4,140.872,22.59
1.43,144.241,23.026
1.46,147.295,23.472
1.5,150.278,24.045
1.53,153.331,24.526
1.56,155.998,24.916
1.59,158.771,25.259
1.63,161.333,25.66
1.66,163.86,26.119
1.69,166.632,26.543
1.72,169.615,26.909
1.76,172.318,27.287
1.79,175.23,27.803
1.82,178.178,28.364
1.85,180.986,28.845
1.89,183.513,29.235
1.92,185.864,29.544
1.95,188.145,29.91
1.98,190.602,30.254
2.02,192.989,30.598
2.05,195.305,30.861
2.08,197.06,31.159
2.12,198.709,31.514
2.15,200.85,31.812
2.18,202.85,31.995
2.21,204.465,32.247
2.25,206.255,32.545
2.28,208.009,32.889
2.31,210.045,33.233
2.34,211.94,33.496
2.38,213.765,33.828
2.41,216.011,34.275
2.44,217.871,34.55
2.47,219.31,34.882
2.51,221.732,35.146
2.54,223.557,35.375
2.57,225.311,35.81
2.6,227.242,36.085
2.64,228.961,36.348
2.67,231.032,36.658
2.7,232.365,36.841
2.73,233.348,37.127
2.77,235.138,37.357
2.8,237.033,37.551
2.83,238.963,37.883
2.86,240.999,38.284
2.9,242.789,38.674
2.93,244.438,38.96
2.96,245.877,39.132
2.99,247.281,39.304
3.03,248.404,39.487
3.06,250.053,39.774
3.09,252.019,39.98
3.12,253.387,40.198
3.16,254.475,40.461
3.19,255.634,40.679
3.22,256.406,40.77
3.25,257.494,40.931
3.29,259.038,41.022
3.32,259.845,41.217
3.35,261.073,41.503
3.38,262.617,41.733
3.42,264.232,41.962
3.45,265.601,42.202
3.48,266.478,42.443
3.51,267.355,42.615
3.55,268.478,42.683
3.58,269.742,42.809
3.61,270.935,42.97
3.64,272.093,43.245
3.68,273.216,43.428
3.71,274.164,43.543
3.74,274.866,43.6
3.77,275.462,43.703
3.81,276.024,43.726
3.84,276.55,43.806
3.87,277.322,43.84
3.9,278.305,43.989
3.94,278.867,44.069
3.97,279.218,44.241
4.0,279.709,44.195
4.03,279.568,44.173
4.07,279.99,44.115
4.1,279.779,44.058
4.13,280.06,44.092
4.16,280.692,44.15
4.2,281.078,44.138
4.23,280.551,44.184
4.26,281.007,44.207
4.3,280.692,44.104
4.33,280.937,44.115
4.36,280.411,43.875
4.39,279.955,43.921
4.43,280.376,43.806
4.46,279.709,43.714
4.49,279.147,43.623
4.52,278.516,43.417
4.56,277.603,43.245
4.59,276.62,43.004
4.62,275.357,42.729
4.65,274.831,42.557
4.69,274.059,42.34
4.72,272.585,42.26
4.75,271.497,42.03
4.78,270.058,41.71
4.82,268.619,41.4
4.85,267.355,41.125
4.88,265.987,40.942
4.91,265.004,40.747
4.95,264.056,40.518
4.98,262.758,40.335
5.01,261.565,40.152
5.04,260.056,39.911
5.08,258.406,39.602
5.11,257.037,39.281
5.14,255.774,39.018
5.17,254.3,38.777
5.21,252.58,38.559
5.24,251.282,38.296
5.27,249.913,37.964
5.3,248.053,37.689
5.34,246.158,37.437
5.37,244.614,37.139
5.4,243.21,36.784
5.43,241.455,36.44
5.47,239.455,36.177
5.5,238.226,36.005
5.53,236.823,35.673
5.56,234.857,35.386
5.6,232.822,34.974
5.63,230.295,34.63
5.66,228.996,34.424
5.69,227.522,34.023
5.73,225.311,33.702
5.76,223.135,33.359
5.79,221.275,33.107
5.82,219.626,32.763
5.86,217.661,32.431
5.89,216.011,32.11
5.92,214.256,31.812
5.95,212.186,31.583
5.99,210.396,31.285
6.02,208.781,30.964
6.05,206.921,30.621
6.08,204.465,30.311
6.12,202.148,29.968
6.15,200.113,29.555
6.18,198.358,29.131
6.21,196.463,28.822
6.25,194.357,28.582
6.28,192.567,28.341
6.31,190.707,27.974
6.35,188.005,27.539
6.38,185.373,27.161
6.41,182.986,26.714
6.44,180.46,26.233
6.48,178.389,25.809
6.51,176.424,25.42
6.54,173.581,25.099
6.57,170.563,24.744
6.61,167.79,24.286
6.64,165.123,23.724
6.67,162.175,23.209
6.7,159.543,22.865
6.74,157.332,22.556
6.77,154.98,22.121
6.8,152.032,21.72
6.83,149.225,21.284
6.87,146.136,20.895
6.9,143.645,20.494
6.93,140.627,19.864
6.96,137.608,19.474
7.0,134.941,18.925
7.03,131.151,18.501
7.06,129.045,18.226
7.09,126.624,17.584
7.13,123.219,17.298
7.16,121.114,16.966
7.19,117.288,16.37
7.22,113.849,16.026
7.26,111.954,15.442
7.29,108.83,14.938
7.32,105.637,14.64
7.35,102.654,14.193
7.39,99.214,13.609
7.42,95.284,12.945
7.45,91.107,12.292
7.48,87.071,11.685
7.52,83.527,11.089
7.55,80.157,10.447
7.58,76.472,9.921
7.61,72.787,9.462
7.65,69.102,9.016
7.68,65.523,8.5
7.71,62.294,7.985
7.74,59.135,7.492
7.78,55.836,7.102
7.81,52.467,6.701
7.84,49.274,6.209
7.87,45.729,5.636
7.91,42.29,5.178
7.94,39.096,4.72
7.97,36.429,4.41
8.0,36.499,4.605
8.04,38.745,4.777
8.07,32.428,3.769
8.1,21.338,3.082
8.13,16.109,1.821
8.17,11.16,0.309
8.2,7.475,0.218
8.23,3.159,0.195
8.26,-0.14,-0.321
8.3,-2.527,-1.558
8.33,-7.651,-1.352
8.36,-9.3,-1.306
8.39,-13.126,-1.833
8.43,-14.915,-1.26
8.46,-16.705,-1.684
8.49,-23.865,-2.36
8.53,-29.796,-2.394
8.56,-31.059,-2.887
8.59,-32.954,-3.757
8.62,-34.92,-4.158
8.66,-36.183,-4.777
8.69,-37.622,-5.682
8.72,-39.693,-6.908
8.75,-42.57,-8.225
8.79,-45.554,-9.52
8.82,-47.098,-11.009
8.85,-49.905,-12.796
8.88,-57.205,-13.162
8.92,-62.75,-12.784
8.95,-67.242,-12.796
8.98,-71.945,-12.761
9.01,-74.577,-12.796
9.05,-76.578,-12.991
9.08,-79.456,-13.128
9.11,-82.86,-13.437
9.14,-86.229,-14.01
9.18,-89.598,-14.64
9.21,-92.651,-15.202
9.24,-95.459,-15.648
9.27,-98.267,-16.106
9.31,-101.601,-16.622
9.34,-105.005,-17.126
9.37,-108.514,-17.642
9.4,-112.024,-18.111
9.44,-114.726,-18.581
9.47,-117.393,-19.119
9.5,-120.622,-19.566
9.53,-123.921,-19.944
9.57,-127.185,-20.391
9.6,-130.203,-20.918
9.63,-133.678,-21.536
9.66,-136.766,-21.972
9.7,-139.188,-22.35
9.73,-141.679,-22.728
9.76,-144.838,-23.243
9.79,-148.207,-23.667
9.83,-150.769,-24.091
9.86,-154.103,-24.629
9.89,-157.437,-25.03
9.92,-159.122,-25.477
9.96,-161.754,-26.016
9.99,-164.877,-26.245
10.02,-167.194,-26.554
10.05,-169.615,-26.966
10.09,-172.072,-27.367
10.12,-174.879,-27.837
10.15,-177.898,-28.249
10.18,-180.6,-28.719
10.22,-183.162,-29.28
10.25,-185.794,-29.739
10.28,-188.216,-30.014
10.31,-190.532,-30.288
10.35,-192.813,-30.632
10.38,-195.164,-31.056
10.41,-197.586,-31.411
10.44,-199.411,-31.675
10.48,-201.096,-31.869
10.51,-202.745,-32.121
10.54,-204.395,-32.385
10.58,-206.29,-32.671
10.61,-208.43,-32.935
10.64,-210.22,-33.233
10.67,-211.905,-33.611
10.71,-213.835,-34.012
10.74,-215.906,-34.332
10.77,-217.906,-34.607
10.8,-219.556,-34.859
10.84,-221.24,-35.249
10.87,-223.557,-35.592
10.9,-225.487,-35.833
10.93,-227.206,-36.119
10.97,-228.926,-36.417
11.0,-230.4,-36.692
11.03,-231.874,-36.956
11.06,-233.804,-37.196
11.1,-235.594,-37.414
11.13,-237.103,-37.735
11.16,-238.647,-38.078
11.19,-240.437,-38.33
11.23,-242.403,-38.605
11.26,-244.298,-38.857
11.29,-245.386,-39.132
11.32,-246.474,-39.396
11.36,-248.088,-39.522
11.39,-249.702,-39.693
11.42,-251.422,-39.98
11.45,-252.791,-40.266
11.49,-254.23,-40.564
11.52,-255.598,-40.747
11.55,-256.757,-40.919
11.58,-258.02,-41.114
11.62,-258.932,-41.24
11.65,-259.775,-41.412
11.68,-261.214,-41.515
11.71,-262.688,-41.733
11.75,-264.302,-42.065
11.78,-265.53,-42.351
11.81,-266.443,-42.546
11.84,-267.461,-42.615
11.88,-268.373,-42.741
11.91,-269.391,-42.878
11.94,-270.654,-43.096
11.97,-272.093,-43.268
12.01,-273.251,-43.439
12.04,-274.164,-43.623
12.07,-274.796,-43.783
12.1,-275.497,-43.84
12.14,-276.059,-43.829
12.17,-276.48,-43.829
12.2,-277.182,-43.932
12.23,-277.954,-44.012
12.27,-278.551,-44.15
12.3,-279.147,-44.184
12.33,-279.498,-44.264
12.36,-280.025,-44.344
12.4,-280.165,-44.344
12.43,-280.13,-44.276
12.46,-280.411,-44.264
12.49,-280.902,-44.23
12.53,-280.762,-44.299
12.56,-280.762,-44.253
12.59,-280.727,-44.23
12.63,-281.183,-44.184
12.66,-280.025,-43.943
12.69,-279.568,-44.012
12.72,-280.27,-43.875
12.76,-280.06,-43.84
12.79,-279.814,-43.863
12.82,-279.428,-43.795
12.85,-278.656,-43.657
12.89,-277.814,-43.428
12.92,-276.726,-43.119
12.95,-276.234,-42.993
12.98,-276.55,-43.004
13.02,-276.726,-43.084
13.05,-276.305,-43.073
13.08,-274.971,-42.844
13.11,-273.181,-42.512
13.15,-271.532,-42.111
13.18,-270.058,-41.698
13.21,-268.654,-41.286
13.24,-266.899,-40.896
13.28,-264.653,-40.576
13.31,-263.039,-40.346
13.34,-261.775,-40.049
13.37,-259.775,-39.682
13.41,-257.388,-39.35
13.44,-255.388,-38.972
13.47,-253.387,-38.617
13.5,-251.598,-38.284
13.54,-249.738,-37.883
13.57,-247.807,-37.643
13.6,-246.228,-37.437
13.63,-244.333,-37.15
13.67,-242.648,-36.852
13.7,-241.35,-36.566
13.73,-240.051,-36.406
13.76,-238.647,-36.234
13.8,-237.033,-35.982
13.83,-235.91,-35.833
13.86,-235.489,-35.615
13.89,-233.208,-35.329
13.93,-231.137,-35.146
13.96,-229.768,-34.664
13.99,-227.768,-34.241
14.02,-225.768,-33.851
14.06,-223.451,-33.542
14.09,-222.469,-33.416
14.12,-221.205,-33.015
14.15,-218.538,-32.706
14.19,-216.643,-32.454
14.22,-215.063,-32.098
14.25,-213.028,-31.778
14.28,-211.273,-31.445
14.32,-209.589,-31.09
14.35,-207.518,-30.873
14.38,-205.869,-30.667
14.41,-203.938,-30.288
14.45,-201.657,-29.91
14.48,-199.762,-29.544
14.51,-197.867,-29.246
14.54,-195.972,-28.971
14.58,-194.112,-28.627
14.61,-192.287,-28.272
14.64,-190.251,-27.963
14.67,-187.724,-27.665
14.71,-185.408,-27.321
14.74,-183.478,-26.806
14.77,-180.951,-26.268
14.81,-177.898,-25.844
14.84,-175.301,-25.489
14.87,-173.125,-25.088
14.9,-170.528,-24.607
14.94,-167.474,-24.16
14.97,-164.772,-23.805
15.0,-162.035,-23.358
15.03,-159.157,-22.9
15.07,-156.911,-22.476
15.1,-154.419,-22.052
15.13,-151.471,-21.766
15.16,-148.909,-21.41
15.2,-146.101,-20.906
15.23,-143.259,-20.437
15.26,-140.697,-20.013
15.29,-137.889,-19.612
15.33,-135.081,-19.222
15.36,-132.835,-18.787
15.39,-129.747,-18.237
15.42,-126.588,-17.951
15.46,-124.167,-17.516
15.49,-120.657,-16.966
15.52,-117.429,-16.45
15.55,-114.165,-15.832
15.59,-110.69,-15.385
15.62,-107.812,-14.927
15.65,-104.759,-14.388
15.68,-100.829,-13.781
15.72,-96.652,-13.231
15.75,-92.897,-12.613
15.78,-89.001,-12.005
15.81,-85.843,-11.467
15.85,-82.965,-10.94
15.88,-79.526,-10.528
15.91,-75.981,-10.184
15.94,-72.928,-9.772
15.98,-69.664,-9.187
16.01,-65.979,-8.672
16.04,-62.715,-8.248
16.07,-59.697,-7.79
16.11,-56.503,-7.286
16.14,-53.134,-6.77
16.17,-49.66,-6.278
16.2,-46.045,-5.797
16.24,-42.465,-5.304
16.27,-39.096,-4.731
16.3,-36.078,-4.261
16.33,-34.99,-4.353
16.37,-37.061,-4.651
16.4,-31.656,-3.54
16.43,-20.004,-2.761
16.46,-15.091,-1.695
16.5,-9.967,-0.195
16.53,-5.861,-0.481
16.56,-3.264,-0.378
16.59,0.035,0.332
16.63,2.386,1.409
16.66,7.686,1.466
16.69,10.704,1.627
16.72,16.881,1.97
16.76,19.197,1.1
16.79,19.583,1.638
16.82,25.198,2.532
16.86,29.866,2.612
16.89,31.27,2.91
16.92,32.849,3.345
16.95,34.007,3.861
16.99,34.99,4.731
17.02,37.552,5.762
17.05,41.132,6.679
17.08,43.694,7.732
17.12,44.992,9.279
17.15,46.396,11.123
17.18,49.133,12.842
17.21,55.661,13.426
17.25,62.154,13.071
17.28,67.207,13.094
17.31,72.366,13.025
17.34,75.069,12.887
17.38,76.859,12.956
17.41,79.526,13.14
17.44,82.86,13.483
17.47,86.615,14.01
17.51,90.23,14.549
17.54,92.862,15.11
17.57,95.424,15.683
17.6,98.196,16.152
17.64,101.601,16.565
17.67,105.496,17.046
17.7,109.146,17.596
17.73,112.129,18.226
17.77,115.042,18.753
17.8,117.99,19.108
17.83,121.008,19.474
17.86,124.377,20.001
17.9,127.852,20.563
17.93,131.151,21.113
17.96,134.801,21.651
17.99,137.819,22.052
18.03,139.749,22.499
18.06,142.136,22.934
18.09,145.786,23.312
18.12,148.804,23.564
18.16,151.26,24.091
18.19,154.173,24.561
18.22,156.209,24.962
18.25,159.824,25.523
18.29,162.912,25.741
18.32,164.386,26.233
18.35,166.913,26.68
18.38,169.124,26.863
18.42,171.405,27.195
18.45,174.599,27.574
18.48,177.406,28.089
18.51,180.074,28.708
18.55,182.706,29.166
18.58,185.162,29.521
18.61,187.584,29.842
18.64,189.795,30.197
18.68,192.076,30.598
18.71,194.778,30.93
18.74,197.13,31.239
18.77,198.955,31.571
18.81,200.674,31.927
18.84,202.57,32.179
18.87,204.535,32.362
18.9,206.5,32.591
18.94,208.185,32.958
18.97,210.255,33.359
19.0,212.291,33.691
19.04,214.291,34.023
19.07,216.573,34.401
19.1,218.257,34.71
19.13,219.661,35.031
19.17,221.626,35.237
19.2,223.381,35.398
19.23,224.995,35.684
19.26,226.75,36.028
19.3,228.575,36.303
19.33,230.225,36.566
19.36,231.523,36.738
19.39,232.927,37.07
19.43,234.612,37.265
19.46,235.559,37.505
19.49,238.016,37.815
19.52,239.349,37.918
19.56,240.964,38.479
19.59,243.736,38.834
19.62,245.07,39.086
19.65,246.368,39.373
19.69,248.264,39.59
19.72,249.843,39.865
19.75,251.492,40.163
19.78,253.352,40.381
19.82,254.861,40.598
19.85,256.055,40.839
19.88,257.037,41.011
19.91,258.16,41.194
19.95,259.459,41.251
19.98,260.442,41.4
20.01,261.845,41.664
20.04,263.39,41.95
20.08,264.969,42.237
20.11,266.338,42.408
20.14,267.18,42.592
20.17,267.987,42.775
20.21,268.97,42.878
20.24,270.058,42.947
20.27,271.216,43.061
20.3,272.374,43.291
20.34,273.532,43.52
20.37,274.445,43.68
20.4,275.146,43.772
20.43,275.638,43.783
20.47,275.919,43.795
20.5,276.199,43.783
20.53,276.866,43.84
20.56,277.744,43.886
20.6,278.235,44.024
20.63,278.796,44.161
20.66,279.253,44.264
20.69,279.849,44.322
20.73,280.095,44.299
20.76,280.165,44.299
20.79,280.621,44.344
20.82,281.148,44.356
20.86,281.253,44.379
20.89,281.323,44.356
20.92,281.253,44.322
20.95,281.078,44.23
20.99,280.762,44.15
21.02,280.867,44.069
21.05,281.078,44.081
21.09,281.534,44.138
21.12,280.376,43.989
21.15,279.568,43.921
21.18,279.358,43.6
21.22,278.2,43.348
21.25,276.866,43.084
21.28,275.357,42.786
21.31,274.55,42.58
21.35,274.129,42.351
21.38,272.549,42.179
21.41,271.075,42.053
21.44,269.812,41.767
21.48,268.513,41.458
21.51,267.075,41.137
21.54,265.46,40.908
21.57,264.688,40.77
21.61,263.776,40.564
21.64,262.407,40.392
21.67,261.319,40.198
21.7,259.845,39.923
21.74,258.231,39.671
21.77,256.827,39.35
21.8,255.458,39.029
21.83,254.124,38.788
21.87,252.615,38.594
21.9,251.176,38.365
21.93,249.492,38.021
21.96,247.456,37.609
22.0,245.14,37.242
22.03,243.245,36.933
22.06,241.982,36.612
22.09,240.227,36.234
22.13,238.261,36.016
22.16,237.209,35.821
22.19,235.243,35.512
22.22,233.173,35.283
22.26,231.523,34.848
22.29,229.698,34.561
22.32,228.154,34.321
22.35,226.399,34.08
22.39,224.75,33.759
22.42,222.504,33.324
22.45,220.784,33.107
22.48,219.45,32.786
22.52,217.099,32.476
22.55,215.344,32.167
22.58,213.835,31.778
22.61,211.905,31.537
22.65,210.15,31.331
22.68,208.571,31.067
22.71,206.711,30.667
22.74,204.324,30.311
22.78,202.078,29.979
22.81,200.253,29.647
22.84,198.288,29.257
22.87,196.498,28.925
22.91,194.708,28.627
22.94,192.567,28.352
22.97,190.216,28.02
23.0,187.689,27.574
23.04,185.162,27.058
23.07,182.671,26.6
23.1,180.284,26.233
23.14,178.178,25.855
23.17,175.757,25.443
23.2,173.055,25.042
23.23,170.212,24.664
23.27,167.439,24.274
23.3,164.983,23.816
23.33,162.21,23.255
23.36,159.297,22.842
23.4,156.876,22.522
23.43,154.349,22.144
23.46,151.752,21.743
23.49,149.4,21.319
23.53,146.628,20.918
23.56,143.68,20.574
23.59,141.118,20.162
23.62,138.696,19.669
23.66,135.678,19.154
23.69,132.484,18.764
23.72,129.431,18.283
23.75,125.957,17.71
23.79,123.114,17.241
23.82,120.728,16.691
23.85,116.656,16.198
23.88,113.638,15.969
23.92,111.919,15.476
23.95,109.111,15.03
23.98,106.023,14.697
24.01,102.724,14.285
24.05,98.758,13.678
24.08,94.827,12.991
24.11,91.107,12.223
24.14,87.071,11.57
24.18,83.386,11.043
24.21,79.771,10.47
24.24,76.016,9.898
24.27,72.507,9.394
24.31,68.892,8.901
24.34,65.347,8.511
24.37,62.154,8.019
24.4,58.82,7.492
24.44,55.486,7.045
24.47,52.081,6.633
24.5,48.782,6.175
24.53,45.343,5.648
24.57,41.763,5.029
24.6,37.622,4.468
24.63,34.393,4.078
24.66,34.534,4.319
24.7,36.359,4.17
24.73,27.936,3.001
24.76,18.46,2.669
24.79,14.529,1.363
24.83,10.002,0.321
24.86,8.002,0.504
24.89,5.405,0.137
24.92,0.667,-0.08
24.96,-0.632,-0.939
24.99,-5.334,-1.65
25.02,-9.019,-1.191
25.05,-11.897,-1.707
25.09,-15.617,-1.615
25.12,-17.899,-1.776
25.15,-23.479,-2.268
25.18,-28.989,-2.291
25.22,-31.024,-2.635
25.25,-32.639,-3.517
25.28,-34.99,-4.261
25.32,-37.131,-4.926
25.35,-38.991,-5.728
25.38,-40.64,-6.919
25.41,-42.535,-8.351
25.45,-44.711,-9.817
25.48,-46.571,-11.284
25.51,-49.835,-12.83
25.54,-56.96,-13.22
25.58,-62.856,-12.876
25.61,-67.348,-12.842
25.64,-71.91,-12.761
25.67,-74.402,-12.727
25.71,-76.262,-12.956
25.74,-79.456,-13.174
25.77,-83.0,-13.472
25.8,-86.194,-13.987
25.84,-89.528,-14.64
25.87,-92.336,-15.179
25.9,-94.897,-15.671
25.93,-98.232,-16.095
25.97,-101.776,-16.576
26.0,-105.215,-17.172
26.03,-108.514,-17.745
26.06,-111.919,-18.237
26.1,-114.902,-18.627
26.13,-117.639,-19.108
26.16,-120.763,-19.623
26.19,-123.991,-20.047
26.23,-127.01,-20.448
26.26,-129.993,-20.861
26.29,-132.976,-21.399
26.32,-136.38,-21.972
26.36,-139.503,-22.419
26.39,-142.311,-22.877
26.42,-145.645,-23.381
26.45,-148.593,-23.839
26.49,-151.05,-24.309
26.52,-154.279,-24.79
26.55,-157.753,-25.111
26.58,-159.262,-25.431
26.62,-161.508,-25.993
26.65,-164.561,-26.233
26.68,-166.702,-26.497
26.71,-169.229,-26.875
26.75,-172.002,-27.299
26.78,-174.809,-27.848
26.81,-177.827,-28.375
26.84,-180.775,-28.845
26.88,-183.337,-29.326
26.91,-185.829,-29.773
26.94,-188.181,-30.105
26.97,-190.497,-30.426
27.01,-192.918,-30.655
27.04,-195.059,-31.01
27.07,-197.34,-31.411
27.1,-199.341,-31.72
27.14,-201.025,-31.95
27.17,-202.675,-32.11
27.2,-204.184,-32.362
27.23,-205.798,-32.637
27.27,-207.729,-32.923
27.3,-209.729,-33.198
27.33,-211.589,-33.53
27.37,-213.589,-33.989
27.4,-215.765,-34.378
27.43,-217.59,-34.699
27.46,-219.521,-34.951
27.5,-221.381,-35.26
27.53,-223.486,-35.65
27.56,-225.557,-35.982
27.59,-227.452,-36.257
27.63,-229.277,-36.52
27.66,-230.856,-36.795
27.69,-232.401,-37.105
27.72,-234.261,-37.368
27.76,-235.875,-37.574
27.79,-237.279,-37.803
27.82,-238.753,-38.067
27.85,-240.086,-38.319
27.89,-241.982,-38.594
27.92,-243.771,-38.777
27.95,-245.07,-39.041
27.98,-246.263,-39.315
28.02,-247.632,-39.556
28.05,-249.422,-39.774
28.08,-251.212,-39.991
28.11,-252.545,-40.278
28.15,-254.019,-40.621
28.18,-255.493,-40.816
28.21,-256.757,-41.011
28.24,-258.125,-41.194
28.28,-259.073,-41.32
28.31,-259.985,-41.526
28.34,-261.389,-41.698
28.37,-262.968,-41.859
28.41,-264.513,-42.122
28.44,-265.565,-42.397
28.47,-266.548,-42.626
28.5,-267.636,-42.741
28.54,-268.654,-42.809
28.57,-269.637,-42.924
28.6,-270.689,-43.165
28.63,-272.023,-43.348
28.67,-273.216,-43.52
28.7,-274.129,-43.634
28.73,-274.76,-43.783
28.76,-275.392,-43.875
28.8,-275.883,-43.875
28.83,-276.305,-43.863
28.86,-277.077,-43.943
28.89,-277.849,-44.058
28.93,-278.516,-44.207
28.96,-279.182,-44.31
28.99,-279.604,-44.367
29.02,-280.025,-44.413
29.06,-280.235,-44.413
29.09,-280.586,-44.459
29.12,-281.218,-44.459
29.15,-280.972,-44.39
29.19,-281.253,-44.47
29.22,-281.569,-44.402
29.25,-280.902,-44.333
29.28,-280.481,-44.184
29.32,-280.305,-44.035
29.35,-280.13,-43.966
29.38,-280.2,-43.966
29.41,-279.709,-43.909
29.45,-279.99,-43.978
29.48,-279.814,-43.795
29.51,-278.691,-43.795
29.55,-278.305,-43.588
29.58,-276.936,-43.256
29.61,-275.954,-43.016
29.64,-275.603,-42.832
29.68,-275.146,-42.764
29.71,-274.164,-42.66
29.74,-272.83,-42.408
29.77,-271.216,-42.053
29.81,-269.391,-41.687
29.84,-267.496,-41.309
29.87,-265.706,-40.919
29.9,-264.162,-40.541
29.94,-262.758,-40.266
29.97,-261.249,-40.094
30.0,-259.95,-39.923
30.03,-258.195,-39.636
30.07,-256.265,-39.315
30.1,-254.686,-38.995
30.13,-253.247,-38.777
30.16,-252.124,-38.617
30.2,-250.861,-38.342
30.23,-249.211,-38.09
30.26,-247.807,-37.861
30.29,-246.193,-37.609
30.33,-244.579,-37.357
30.36,-243.42,-37.059
30.39,-241.841,-36.726
30.42,-240.297,-36.543
30.46,-238.893,-36.257
30.49,-237.419,-36.085
30.52,-236.717,-35.821
30.55,-234.296,-35.409
30.59,-231.909,-35.191
30.62,-230.295,-34.768
30.65,-228.61,-34.424
30.68,-227.031,-34.034
30.72,-224.434,-33.679
30.75,-222.784,-33.553
30.78,-221.661,-33.221
30.81,-219.345,-32.866
30.85,-217.59,-32.58
30.88,-215.906,-32.247
30.91,-213.905,-31.972
30.94,-212.221,-31.709
30.98,-210.677,-31.342
31.01,-208.746,-31.045
31.04,-206.746,-30.827
31.07,-204.605,-30.483
31.11,-202.464,-30.117
31.14,-200.674,-29.67
31.17,-198.358,-29.246
31.2,-195.937,-28.971
31.24,-194.041,-28.639
31.27,-192.216,-28.261
31.3,-190.146,-27.883
31.33,-187.479,-27.539
31.37,-184.706,-27.184
31.4,-182.249,-26.68
31.43,-179.828,-26.142
31.46,-177.512,-25.706
31.5,-175.16,-25.408
31.53,-172.704,-25.133
31.56,-170.212,-24.744
31.6,-167.509,-24.274
31.63,-164.772,-23.839
31.66,-162.14,-23.427
31.69,-159.438,-23.026
31.73,-157.086,-22.613
31.76,-154.77,-22.132
31.79,-151.752,-21.743
31.82,-148.769,-21.422
31.86,-146.101,-20.964
31.89,-143.118,-20.414
31.92,-140.065,-19.887
31.95,-136.871,-19.371
31.99,-133.502,-18.947
32.02,-131.151,-18.547
32.05,-128.659,-18.02
32.08,-125.606,-17.653
32.12,-122.798,-17.321
32.15,-119.85,-16.931
32.18,-116.762,-16.427
32.21,-113.638,-15.866
32.25,-110.936,-15.454
32.28,-108.374,-15.075
32.31,-105.321,-14.697
32.34,-102.303,-14.193
32.38,-98.512,-13.552
32.41,-94.301,-12.945
32.44,-90.23,-12.269
32.47,-86.65,-11.685
32.51,-83.597,-11.055
32.54,-80.052,-10.482
32.57,-76.157,-10.069
32.6,-72.612,-9.634
32.64,-68.997,-9.061
32.67,-65.242,-8.489
32.7,-61.697,-7.939
32.73,-58.083,-7.458
32.77,-54.713,-7.011
32.8,-51.45,-6.484
32.83,-48.116,-5.968
32.86,-44.641,-5.51
32.9,-41.202,-5.086
32.93,-37.727,-4.628
32.96,-34.744,-4.158
32.99,-33.481,-4.147
33.03,-35.727,-4.502
33.06,-31.551,-3.608
33.09,-20.531,-2.818
33.12,-15.266,-1.936
33.16,-11.371,-0.286
33.19,-6.914,-0.412
33.22,-4.913,-0.504
33.25,-0.737,0.092
33.29,1.193,1.088
33.32,6.282,1.638
33.35,10.213,1.466
33.38,15.196,2.096
33.42,19.759,1.455
33.45,19.899,1.34
33.48,23.935,2.234
33.51,28.848,2.543
33.55,30.568,2.83
33.58,32.182,3.356
33.61,34.358,3.746
33.64,35.622,4.491
33.68,37.727,5.625
33.71,40.816,6.759
33.74,43.764,7.847
33.78,45.589,9.21
33.81,46.817,10.974
33.84,48.677,13.002
33.87,55.486,13.85
33.91,62.434,13.323
33.94,66.891,13.22
33.97,72.015,13.117
34.0,75.034,12.933
34.04,76.823,12.945
34.07,79.526,13.082
34.1,82.755,13.414
34.13,86.194,13.976
34.17,89.703,14.571
34.2,92.757,15.087
34.23,95.459,15.602
34.26,98.302,16.152
34.3,101.601,16.645
34.33,105.251,17.115
34.36,108.9,17.584
34.39,111.989,18.134
34.43,114.937,18.718
34.46,117.639,19.119
34.49,120.692,19.52
34.52,124.097,19.898
34.56,126.974,20.368
34.59,129.993,20.941
34.62,133.678,21.502
34.65,137.187,21.914
34.69,139.503,22.373
34.72,142.241,22.968
34.75,145.856,23.427
34.78,148.734,23.77
34.82,151.611,24.263
34.85,154.77,24.641
34.88,156.7,25.088
34.91,159.929,25.649
34.95,162.807,25.798
34.98,164.211,26.153
35.01,166.772,26.565
35.04,169.264,26.84
35.08,171.686,27.264
35.11,174.809,27.677
35.14,177.547,28.112
35.17,180.003,28.708
35.21,182.776,29.28
35.24,185.548,29.635
35.27,188.005,29.933
35.3,190.286,30.266
35.34,192.532,30.701
35.37,195.164,31.102
35.4,197.481,31.377
35.43,199.376,31.652
35.47,201.166,31.95
35.5,202.605,32.156
35.53,203.938,32.35
35.56,206.009,32.534
35.6,207.799,32.751
35.63,209.694,33.175
35.66,211.694,33.576
35.69,213.66,33.977
35.73,216.011,34.309
35.76,217.555,34.573
35.79,218.959,34.951
35.83,221.31,35.272
35.86,223.416,35.478
35.89,225.592,35.867
35.92,227.487,36.154
35.96,228.891,36.555
35.99,231.102,36.852
36.02,232.576,37.024
36.05,234.155,37.276
36.09,235.349,37.448
36.12,237.138,37.838
36.15,239.595,38.09
36.18,241.315,38.388
36.22,242.789,38.685
36.25,244.228,38.983
36.28,245.526,39.178
36.31,246.825,39.338
36.35,248.579,39.499
36.38,250.124,39.751
36.41,251.492,40.083
36.44,253.036,40.358
36.48,254.686,40.61
36.51,256.3,40.862
36.54,257.283,41.022
36.57,258.125,41.24
36.61,259.389,41.332
36.64,260.512,41.469
36.67,262.091,41.675
36.7,263.495,41.95
36.74,264.899,42.282
36.77,266.092,42.466
36.8,267.11,42.557
36.83,267.987,42.706
36.87,268.9,42.855
36.9,269.847,43.004
36.93,271.111,43.119
36.96,272.374,43.268
37.0,273.497,43.508
37.03,274.374,43.691
37.06,275.006,43.806
37.09,275.568,43.817
37.13,276.059,43.806
37.16,276.34,43.829
37.19,276.901,43.898
37.22,277.884,44.001
37.26,278.551,44.069
37.29,278.761,44.161
37.32,279.182,44.253
37.35,279.744,44.31
37.39,279.955,44.287
37.42,280.025,44.241
37.45,280.341,44.299
37.48,280.867,44.333
37.52,281.007,44.356
37.55,280.972,44.322
37.58,280.762,44.218
37.61,280.586,44.15
37.65,280.27,44.047
37.68,279.919,43.943
37.71,280.305,43.978
37.74,280.937,43.978
37.78,279.814,43.898
37.81,279.112,43.886
37.84,279.077,43.646
37.88,278.13,43.394
37.91,276.831,43.153
37.94,275.778,42.935
37.97,275.146,42.764
38.01,274.515,42.557
38.04,273.181,42.34
38.07,271.953,42.179
38.1,270.303,41.859
38.14,268.513,41.549
38.17,267.32,41.183
38.2,265.952,40.873
38.23,264.793,40.747
38.27,263.705,40.564
38.3,262.267,40.381
38.33,261.249,40.175
38.36,259.775,39.865
38.4,257.88,39.625
38.43,256.546,39.361
38.46,255.388,39.063
38.49,254.089,38.8
38.53,252.44,38.559
38.56,250.79,38.353
38.59,249.316,38.078
38.62,247.702,37.7
38.66,245.807,37.322
38.69,243.877,37.013
38.72,242.262,36.749
38.75,240.508,36.348
38.79,238.402,36.051
38.82,237.524,35.844
38.85,235.77,35.535
38.88,233.453,35.363
38.92,231.909,34.997
38.95,230.295,34.619
38.98,228.329,34.298
39.01,226.54,34.126
39.05,225.171,33.84
39.08,223.241,33.496
39.11,221.696,33.233
39.14,219.977,32.877
39.18,217.766,32.637
39.21,216.222,32.339
39.24,214.572,31.95
39.27,212.677,31.64
39.31,210.817,31.388
39.34,209.062,31.159
39.37,207.132,30.781
39.4,204.886,30.38
39.44,202.64,29.968
39.47,200.288,29.613
39.5,198.112,29.257
39.53,196.323,28.902
39.57,194.814,28.582
39.6,192.708,28.284
39.63,190.076,28.009
39.66,187.514,27.631
39.7,185.338,27.161
39.73,183.057,26.634
39.76,180.389,26.222
39.79,178.284,25.958
39.83,176.143,25.546
39.86,173.335,25.122
39.89,170.528,24.698
39.92,167.896,24.309
39.96,165.053,23.839
39.99,162.035,23.323
40.02,159.543,22.831
40.06,157.051,22.419
40.09,154.314,22.109
40.12,151.822,21.788
40.15,149.014,21.284
40.19,145.821,20.792
40.22,142.802,20.311
40.25,139.539,19.841
40.28,136.766,19.371
40.32,133.994,18.821
40.35,130.905,18.34
40.38,127.747,17.951
40.41,124.728,17.561
40.45,122.342,17.206
40.48,120.131,16.725
40.51,116.341,16.21
40.54,113.147,15.958
40.58,111.006,15.476
40.61,108.234,14.995
40.64,105.496,14.594
40.67,102.197,14.067
40.71,97.845,13.529
40.74,93.845,12.876
40.77,90.125,12.074
40.8,86.264,11.398
40.84,82.684,10.894
40.87,79.105,10.39
40.9,75.349,9.886
40.93,71.91,9.359
40.97,68.646,8.878
41.0,65.382,8.511
41.03,62.294,8.133
41.06,59.206,7.687
41.1,56.187,7.206
41.13,52.713,6.724
41.16,49.239,6.289
41.19,45.905,5.785
41.23,42.465,5.189
41.26,38.499,4.559
41.29,35.13,4.135
41.32,34.569,4.319
41.36,37.096,4.491
41.39,30.743,3.334
41.42,19.969,2.772
41.45,15.372,1.684
41.49,10.634,0.378
41.52,7.791,0.561
41.55,6.071,0.206
41.58,1.158,-0.126
41.62,-0.526,-0.836
41.65,-4.984,-1.684
41.68,-9.651,-1.375
41.71,-13.968,-1.776
41.75,-17.442,-1.375
41.78,-17.407,-1.558
41.81,-22.672,-2.486
41.84,-29.164,-2.463
41.88,-31.235,-2.497
41.91,-32.112,-3.265
41.94,-34.218,-4.09
41.97,-36.183,-4.88
42.01,-38.605,-5.693
42.04,-41.096,-6.701
42.07,-43.448,-8.088
42.11,-45.483,-9.772
42.14,-47.379,-11.478
42.17,-50.081,-13.105
42.2,-56.679,-13.609
42.24,-62.996,-13.231
42.27,-67.944,-13.14
42.3,-72.612,-12.968
42.33,-75.069,-12.819
42.37,-76.718,-12.956
42.4,-79.245,-13.128
42.43,-82.719,-13.472
42.46,-86.545,-13.941
42.5,-90.019,-14.56
42.53,-92.757,-15.213
42.56,-95.354,-15.763
42.59,-98.267,-16.198
42.63,-101.636,-16.553
42.66,-104.97,-17.057
42.69,-108.549,-17.687
42.72,-112.164,-18.26
42.76,-115.147,-18.695
42.79,-117.92,-19.142
42.82,-120.728,-19.566
42.85,-123.535,-20.013
42.89,-126.799,-20.46
42.92,-130.344,-20.883
42.95,-133.537,-21.388
42.98,-136.766,-22.018
43.02,-139.398,-22.453
43.05,-141.574,-22.877
43.08,-145.084,-23.266
43.11,-148.242,-23.61
43.15,-150.804,-24.16
43.18,-154.033,-24.721
43.21,-157.367,-25.111
43.24,-159.508,-25.477
43.28,-162.105,-25.993
43.31,-164.807,-26.348
43.34,-167.159,-26.726
43.37,-169.791,-27.012
43.41,-172.282,-27.344
43.44,-175.02,-27.848
43.47,-178.073,-28.387
43.5,-181.021,-28.914
43.54,-183.688,-29.338
43.57,-186.04,-29.716
43.6,-188.251,-30.082
43.63,-190.602,-30.449
43.67,-193.024,-30.712
43.7,-195.34,-31.01
43.73,-197.375,-31.331
43.76,-199.025,-31.686
43.8,-201.025,-31.984
43.83,-202.956,-32.167
43.86,-204.675,-32.373
43.89,-206.29,-32.706
43.93,-208.22,-33.049
43.96,-210.22,-33.359
43.99,-212.186,-33.656
44.02,-214.081,-34.012
44.06,-215.906,-34.39
44.09,-217.696,-34.722
44.12,-219.556,-34.962
44.15,-221.556,-35.237
44.19,-223.662,-35.547
44.22,-225.206,-35.902
44.25,-226.926,-36.234
44.29,-229.066,-36.463
44.32,-230.786,-36.704
44.35,-232.295,-37.024
44.38,-233.91,-37.311
44.42,-235.559,-37.609
44.45,-237.419,-37.792
44.48,-238.683,-38.01
44.51,-240.297,-38.365
44.55,-242.262,-38.651
44.58,-243.877,-38.892
44.61,-245.245,-39.098
44.64,-246.404,-39.258
44.68,-247.772,-39.567
44.71,-249.632,-39.797
44.74,-251.247,-40.026
44.77,-252.826,-40.301
44.81,-254.3,-40.587
44.84,-255.493,-40.816
44.87,-256.511,-41.011
44.9,-257.88,-41.148
44.94,-259.003,-41.217
44.97,-259.845,-41.435
45.0,-261.214,-41.618
45.03,-262.547,-41.836
45.07,-264.267,-42.065
45.1,-265.355,-42.294
45.13,-266.162,-42.546
45.16,-267.11,-42.695
45.2,-268.268,-42.786
45.23,-269.426,-42.855
45.26,-270.619,-43.084
45.29,-271.953,-43.336
45.33,-273.041,-43.565
45.36,-273.988,-43.657
45.39,-274.655,-43.737
45.42,-275.217,-43.817
45.46,-275.919,-43.875
45.49,-276.41,-43.898
45.52,-277.252,-43.989
45.55,-278.13,-44.069
45.59,-278.586,-44.218
45.62,-279.077,-44.31
45.65,-279.463,-44.344
45.68,-279.919,-44.333
45.72,-280.06,-44.322
45.75,-280.2,-44.344
45.78,-280.551,-44.367
45.81,-281.078,-44.367
45.85,-280.902,-44.31
45.88,-280.516,-44.264
45.91,-280.376,-44.184
45.94,-280.27,-44.092
45.98,-279.919,-43.955
46.01,-279.604,-43.909
46.04,-279.639,-43.852
46.07,-279.147,-43.829
46.11,-279.744,-43.921
46.14,-279.358,-43.714
46.17,-278.13,-43.68
46.2,-277.603,-43.439
46.24,-276.34,-43.142
46.27,-275.603,-42.935
46.3,-275.287,-42.741
46.34,-274.445,-42.615
46.37,-273.111,-42.489
46.4,-271.637,-42.214
46.43,-270.093,-41.836
46.47,-268.513,-41.446
46.5,-266.794,-41.148
46.53,-265.425,-40.942
46.56,-264.407,-40.69
46.6,-263.144,-40.461
46.63,-261.916,-40.289
46.66,-260.512,-40.083
46.69,-258.687,-39.785
46.73,-257.072,-39.487
46.76,-255.774,-39.155
46.79,-254.44,-38.903
46.82,-253.072,-38.766
46.86,-251.633,-38.548
46.89,-250.404,-38.296
46.92,-249.106,-38.01
46.95,-247.141,-37.723
46.99,-245.28,-37.494
47.02,-244.087,-37.196
47.05,-242.648,-36.818
47.08,-241.069,-36.566
47.12,-239.525,-36.291
47.15,-237.314,-35.993
47.18,-235.77,-35.707
47.21,-233.98,-35.237
47.25,-231.909,-34.974
47.28,-230.33,-34.71
47.31,-228.435,-34.447
47.34,-226.715,-34.103
47.38,-224.574,-33.714
47.41,-223.276,-33.553
47.44,-221.872,-33.278
47.47,-219.591,-32.992
47.51,-217.555,-32.614
47.54,-215.8,-32.19
47.57,-213.765,-31.869
47.6,-212.01,-31.617
47.64,-210.291,-31.308
47.67,-208.466,-30.987
47.7,-206.57,-30.701
47.73,-204.184,-30.369
47.77,-201.833,-30.059
47.8,-200.218,-29.647
47.83,-198.253,-29.2
47.86,-196.007,-28.937
47.9,-194.147,-28.673
47.93,-192.252,-28.352
47.96,-190.041,-27.952
47.99,-187.338,-27.505
48.03,-184.776,-27.127
48.06,-182.355,-26.68
48.09,-179.828,-26.222
48.12,-177.757,-25.798
48.16,-175.687,-25.443
48.19,-172.984,-25.133
48.22,-170.071,-24.813
48.25,-167.58,-24.343
48.29,-165.053,-23.839
48.32,-162.245,-23.358
48.35,-159.262,-22.991
48.39,-156.946,-22.625
48.42,-154.735,-22.178
48.45,-151.752,-21.708
48.48,-148.734,-21.33
48.52,-145.996,-20.941
48.55,-143.329,-20.494
48.58,-140.627,-19.967
48.61,-137.292,-19.417
48.65,-133.607,-18.913
48.68,-130.519,-18.489
48.71,-128.062,-17.997
48.74,-125.36,-17.516
48.78,-122.517,-17.183
48.81,-119.745,-16.84
48.84,-116.656,-16.45
48.87,-113.673,-15.969
48.91,-111.427,-15.58
48.94,-109.111,-15.156
48.97,-106.058,-14.858
49.0,-102.899,-14.388
49.04,-98.758,-13.666
49.07,-94.652,-12.991
49.1,-90.756,-12.257
49.13,-86.79,-11.65
49.17,-83.421,-11.066
49.2,-79.596,-10.39
49.23,-76.472,-10.115
49.26,-75.42,-9.966
49.3,-73.033,-9.714
49.33,-70.05,-9.611
49.36,-67.383,-9.142
49.39,-63.171,-8.511
49.43,-59.03,-7.973
49.46,-55.907,-7.297
49.49,-52.222,-6.507
49.52,-47.589,-5.762
49.56,-42.535,-5.04
49.59,-37.587,-4.307
49.62,-33.06,-3.563
49.65,-30.638,-3.345
49.69,-31.48,-3.356
49.72,-25.093,-2.028
49.75,-13.863,-1.604
49.78,-10.353,-0.676
49.82,-4.457,0.309
49.85,-1.895,-0.561
49.88,-1.474,-0.206
49.91,0.386,0.447
49.95,1.93,1.146
49.98,6.001,1.123
50.01,8.528,1.569
50.04,14.178,2.005
50.08,18.706,1.787
50.11,21.724,1.718
50.14,24.812,1.936
50.17,28.252,2.325
50.21,30.814,2.956
50.24,33.586,3.631
50.27,36.113,4.17
50.3,38.394,4.983
50.34,40.114,6.094
50.37,41.693,7.458
50.4,43.764,8.878
50.43,46.396,10.264
50.47,48.361,11.948
50.5,53.59,13.266
50.53,61.101,13.22
50.57,65.698,12.933
50.6,69.769,12.865
50.63,73.209,12.704
50.66,75.174,12.75
50.7,78.192,13.002
50.73,81.702,13.208
50.76,84.685,13.666
50.79,87.878,14.308
50.83,91.177,14.915
50.86,93.985,15.385
50.89,96.968,15.866
50.92,100.443,16.37
50.96,103.917,16.954
50.99,107.532,17.527
51.02,111.041,18.031
51.05,114.13,18.489
51.09,117.043,19.005
51.12,119.955,19.429
51.15,122.693,19.841
51.18,126.097,20.23
51.22,129.396,20.631
51.25,132.133,21.147
51.28,135.011,21.708
51.31,138.17,22.155
51.35,141.048,22.51
51.38,143.504,22.934
51.41,146.452,23.461
51.44,149.751,23.931
51.48,153.12,24.412
51.51,156.033,24.813
51.54,158.35,25.317
51.57,160.912,25.764
51.61,163.649,26.142
51.64,166.281,26.451
51.67,168.738,26.772
51.7,171.089,27.161
51.74,173.686,27.619
51.77,176.353,27.997
51.8,179.126,28.444
51.83,182.004,28.914
51.87,184.46,29.429
51.9,186.847,29.853
51.93,189.549,30.14
51.96,188.918,29.67
52.0,183.969,29.063
52.03,183.057,28.731
52.06,184.846,28.123
52.09,185.268,28.158
52.13,187.373,28.742
52.16,188.321,29.086
52.19,188.882,29.933
52.22,193.375,30.712
52.26,197.797,31.388
52.29,201.762,32.396
52.32,205.482,33.244
52.35,208.185,33.874
52.39,211.133,34.344
52.42,213.835,34.504
52.45,216.081,34.825
52.48,219.029,35.157
52.52,221.346,35.432
52.55,223.907,35.81
52.58,226.575,36.108
52.62,228.54,36.52
52.65,230.962,36.99
52.68,232.822,37.219
52.71,234.331,37.494
52.75,236.366,37.712
52.78,238.051,37.964
52.81,239.981,38.33
52.84,241.946,38.559
52.88,243.42,38.777
52.91,244.894,39.029
52.94,246.263,39.281
52.97,247.667,39.487
53.01,249.492,39.739
53.04,251.492,39.98
53.07,252.791,40.278
53.1,254.3,40.633
53.14,255.809,40.828
53.17,257.072,41.022
53.2,258.231,41.148
53.23,258.897,41.251
53.27,259.705,41.389
53.3,260.933,41.492
53.33,262.582,41.675
53.36,263.951,41.939
53.4,265.074,42.26
53.43,266.022,42.477
53.46,266.934,42.58
53.49,267.847,42.638
53.53,268.724,42.752
53.56,269.742,42.935
53.59,271.075,43.142
53.62,272.409,43.313
53.66,273.602,43.52
53.69,274.339,43.691
53.72,274.901,43.817
53.75,275.533,43.84
53.79,276.024,43.806
53.82,276.305,43.817
53.85,277.007,43.909
53.88,277.919,44.035
53.92,278.516,44.138
53.95,278.867,44.195
53.98,279.323,44.264
54.01,279.639,44.299
54.05,279.568,44.253
54.08,279.674,44.207
54.11,280.025,44.184
54.14,280.341,44.195
54.18,280.27,44.23
54.21,280.305,44.218
54.24,280.341,44.161
54.27,280.27,44.104
54.31,279.779,43.989
54.34,279.253,43.921
54.37,279.498,43.875
54.4,279.674,43.806
54.44,279.323,43.806
54.47,278.621,43.691
54.5,277.708,43.543
54.53,276.901,43.268
54.57,275.848,42.97
54.6,274.76,42.752
54.63,274.234,42.638
54.66,273.567,42.477
54.7,272.479,42.305
54.73,271.426,42.099
54.76,269.917,41.847
54.8,268.443,41.629
54.83,267.18,41.309
54.86,266.232,41.057
54.89,265.25,40.862
54.93,264.021,40.713
54.96,262.828,40.553
54.99,261.74,40.312
55.02,260.091,39.98
55.06,258.336,39.693
55.09,256.967,39.407
55.12,255.563,39.132
55.15,254.265,38.88
55.19,252.756,38.571
55.22,250.931,38.353
55.25,249.457,38.147
55.28,248.123,37.861
55.32,246.544,37.54
55.35,244.965,37.253
55.38,243.526,37.024
55.41,241.876,36.749
55.45,240.227,36.486
55.48,238.963,36.177
55.51,237.419,35.879
55.54,235.419,35.615
55.58,233.243,35.26
55.61,231.348,34.882
55.64,229.909,34.504
55.67,227.803,34.16
55.71,225.732,34.023
55.74,224.329,33.679
55.77,222.047,33.255
55.8,219.556,32.832
55.84,217.099,32.385
55.87,215.204,32.076
55.9,214.046,31.824
55.93,212.537,31.503
55.97,210.22,31.285
56.0,208.466,31.148
56.03,206.641,30.815
56.06,204.71,30.483
56.1,202.921,30.082
56.13,200.885,29.75
56.16,198.849,29.452
56.19,196.884,29.177
56.23,195.235,28.822
56.26,193.41,28.41
56.29,190.813,28.043
56.32,188.04,27.711
56.36,185.864,27.31
56.39,183.688,26.749
56.42,180.951,26.29
56.45,178.6,25.97
56.49,176.248,25.626
56.52,173.581,25.214
56.55,170.984,24.755
56.58,168.001,24.263
56.62,164.877,23.85
56.65,162.14,23.381
56.68,159.859,22.957
56.71,157.437,22.453
56.75,153.893,22.006
56.78,150.909,21.685
56.81,148.488,21.239
56.85,145.786,20.757
56.88,143.083,20.322
56.91,139.854,19.887
56.94,137.889,19.772
56.98,136.345,19.28
57.01,132.73,18.879
57.04,130.273,18.547
57.07,126.764,17.859
57.11,123.184,17.527
57.14,121.114,16.943
57.17,117.99,16.324
57.2,114.375,15.912
57.24,111.357,15.511
57.27,108.444,15.03
57.3,105.321,14.549
57.33,102.478,14.067
57.37,99.004,13.54
57.4,94.617,13.002
57.43,90.721,12.361
57.46,86.861,11.582
57.5,83.246,10.974
57.53,79.736,10.447
57.56,76.157,10.024
57.59,72.717,9.531
57.63,68.997,8.935
57.66,64.926,8.397
57.69,61.557,7.973
57.72,58.469,7.48
57.76,55.205,7.011
57.79,52.046,6.518
57.82,48.572,6.071
57.85,44.641,5.602
57.89,41.272,5.098
57.92,37.622,4.433
57.95,34.288,3.987
57.98,33.621,4.124
58.02,36.534,4.513
58.05,31.691,3.563
58.08,21.303,3.001
58.11,16.776,2.051
58.15,12.74,0.687
58.18,10.213,0.71
58.21,8.739,0.218
58.24,2.667,-0.252
58.28,-0.211,-0.768
58.31,-5.019,-1.821
58.34,-10.388,-1.443
58.37,-13.301,-1.581
58.41,-16.53,-1.272
58.44,-15.828,-1.191
58.47,-20.039,-2.371
58.5,-27.76,-2.692
58.54,-31.621,-2.623
58.57,-32.954,-3.162
58.6,-34.955,-3.998
58.63,-36.464,-4.903
58.67,-38.219,-5.877
58.7,-40.605,-6.828
58.73,-43.202,-8.042
58.76,-45.483,-9.634
58.8,-47.308,-11.49
58.83,-50.046,-13.288
58.86,-56.749,-13.792
58.9,-62.68,-13.277
58.93,-67.032,-13.117
58.96,-71.91,-12.956
58.99,-74.928,-12.75
59.03,-76.683,-12.842
59.06,-79.105,-13.082
59.09,-82.228,-13.472
59.12,-85.878,-13.93
59.16,-89.388,-14.514
59.19,-92.511,-15.133
59.22,-95.248,-15.717
59.25,-98.021,-16.244
59.29,-101.46,-16.668
59.32,-105.11,-17.103
59.35,-108.585,-17.676
59.38,-111.989,-18.295
59.42,-114.972,-18.764
59.45,-117.744,-19.177
59.48,-120.833,-19.555
59.51,-123.746,-20.013
59.55,-126.869,-20.517
59.58,-130.379,-21.032
59.61,-133.958,-21.468
59.64,-136.626,-21.995
59.68,-139.539,-22.533
59.71,-142.03,-22.945
59.74,-145.786,-23.495
59.77,-148.698,-23.667
59.81,-150.804,-24.274
59.84,-154.279,-24.733
59.87,-156.946,-25.133
59.9,-159.438,-25.534
59.94,-162.28,-25.912
59.97,-164.702,-26.302
60.0,-166.948,-26.737
60.03,-169.615,-27.069
60.07,-172.177,-27.367
60.1,-174.915,-27.803
60.13,-177.582,-28.318
60.16,-180.354,-28.845
60.2,-182.811,-29.28
60.23,-185.478,-29.635
60.26,-187.935,-29.945
60.29,-190.181,-30.38
60.33,-192.462,-30.747
60.36,-194.849,-31.056
60.39,-197.095,-31.331
60.42,-198.849,-31.675
60.46,-200.639,-32.007
60.49,-202.57,-32.247
60.52,-204.395,-32.396
60.55,-206.079,-32.66
60.59,-208.009,-33.026
60.62,-210.045,-33.404
60.65,-212.115,-33.771
60.68,-214.256,-34.103
60.72,-216.292,-34.458
60.75,-218.222,-34.882
60.78,-219.977,-35.18
60.81,-221.977,-35.455
60.85,-224.294,-35.684
60.88,-225.838,-36.005
60.91,-227.698,-36.406
60.94,-229.698,-36.669
60.98,-231.067,-36.83
61.01,-232.295,-37.07
61.04,-233.945,-37.288
61.08,-235.454,-37.574
61.11,-237.56,-37.883
61.14,-239.104,-38.055
61.17,-240.086,-38.342
61.21,-241.806,-38.628
61.24,-243.35,-38.857
61.27,-244.965,-39.098
61.3,-246.544,-39.27
61.34,-247.737,-39.533
61.37,-249.281,-39.854
61.4,-251.001,-40.106
61.43,-252.65,-40.358
61.47,-254.405,-40.633
61.5,-255.598,-40.908
61.53,-256.686,-41.103
61.56,-257.809,-41.263
61.6,-258.932,-41.309
61.63,-259.95,-41.458
61.66,-261.389,-41.698
61.69,-262.863,-41.962
61.73,-264.442,-42.225
61.76,-265.565,-42.386
61.79,-266.443,-42.592
61.82,-267.461,-42.775
61.86,-268.549,-42.912
61.89,-269.777,-43.027
61.92,-271.005,-43.187
61.95,-272.163,-43.405
61.99,-273.181,-43.646
62.02,-274.129,-43.772
62.05,-274.866,-43.852
62.08,-275.638,-43.898
62.12,-276.094,-43.943
62.15,-276.375,-43.989
62.18,-277.217,-44.069
62.21,-278.024,-44.092
62.25,-278.656,-44.241
62.28,-279.218,-44.333
62.31,-279.533,-44.436
62.34,-279.884,-44.413
62.38,-279.814,-44.344
62.41,-279.709,-44.264
62.44,-280.025,-44.31
62.47,-280.305,-44.253
62.51,-280.305,-44.299
62.54,-280.305,-44.207
62.57,-280.446,-44.333
62.6,-280.867,-44.253
62.64,-279.568,-44.127
62.67,-279.604,-44.115
62.7,-280.27,-43.966
62.73,-280.13,-44.035
62.77,-279.568,-43.955
62.8,-278.726,-43.806
62.83,-278.13,-43.577
62.86,-277.322,-43.325
62.9,-276.024,-43.119
62.93,-275.182,-42.901
62.96,-274.585,-42.718
62.99,-273.883,-42.534
63.03,-272.549,-42.386
63.06,-271.286,-42.225
63.09,-269.777,-41.881
63.13,-268.127,-41.503
63.16,-266.724,-41.183
63.19,-265.565,-40.976
63.22,-264.548,-40.805
63.26,-263.284,-40.633
63.29,-262.196,-40.45
63.32,-261.038,-40.209
63.35,-259.178,-39.957
63.39,-257.529,-39.682
63.42,-256.265,-39.35
63.45,-255.072,-39.063
63.48,-253.773,-38.869
63.52,-252.229,-38.697
63.55,-250.896,-38.491
63.58,-249.597,-38.158
63.61,-247.667,-37.792
63.65,-245.807,-37.551
63.68,-244.473,-37.265
63.71,-242.929,-36.944
63.74,-241.49,-36.692
63.78,-240.051,-36.394
63.81,-238.472,-36.234
63.84,-236.858,-35.925
63.87,-234.506,-35.535
63.91,-232.716,-35.157
63.94,-231.032,-34.779
63.97,-229.312,-34.596
64.0,-227.382,-34.218
64.04,-225.101,-33.908
64.07,-223.978,-33.611
64.1,-222.012,-33.244
64.13,-219.31,-32.992
64.17,-217.45,-32.614
64.2,-215.73,-32.167
64.23,-213.905,-31.846
64.26,-212.08,-31.617
64.3,-210.185,-31.4
64.33,-208.501,-31.136
64.36,-206.676,-30.735
64.39,-204.114,-30.346
64.43,-201.727,-30.025
64.46,-199.797,-29.647
64.49,-197.902,-29.235
64.52,-196.077,-28.902
64.56,-194.182,-28.627
64.59,-192.041,-28.375
64.62,-189.76,-28.043
64.65,-187.233,-27.574
64.69,-184.706,-27.092
64.72,-182.214,-26.646
64.75,-179.758,-26.245
64.78,-177.827,-25.901
64.82,-175.722,-25.489
64.85,-172.914,-25.133
64.88,-169.966,-24.79
64.91,-167.299,-24.366
64.95,-164.912,-23.885
64.98,-162.21,-23.312
65.01,-159.227,-22.923
65.04,-156.841,-22.602
65.08,-154.384,-22.201
65.11,-151.611,-21.777
65.14,-149.155,-21.365
65.17,-146.172,-20.918
65.21,-142.943,-20.517
65.24,-140.1,-20.047
65.27,-137.679,-19.52
65.31,-134.59,-18.959
65.34,-131.186,-18.604
65.37,-128.133,-18.134
65.4,-124.904,-17.596
65.44,-122.061,-17.08
65.47,-119.464,-16.679
65.5,-116.481,-16.301
65.53,-113.568,-16.003
65.57,-111.533,-15.625
65.6,-108.936,-15.156
65.63,-105.742,-14.812
65.66,-102.373,-14.331
65.7,-98.407,-13.689
65.73,-94.757,-12.979
65.76,-90.581,-12.177
65.79,-86.72,-11.662
65.83,-83.562,-11.112
65.86,-80.157,-10.619
65.89,-76.929,-10.15
65.92,-73.56,-9.691
65.96,-69.875,-9.268
65.99,-66.119,-8.798
66.02,-62.75,-8.214
66.05,-59.241,-7.606
66.09,-55.731,-7.068
66.12,-51.906,-6.575
66.15,-48.08,-6.037
66.18,-44.29,-5.407
66.22,-40.324,-4.743
66.25,-36.218,-4.216
66.28,-32.99,-3.826
66.31,-32.533,-4.009
66.35,-34.113,-3.895
66.38,-26.813,-2.749
66.41,-17.583,-2.509
66.44,-14.249,-1.501
66.48,-10.423,-0.298
66.51,-7.581,-0.412
66.54,-4.773,-0.229
66.57,-0.281,0.069
66.61,1.228,1.1
66.64,6.352,1.661
66.67,10.353,1.272
66.7,14.214,1.81
66.74,17.618,1.546
66.77,19.092,1.741
66.8,24.391,2.188
66.83,29.164,2.257
66.87,30.779,2.623
66.9,32.042,3.482
66.93,34.674,4.135
66.96,36.99,4.72
67.0,38.991,5.579
67.03,40.991,6.828
67.06,43.237,8.271
67.09,45.518,9.76
67.13,47.519,11.249
67.16,49.554,13.036
67.19,56.293,13.896
67.22,63.242,13.414
67.26,67.874,13.243
67.29,72.542,13.059
67.32,75.279,12.956
67.36,77.631,13.14
67.39,80.579,13.254
67.42,83.667,13.54
67.45,87.071,14.079
67.49,90.475,14.675
67.52,93.669,15.35
67.55,96.863,15.877
67.58,99.846,16.29
67.62,102.724,16.782
67.65,105.952,17.309
67.68,109.322,17.779
67.71,112.691,18.226
67.75,115.849,18.661
67.78,118.517,19.142
67.81,121.289,19.658
67.84,124.448,20.07
67.88,127.676,20.448
67.91,130.695,20.929
67.94,133.748,21.456
67.97,136.661,21.983
68.01,139.784,22.453
68.04,142.627,22.797
68.07,145.505,23.323
68.1,148.453,23.77
68.14,151.295,24.251
68.17,154.103,24.561
68.2,156.7,24.996
68.23,160.069,25.512
68.27,162.105,25.855
68.3,164.246,26.359
68.33,167.334,26.565
68.36,169.334,26.829
68.4,171.756,27.333
68.43,174.704,27.757
68.46,177.336,28.204
68.49,179.968,28.593
68.53,181.618,28.879
68.56,182.53,29.131
68.59,184.039,29.235
68.62,186.215,29.395
68.66,189.198,29.716
68.69,191.655,30.197
68.72,193.971,30.861
68.75,196.533,31.365
68.79,199.13,31.778
68.82,201.517,32.156
68.85,204.149,32.637
68.88,206.886,33.061
68.92,209.448,33.473
68.95,211.975,33.817
68.98,214.081,34.149
69.01,215.976,34.561
69.05,218.468,34.905
69.08,220.258,35.065
69.11,221.521,35.226
69.14,222.749,35.375
69.18,224.223,35.638
69.21,226.294,35.879
69.24,228.084,36.108
69.27,229.523,36.394
69.31,230.856,36.692
69.34,232.014,36.944
69.37,233.699,37.208
69.41,235.559,37.379
69.44,237.033,37.689
69.47,238.718,38.032
69.5,240.192,38.284
69.54,241.806,38.582
69.57,243.701,38.766
69.6,244.719,38.96
69.63,246.053,39.304
69.67,247.983,39.522
69.7,249.562,39.739
69.73,251.071,40.003
69.76,252.58,40.278
69.8,254.124,40.598
69.83,255.844,40.839
69.86,257.037,40.999
69.89,258.09,41.194
69.93,259.178,41.332
69.96,260.266,41.515
69.99,261.67,41.698
70.02,263.179,41.859
70.06,264.548,42.134
70.09,265.811,42.42
70.12,266.794,42.626
70.15,267.952,42.752
70.19,269.005,42.821
70.22,270.023,43.004
70.25,271.146,43.21
70.28,272.549,43.417
70.32,273.672,43.554
70.35,274.48,43.691
70.38,275.111,43.806
70.41,275.603,43.863
70.45,276.059,43.863
70.48,276.691,43.863
70.51,277.463,43.955
70.54,278.375,44.127
70.58,278.902,44.241
70.61,279.358,44.333
70.64,279.955,44.379
70.67,280.446,44.436
70.71,280.656,44.47
70.74,281.007,44.516
70.77,281.815,44.562
70.8,282.236,44.562
70.84,282.095,44.574
70.87,281.569,44.436
70.9,281.323,44.379
70.93,281.288,44.138
70.97,280.411,43.989
71.0,279.99,43.898
71.03,280.516,43.989
71.06,281.218,43.989
71.1,280.025,43.943
71.13,279.919,43.989
71.16,279.849,43.806
71.19,278.796,43.669
71.23,277.708,43.359
71.26,276.445,43.038
71.29,275.919,42.867
71.32,275.111,42.649
71.36,273.567,42.466
71.39,272.339,42.191
71.42,270.76,41.801
71.45,268.97,41.561
71.49,267.531,41.274
71.52,266.338,41.011
71.55,265.355,40.782
71.59,264.056,40.576
71.62,262.407,40.427
71.65,261.003,40.163
71.68,259.248,39.808
71.72,257.669,39.476
71.75,256.16,39.155
71.78,254.546,38.903
71.81,252.966,38.64
71.85,251.422,38.353
71.88,250.053,38.09
71.91,248.474,37.861
71.94,246.579,37.597
71.98,244.754,37.299
72.01,243.21,36.91
72.04,241.631,36.589
72.07,239.735,36.291
72.11,238.051,36.108
72.14,237.209,35.844
72.17,235.068,35.421
72.2,232.611,35.157
72.24,230.786,34.825
72.27,229.277,34.55
72.3,227.803,34.195
72.33,226.013,33.908
72.37,224.153,33.656
72.4,222.433,33.473
72.43,221.416,33.267
72.46,220.047,32.912
72.5,217.976,32.637
72.53,216.222,32.396
72.56,214.713,32.11
72.59,213.063,31.801
72.63,211.308,31.434
72.66,209.308,31.113
72.69,207.132,30.815
72.72,204.921,30.449
72.76,202.605,29.991
72.79,200.639,29.555
72.82,198.463,29.2
72.85,196.428,28.948
72.89,194.427,28.65
72.92,192.638,28.295
72.95,190.216,27.837
72.98,187.233,27.539
73.02,184.987,27.161
73.05,182.565,26.588
73.08,179.898,26.107
73.11,177.757,25.706
73.15,175.371,25.397
73.18,172.739,25.111
73.21,170.107,24.652
73.24,167.299,24.148
73.28,164.421,23.679
73.31,161.403,23.255
73.34,159.016,22.9
73.37,157.191,22.487
73.41,154.665,22.063
73.44,151.682,21.788
73.47,148.804,21.399
73.5,146.066,20.941
73.54,143.294,20.357
73.57,140.1,19.852
73.6,137.047,19.394
73.64,134.029,18.936
73.67,131.326,18.512
73.7,128.624,17.985
73.73,125.325,17.55
73.77,122.728,17.286
73.8,119.885,16.782
73.83,116.411,16.313
73.86,113.989,15.889
73.9,111.357,15.419
73.93,108.339,15.11
73.96,105.602,14.709
73.99,102.443,14.148
74.03,98.618,13.518
74.06,94.441,12.922
74.09,90.475,12.246
74.12,86.58,11.57
74.16,83.316,10.963
74.19,79.842,10.39
74.22,75.946,9.943
74.25,72.191,9.497
74.29,68.506,8.901
74.32,64.786,8.317
74.35,61.522,7.859
74.38,58.398,7.446
74.42,55.17,7.057
74.45,51.976,6.575
74.48,48.642,6.083
74.51,44.887,5.59
74.55,41.553,5.166
74.58,38.464,4.628
74.61,35.622,4.239
74.64,35.095,4.353
74.68,37.411,4.685
74.71,32.568,3.815
74.74,21.899,3.082
74.77,16.846,2.016
74.81,12.213,0.435
74.84,8.107,0.389
74.87,4.703,0.286
74.9,0.491,-0.218
74.94,-1.79,-1.409
74.97,-7.44,-1.581
75.0,-10.423,-1.512
75.03,-15.582,-2.028
75.07,-18.109,-1.134
75.1,-18.214,-1.443
75.13,-24.04,-2.509
75.16,-29.936,-2.715
75.2,-31.48,-3.013
75.23,-32.954,-3.574
75.26,-34.744,-4.009
75.29,-35.762,-4.834
75.33,-37.657,-5.945
75.36,-40.816,-7.034
75.39,-43.869,-8.145
75.42,-45.94,-9.554
75.46,-46.852,-11.421
75.49,-49.905,-13.243
75.52,-57.275,-13.472
75.55,-62.926,-13.002
75.59,-67.628,-13.014
75.62,-72.472,-12.933
75.65,-74.963,-12.842
75.68,-76.788,-12.91
75.72,-79.385,-13.082
75.75,-82.79,-13.506
75.78,-86.475,-14.056
75.82,-90.019,-14.652
75.85,-93.073,-15.202
75.88,-95.599,-15.717
75.91,-98.267,-16.233
75.95,-101.706,-16.714
75.98,-105.426,-17.115
76.01,-109.041,-17.676
76.04,-112.445,-18.249
76.08,-115.077,-18.776
76.11,-117.674,-19.211
76.14,-120.833,-19.52
76.17,-123.851,-19.887
76.21,-127.01,-20.425
76.24,-130.273,-20.975
76.27,-133.467,-21.468
76.3,-136.626,-21.937
76.34,-139.223,-22.338
76.37,-141.925,-22.9
76.4,-145.364,-23.358
76.43,-148.418,-23.747
76.47,-151.26,-24.183
76.5,-154.63,-24.767
76.53,-157.893,-25.271
76.56,-160.104,-25.729
76.6,-163.017,-26.13
76.63,-165.369,-26.325
76.66,-167.194,-26.726
76.69,-169.931,-27.092
76.73,-172.704,-27.39
76.76,-175.616,-27.837
76.79,-178.424,-28.33
76.82,-180.775,-28.891
76.86,-183.232,-29.372
76.89,-185.794,-29.658
76.92,-188.181,-29.933
76.95,-190.567,-30.3
76.99,-192.743,-30.701
77.02,-195.164,-31.113
77.05,-197.305,-31.319
77.08,-198.92,-31.583
77.12,-200.815,-31.915
77.15,-202.464,-32.133
77.18,-204.079,-32.373
77.21,-206.079,-32.591
77.25,-208.009,-32.877
77.28,-209.975,-33.324
77.31,-212.151,-33.759
77.34,-214.186,-34.092
77.38,-216.222,-34.424
77.41,-218.187,-34.756
77.44,-219.801,-35.077
77.47,-221.661,-35.386
77.51,-223.872,-35.615
77.54,-225.697,-35.821
77.57,-227.206,-36.188
77.6,-229.172,-36.543
77.64,-231.032,-36.795
77.67,-232.576,-37.059
77.7,-234.155,-37.276
77.73,-235.699,-37.586
77.77,-237.384,-37.861
77.8,-239.069,-38.101
77.83,-240.648,-38.319
77.87,-242.262,-38.582
77.9,-243.561,-38.846
77.93,-244.93,-39.121
77.96,-246.684,-39.304
78.0,-248.193,-39.476
78.03,-249.492,-39.774
78.06,-251.036,-40.06
78.09,-252.721,-40.312
78.13,-254.475,-40.576
78.16,-255.949,-40.805
78.19,-256.967,-41.034
78.22,-258.09,-41.251
78.26,-259.178,-41.332
78.29,-260.336,-41.469
78.32,-261.81,-41.664
78.35,-263.144,-41.95
78.39,-264.583,-42.225
78.42,-265.671,-42.374
78.45,-266.653,-42.512
78.48,-267.566,-42.638
78.52,-268.443,-42.798
78.55,-269.496,-42.924
78.58,-270.865,-43.073
78.61,-272.058,-43.245
78.65,-273.111,-43.508
78.68,-273.848,-43.657
78.71,-274.585,-43.772
78.74,-275.357,-43.772
78.78,-275.848,-43.817
78.81,-276.375,-43.886
78.84,-277.252,-44.001
78.87,-277.989,-44.069
78.91,-278.445,-44.15
78.94,-278.867,-44.207
78.97,-279.253,-44.299
79.0,-279.744,-44.299
79.04,-279.744,-44.253
79.07,-279.884,-44.23
79.1,-280.411,-44.253
79.13,-280.762,-44.31
79.17,-280.867,-44.356
79.2,-280.727,-44.276
79.23,-280.867,-44.276
79.26,-280.481,-44.092
79.3,-279.709,-44.092
79.33,-280.481,-44.012
79.36,-280.376,-43.932
79.39,-280.2,-44.001
79.43,-279.674,-43.875
79.46,-279.042,-43.829
79.49,-278.726,-43.588
79.52,-277.708,-43.348
79.56,-276.656,-43.119
79.59,-275.603,-42.912
79.62,-274.866,-42.752
79.65,-274.234,-42.534
79.69,-273.076,-42.34
79.72,-271.848,-42.168
79.75,-270.093,-41.893
79.78,-268.408,-41.538
79.82,-267.039,-41.137
79.85,-265.706,-40.873
79.88,-264.864,-40.747
79.92,-263.635,-40.564
79.95,-262.126,-40.392
79.98,-260.898,-40.117
80.01,-259.178,-39.785
80.05,-257.283,-39.499
80.08,-255.984,-39.224
80.11,-254.791,-38.926
80.14,-253.528,-38.697
80.18,-251.913,-38.502
80.21,-250.439,-38.353
80.24,-249.211,-38.078
80.27,-247.421,-37.712
80.31,-245.526,-37.379
80.34,-243.982,-37.105
80.37,-242.438,-36.818
80.4,-240.929,-36.52
80.44,-238.928,-36.131
80.47,-236.858,-35.833
80.5,-235.524,-35.558
80.53,-233.559,-35.237
80.57,-231.839,-34.997
80.6,-230.505,-34.653
80.63,-228.54,-34.412
80.66,-226.259,-34.103
80.7,-224.294,-33.828
80.73,-223.627,-33.53
80.76,-221.767,-33.107
80.79,-218.889,-32.855
80.83,-217.029,-32.545
80.86,-215.485,-32.133
80.89,-213.765,-31.766
80.92,-211.87,-31.503
80.96,-210.01,-31.274
80.99,-208.044,-31.045
81.02,-206.395,-30.712
81.05,-204.184,-30.243
81.09,-201.692,-29.922
81.12,-199.692,-29.578
81.15,-197.656,-29.212
81.18,-195.937,-28.891
81.22,-194.182,-28.524
81.25,-191.795,-28.238
81.28,-189.339,-27.917
81.31,-187.057,-27.539
81.35,-184.952,-27.081
81.38,-182.53,-26.588
81.41,-179.968,-26.233
81.44,-177.617,-25.878
81.48,-175.406,-25.5
81.51,-172.879,-25.053
81.54,-170.036,-24.641
81.57,-167.229,-24.263
81.61,-164.632,-23.839
81.64,-162.0,-23.312
81.67,-159.157,-22.808
81.7,-156.665,-22.499
81.74,-154.314,-22.155
81.77,-151.541,-21.777
81.8,-148.839,-21.342
81.83,-146.031,-20.815
81.87,-142.451,-20.322
81.9,-139.363,-19.91
81.93,-137.187,-19.429
81.96,-134.45,-18.89
82.0,-131.326,-18.524
82.03,-128.343,-18.146
82.06,-125.255,-17.71
82.1,-122.377,-17.229
82.13,-119.71,-16.737
82.16,-116.692,-16.267
82.19,-113.638,-15.969
82.23,-111.568,-15.637
82.26,-108.971,-15.133
82.29,-105.672,-14.732
82.32,-102.513,-14.251
82.36,-98.302,-13.609
82.39,-94.16,-12.956
82.42,-90.195,-12.097
82.45,-86.369,-11.467
82.49,-82.895,-10.917
82.52,-79.14,-10.436
82.55,-75.665,-9.955
82.58,-72.261,-9.416
82.62,-68.365,-8.89
82.65,-64.716,-8.489
82.68,-61.346,-7.973
82.71,-57.802,-7.412
82.75,-54.362,-6.873
82.78,-50.642,-6.358
82.81,-46.922,-5.9
82.84,-43.413,-5.35
82.88,-39.833,-4.766
82.91,-36.113,-4.216
82.94,-32.919,-3.838
82.97,-32.077,-4.021
83.01,-34.709,-4.261
83.04,-29.585,-3.139
83.07,-19.618,-2.681
83.1,-15.231,-1.913
83.14,-11.371,-0.584
83.17,-8.423,-0.458
83.2,-6.142,-0.195
83.23,-1.018,0.057
83.27,0.772,0.813
83.3,5.299,1.707
83.33,9.897,1.26
83.36,13.301,1.695
83.4,18.039,1.673
83.43,18.987,1.558
83.46,22.812,2.268
83.49,28.708,2.394
83.53,31.305,2.451
83.56,32.217,3.208
83.59,34.358,4.078
83.62,36.639,4.811
83.66,38.921,5.579
83.69,41.096,6.633
83.72,43.307,8.065
83.75,45.483,9.714
83.79,47.589,11.341
83.82,49.73,13.025
83.85,56.047,13.884
83.88,63.101,13.506
83.92,67.979,13.323
83.95,72.893,13.151
83.98,75.735,12.956
84.01,77.245,13.036
84.05,79.877,13.208
84.08,83.211,13.449
84.11,86.79,13.907
84.15,90.125,14.503
84.18,92.897,15.179
84.21,95.634,15.717
84.24,98.442,16.106
84.28,101.566,16.496
84.31,105.11,17.034
84.34,108.62,17.619
84.37,111.778,18.134
84.41,114.691,18.569
84.44,117.639,18.993
84.47,120.482,19.452
84.5,123.465,19.921
84.54,126.834,20.391
84.57,130.238,20.792
84.6,133.221,21.33
84.63,136.906,22.029
84.67,139.574,22.407
84.7,142.206,22.98
84.73,146.277,23.346
84.76,148.663,23.724
84.8,151.471,24.389
84.83,154.7,24.687
84.86,157.086,25.088
84.89,160.526,25.534
84.93,162.596,25.844
84.96,164.421,26.371
84.99,167.369,26.634
85.02,169.58,26.806
85.06,171.861,27.218
85.09,174.739,27.688
85.12,177.512,28.215
85.15,180.389,28.708
85.19,182.916,29.097
85.22,184.741,29.429
85.25,186.707,29.784
85.28,189.093,30.071
85.32,191.901,30.392
85.35,194.638,30.793
85.38,197.06,31.297
85.41,199.306,31.778
85.45,201.517,32.133
85.48,203.412,32.316
85.51,205.307,32.602
85.54,207.588,32.958
85.58,209.764,33.324
85.61,211.975,33.656
85.64,213.87,33.931
85.67,215.59,34.286
85.71,217.345,34.573
85.74,218.433,34.733
85.77,220.082,34.928
85.8,222.223,35.077
85.84,223.381,35.34
85.87,225.171,35.753
85.9,226.855,35.948
85.93,228.821,36.348
85.97,231.137,36.6
86.0,232.05,36.979
86.03,233.629,37.265
86.06,234.787,37.379
86.1,237.068,37.723
86.13,239.069,37.872
86.16,239.946,38.262
86.19,241.736,38.594
86.23,243.631,38.743
86.26,244.754,38.914
86.29,246.158,39.189
86.33,247.878,39.476
86.36,249.808,39.808
86.39,251.668,40.083
86.42,253.247,40.369
86.46,254.651,40.679
86.49,256.335,40.965
86.52,257.669,41.137
86.55,258.722,41.251
86.59,259.634,41.332
86.62,260.687,41.515
86.65,262.161,41.721
86.68,263.705,41.927
86.72,265.039,42.134
86.75,266.162,42.374
86.78,266.934,42.569
86.81,267.847,42.718
86.85,268.97,42.764
86.88,270.093,42.89
86.91,271.111,43.084
86.94,272.304,43.336
86.98,273.462,43.508
87.01,274.304,43.611
87.04,274.936,43.714
87.07,275.638,43.817
87.11,276.059,43.829
87.14,276.55,43.863
87.17,277.357,43.898
87.2,278.094,44.024
87.24,278.691,44.138
87.27,279.007,44.241
87.3,279.533,44.264
87.33,279.884,44.241
87.37,279.814,44.207
87.4,279.709,44.184
87.43,280.235,44.218
87.46,280.797,44.195
87.5,280.902,44.253
87.53,280.937,44.299
87.56,280.972,44.299
87.59,281.042,44.241
87.63,280.762,44.115
87.66,280.411,44.035
87.69,280.902,44.092
87.72,281.183,44.035
87.76,279.955,43.921
87.79,279.533,43.817
87.82,279.112,43.554
87.85,277.884,43.336
87.89,276.41,43.038
87.92,275.392,42.752
87.95,274.866,42.534
87.98,273.778,42.374
88.02,272.269,42.248
88.05,271.181,42.019
88.08,269.707,41.629
88.11,268.057,41.355
88.15,266.759,41.103
88.18,265.53,40.896
88.21,264.478,40.69
88.24,263.354,40.472
88.28,262.231,40.335
88.31,261.214,40.186
88.34,259.775,39.957
88.38,258.16,39.659
88.41,257.002,39.361
88.44,255.704,39.109
88.47,254.265,38.903
88.51,252.791,38.64
88.54,251.492,38.353
88.57,250.018,38.055
88.6,247.878,37.757
88.64,245.912,37.46
88.67,244.333,37.07
88.7,242.859,36.726
88.73,240.964,36.348
88.77,238.893,36.142
88.8,237.595,35.902
88.83,235.77,35.512
88.86,233.453,35.157
88.9,230.927,34.745
88.93,229.453,34.55
88.96,228.294,34.206
88.99,226.505,34.012
89.03,224.96,33.714
89.06,222.89,33.485
89.09,221.521,33.301
89.12,220.047,32.946
89.16,218.047,32.602
89.19,216.292,32.282
89.22,214.362,31.95
89.25,212.361,31.663
89.29,210.922,31.342
89.32,209.378,30.999
89.35,206.851,30.678
89.38,204.219,30.357
89.42,202.078,29.956
89.45,200.288,29.487
89.48,198.183,29.12
89.51,196.182,28.857
89.55,194.077,28.582
89.58,191.971,28.272
89.61,189.9,27.826
89.64,187.233,27.425
89.68,184.741,27.047
89.71,182.32,26.634
89.74,180.003,26.176
89.77,177.863,25.718
89.81,175.371,25.385
89.84,172.739,25.076
89.87,170.071,24.698
89.9,167.58,24.228
89.94,164.877,23.702
89.97,161.719,23.232
90.0,158.911,22.877
90.03,156.876,22.51
90.07,154.63,22.063
90.1,151.892,21.708
90.13,148.839,21.307
90.16,145.75,20.906
90.2,142.838,20.357
90.23,140.135,19.841
90.26,137.363,19.314
90.29,133.888,18.89
90.33,130.975,18.535
90.36,128.413,18.02
90.39,125.36,17.527
90.42,122.833,17.218
90.46,119.955,16.737
90.49,115.99,16.301
90.52,113.708,15.923
90.56,111.603,15.35
90.59,108.339,15.03
90.62,105.426,14.697
90.65,102.162,14.148
90.69,98.126,13.483
90.72,94.09,12.784
90.75,90.16,12.109
90.78,86.369,11.524
90.82,82.895,10.929
90.85,79.21,10.31
90.88,75.42,9.817
90.91,71.7,9.348
90.95,68.12,8.878
90.98,64.786,8.374
91.01,61.697,7.87
91.04,58.293,7.446
91.08,55.029,7.068
91.11,51.836,6.621
91.14,48.572,6.094
91.17,44.957,5.522
91.21,41.377,5.075
91.24,37.868,4.559
91.27,34.814,4.135
91.3,34.639,4.296
91.34,37.131,4.456
91.37,30.603,3.46
91.4,20.039,2.944
91.43,15.933,1.764
91.47,11.652,0.252
91.5,8.142,0.378
91.53,4.808,0.298
91.56,0.351,-0.195
91.6,-1.614,-1.363
91.63,-7.124,-1.558
91.66,-9.511,-1.294
91.69,-13.617,-2.005
91.73,-16.705,-1.317
91.76,-17.372,-1.443
91.79,-23.303,-2.314
91.82,-29.129,-2.497
91.86,-30.919,-2.933
91.89,-32.779,-3.654
91.92,-35.236,-4.09
91.95,-36.639,-4.731
91.99,-38.148,-5.865
92.02,-40.675,-7.137
92.05,-43.553,-8.385
92.08,-46.045,-9.691
92.12,-47.098,-11.375
92.15,-50.256,-13.208
92.18,-57.977,-13.426
92.21,-63.242,-12.956
92.25,-67.734,-12.91
92.28,-72.226,-12.807
92.31,-74.753,-12.807
92.34,-76.929,-12.956
92.38,-79.842,-13.105
92.41,-83.07,-13.495
92.44,-86.545,-14.09
92.47,-89.949,-14.709
92.51,-92.932,-15.213
92.54,-95.564,-15.671
92.57,-98.442,-16.164
92.61,-101.917,-16.702
92.64,-105.566,-17.218
92.67,-109.041,-17.71
92.7,-112.34,-18.214
92.74,-115.112,-18.695
92.77,-117.744,-19.188
92.8,-120.798,-19.566
92.83,-123.921,-19.898
92.87,-127.045,-20.379
92.9,-130.344,-20.952
92.93,-133.607,-21.525
92.96,-136.731,-21.995
93.0,-139.328,-22.338
93.03,-142.101,-22.877
93.06,-145.47,-23.369
93.09,-148.628,-23.816
93.13,-151.401,-24.228
93.16,-154.524,-24.71
93.19,-157.683,-25.179
93.22,-159.824,-25.638
93.26,-162.666,-26.107
93.29,-165.228,-26.29
93.32,-167.264,-26.634
93.35,-169.826,-27.024
93.39,-172.423,-27.402
93.42,-175.266,-27.848
93.45,-178.073,-28.261
93.48,-180.565,-28.788
93.52,-183.092,-29.315
93.55,-185.724,-29.704
93.58,-188.321,-29.979
93.61,-190.602,-30.277
93.65,-192.638,-30.667
93.68,-195.024,-31.079
93.71,-197.481,-31.411
93.74,-199.481,-31.663
93.78,-201.201,-31.927
93.81,-202.78,-32.213
93.84,-204.465,-32.476
93.87,-206.535,-32.728
93.91,-208.676,-32.969
93.94,-210.501,-33.347
93.97,-212.396,-33.771
94.0,-214.502,-34.149
94.04,-216.432,-34.458
94.07,-218.222,-34.687
94.1,-219.696,-34.974
94.13,-221.591,-35.295
94.17,-223.592,-35.547
94.2,-225.381,-35.799
94.23,-227.136,-36.062
94.26,-228.751,-36.406
94.3,-230.54,-36.761
94.33,-232.471,-37.059
94.36,-234.19,-37.288
94.39,-235.664,-37.563
94.43,-237.209,-37.838
94.46,-238.823,-38.113
94.49,-240.578,-38.342
94.52,-242.368,-38.571
94.56,-243.877,-38.846
94.59,-245.105,-39.121
94.62,-246.368,-39.315
94.66,-248.088,-39.487
94.69,-249.773,-39.716
94.72,-251.317,-40.037
94.75,-252.756,-40.358
94.79,-254.265,-40.621
94.82,-255.704,-40.793
94.85,-257.002,-40.999
94.88,-258.09,-41.183
94.92,-259.038,-41.332
94.95,-260.056,-41.458
94.98,-261.565,-41.595
95.01,-263.109,-41.859
95.05,-264.618,-42.191
95.08,-265.671,-42.42
95.11,-266.689,-42.58
95.14,-267.706,-42.638
95.18,-268.513,-42.798
95.21,-269.566,-42.947
95.24,-270.83,-43.119
95.27,-272.234,-43.268
95.31,-273.286,-43.462
95.34,-274.059,-43.657
95.37,-274.655,-43.806
95.4,-275.497,-43.84
95.44,-276.059,-43.817
95.47,-276.41,-43.863
95.5,-277.077,-43.932
95.53,-277.568,-43.989
95.57,-278.059,-44.069
95.6,-278.586,-44.092
95.63,-279.042,-44.195
95.66,-279.533,-44.264
95.7,-279.674,-44.299
95.73,-279.779,-44.23
95.76,-280.095,-44.264
95.79,-280.551,-44.264
95.83,-280.586,-44.322
95.86,-280.516,-44.241
95.89,-280.797,-44.299
95.92,-281.113,-44.173
95.96,-279.568,-44.001
95.99,-279.463,-44.035
96.02,-280.376,-43.886
96.05,-280.06,-43.863
96.09,-279.428,-43.863
96.12,-279.112,-43.783
96.15,-278.41,-43.6
96.18,-277.393,-43.336
96.22,-276.27,-43.038
96.25,-275.392,-42.844
96.28,-274.796,-42.718
96.31,-274.234,-42.592
96.35,-273.111,-42.374
96.38,-271.602,-42.122
96.41,-269.847,-41.824
96.44,-268.198,-41.515
96.48,-266.899,-41.171
96.51,-265.881,-40.896
96.54,-264.758,-40.713
96.57,-263.39,-40.553
96.61,-262.091,-40.415
96.64,-261.108,-40.175
96.67,-259.494,-39.854
96.7,-257.634,-39.579
96.74,-256.125,-39.27
96.77,-254.686,-38.983
96.8,-253.493,-38.708
96.84,-251.984,-38.41
96.87,-250.334,-38.273
96.9,-248.895,-38.044
96.93,-247.07,-37.7
96.97,-245.316,-37.334
97.0,-243.561,-36.967
97.03,-241.736,-36.669
97.06,-240.367,-36.452
97.1,-238.963,-36.142
97.13,-237.279,-35.902
97.16,-235.664,-35.627
97.19,-233.348,-35.306
97.23,-231.664,-35.077
97.26,-230.576,-34.687
97.29,-228.961,-34.412
97.32,-226.575,-34.092
97.36,-224.329,-33.874
97.39,-223.557,-33.599
97.42,-221.872,-33.141
97.45,-219.38,-32.866
97.49,-217.274,-32.534
97.52,-215.379,-32.179
97.55,-213.554,-31.812
97.58,-211.975,-31.491
97.62,-210.08,-31.205
97.65,-208.044,-31.022
97.68,-206.325,-30.758
97.71,-204.149,-30.323
97.75,-201.797,-29.91
97.78,-199.727,-29.544
97.81,-197.691,-29.223
97.84,-196.007,-28.948
97.88,-194.217,-28.57
97.91,-192.041,-28.238
97.94,-189.514,-27.883
97.97,-186.882,-27.562
98.01,-184.882,-27.127
98.04,-182.495,-26.554
98.07,-179.828,-26.142
98.1,-177.582,-25.844
98.14,-175.546,-25.546
98.17,-173.055,-25.145
98.2,-170.177,-24.675
98.23,-167.194,-24.217
98.27,-164.526,-23.839
98.3,-161.894,-23.335
98.33,-159.122,-22.865
98.36,-156.911,-22.476
98.4,-154.349,-22.086
98.43,-151.295,-21.777
98.46,-148.874,-21.41
98.49,-146.242,-20.872
98.53,-143.118,-20.414
98.56,-140.135,-20.001
98.59,-137.363,-19.566
98.62,-134.38,-19.028
98.66,-131.467,-18.524
98.69,-128.413,-18.02
98.72,-124.974,-17.584
98.75,-121.956,-17.183
98.79,-119.499,-16.702
98.82,-116.621,-16.198
98.85,-113.498,-15.866
98.89,-111.041,-15.58
98.92,-108.444,-15.144
98.95,-105.356,-14.709
98.98,-102.373,-14.159
99.02,-98.267,-13.552
99.05,-94.02,-12.956
99.08,-89.914,-12.177
99.11,-86.194,-11.467
99.15,-82.684,-10.803
99.18,-78.719,-10.333
99.21,-75.314,-9.921
99.24,-71.98,-9.394
99.28,-68.19,-8.844
99.31,-64.435,-8.385
99.34,-61.101,-7.939
99.37,-57.661,-7.446
99.41,-54.257,-6.908
99.44,-50.818,-6.369
99.47,-47.238,-5.9
99.5,-43.588,-5.43
99.54,-40.395,-4.949
99.57,-37.166,-4.41
99.6,-33.867,-3.975
99.63,-32.112,-3.998
99.67,-34.499,-4.41
99.7,-31.866,-3.574
99.73,-21.373,-2.795
99.76,-15.688,-2.131
99.8,-11.336,-0.573
99.83,-7.089,-0.424
99.86,-4.878,-0.355
99.89,-0.772,0.08
99.93,1.053,0.997
99.96,5.896,1.615
99.99,9.721,1.363
100.02,14.354,1.879
100.06,19.618,1.558
100.09,19.443,1.34
100.12,22.04,2.257
100.15,28.322,2.612
100.19,31.621,2.543
100.22,32.533,3.07
100.25,34.148,3.895
100.28,36.008,4.777
100.32,38.499,5.682
100.35,41.447,6.667
100.38,43.904,7.893
100.41,45.589,9.565
100.45,47.028,11.364
100.48,49.379,13.094
100.51,56.223,13.758
100.54,62.856,13.311
100.58,67.593,13.243
100.61,72.577,13.082
100.64,75.279,12.853
100.67,76.859,12.899
100.71,79.526,13.105
100.74,82.895,13.449
100.77,86.44,13.918
100.8,89.879,14.468
100.84,92.722,15.098
100.87,95.389,15.683
100.9,98.372,16.187
100.93,101.952,16.622
100.97,105.707,17.103
101.0,108.936,17.676
101.03,111.884,18.26
101.07,114.972,18.673
101.1,117.92,19.039
101.13,120.973,19.474
101.16,124.307,20.036
101.2,127.466,20.505
101.23,130.344,20.987
101.26,133.748,21.433
101.29,136.836,21.892
101.33,139.539,22.441
101.36,142.557,22.945
101.39,146.101,23.392
101.42,149.049,23.747
101.46,151.717,24.309
101.49,154.559,24.71
101.52,156.876,25.145
101.55,160.455,25.58
101.59,162.701,25.741
101.62,164.07,26.233
101.65,167.018,26.634
101.68,169.58,26.829
101.72,171.931,27.23
101.75,174.844,27.677
101.78,177.477,28.226
101.81,180.284,28.799
101.85,183.197,29.212
101.88,185.513,29.555
101.91,187.689,29.922
101.94,190.005,30.288
101.98,192.708,30.689
102.01,195.41,30.987
102.04,197.446,31.331
102.07,199.516,31.755
102.11,201.622,32.087
102.14,203.307,32.282
102.17,205.061,32.499
102.2,207.202,32.763
102.24,209.062,33.118
102.27,211.098,33.519
102.3,212.817,33.759
102.33,214.642,34.092
102.37,216.818,34.401
102.4,218.468,34.768
102.43,220.679,35.157
102.46,222.96,35.409
102.5,225.101,35.776
102.53,227.206,36.188
102.56,229.102,36.566
102.59,231.067,36.864
102.63,233.067,37.139
102.66,235.208,37.46
102.69,237.244,37.861
102.72,239.244,38.239
102.76,241.28,38.536
102.79,243.42,38.823
102.82,245.351,39.144
102.85,247.176,39.51
102.89,249.071,39.808
102.92,250.861,40.026
102.95,252.721,40.301
102.98,254.475,40.576
103.02,255.984,40.885
103.05,257.634,41.125
103.08,258.582,41.194
103.12,259.459,41.343
103.15,260.652,41.423
103.18,261.319,41.561
103.21,262.337,41.618
103.25,262.863,41.652
103.28,264.091,41.87
103.31,265.495,42.099
103.34,266.689,42.42
103.38,268.127,42.626
103.41,269.18,42.821
103.44,269.882,42.981
103.47,270.444,43.096
103.51,271.321,43.142
103.54,272.479,43.21
103.57,273.637,43.382
103.6,274.655,43.6
103.64,275.533,43.806
103.67,276.129,43.886
103.7,276.55,43.898
103.73,276.936,43.886
103.77,277.322,43.909
103.8,277.989,43.989
103.83,278.902,44.115
103.86,279.814,44.23
103.9,280.235,44.39
103.93,280.376,44.425
103.96,280.376,44.413
103.99,280.586,44.299
104.03,280.586,44.207
104.06,280.867,44.23
104.09,281.429,44.322
104.12,282.06,44.425
104.16,282.201,44.47
104.19,282.201,44.482
104.22,282.13,44.459
104.25,281.99,44.379
104.29,281.674,44.218
104.32,281.534,44.115
104.35,281.499,44.047
104.38,281.429,44.024
104.42,280.551,43.875
104.45,279.323,43.623
104.48,278.375,43.348
104.51,277.533,43.107
104.55,276.55,42.901
104.58,275.708,42.775
104.61,275.252,42.626
104.64,274.374,42.454
104.68,272.795,42.294
104.71,271.216,42.007
104.74,269.601,41.629
104.77,268.198,41.24
104.81,266.724,40.942
104.84,265.636,40.793
104.87,264.688,40.656
104.9,263.53,40.472
104.94,262.196,40.266
104.97,260.828,40.003
105.0,259.003,39.716
105.03,257.458,39.35
105.07,250.755,37.769
105.1,239.42,36.142
105.13,234.927,34.836
105.17,232.33,33.427
105.2,229.066,33.244
105.23,227.242,33.152
105.26,223.627,33.129
105.3,223.065,33.759
105.33,226.224,34.241
105.36,227.557,34.836
105.39,228.68,35.535
105.43,230.54,35.959
105.46,231.979,36.28
105.49,232.576,36.245
105.52,231.839,35.936
105.56,230.962,35.489
105.59,230.716,35.203
105.62,230.365,34.917
105.65,228.821,34.63
105.69,227.452,34.309
105.72,225.662,33.863
105.75,223.662,33.588
105.78,221.661,33.141
105.82,219.345,32.74
105.85,217.731,32.316
105.88,215.765,31.915
105.91,213.344,31.652
105.95,211.449,31.365
105.98,209.659,30.999
106.01,207.693,30.667
106.04,205.132,30.266
106.08,202.464,30.002
106.11,201.06,29.67
106.14,199.551,29.303
106.17,197.586,29.028
106.21,195.48,28.776
106.24,193.34,28.49
106.27,191.164,28.089
106.3,188.847,27.608
106.34,186.145,27.173
106.37,183.583,26.772
106.4,181.267,26.371
106.43,179.056,25.912
106.47,176.599,25.466
106.5,173.792,25.088
106.53,170.844,24.721
106.56,168.141,24.297
106.6,165.579,23.805
106.63,162.982,23.323
106.66,160.21,22.957
106.69,157.578,22.613
106.73,154.875,22.178
106.76,152.243,21.72
106.79,149.541,21.261
106.82,146.277,20.792
106.86,142.908,20.357
106.89,140.03,19.818
106.92,137.222,19.222
106.95,134.064,18.799
106.99,131.151,18.455
107.02,128.484,18.065
107.05,125.606,17.607
107.08,122.623,17.149
107.12,119.64,16.714
107.15,116.446,16.29
107.18,113.498,15.854
107.21,110.796,15.339
107.25,107.497,14.766
107.28,103.531,14.251
107.31,99.951,13.747
107.35,96.477,13.082
107.38,92.581,12.418
107.41,88.896,11.845
107.44,85.176,11.341
107.48,81.842,10.894
107.51,78.683,10.367
107.54,75.244,9.875
107.57,71.875,9.428
107.61,68.436,9.004
107.64,65.031,8.557
107.67,62.083,8.065
107.7,59.03,7.549
107.74,55.696,7.148
107.77,52.538,6.77
107.8,49.59,6.301
107.83,46.185,5.762
107.87,42.746,5.224
107.9,38.78,4.697
107.93,36.113,4.433
107.96,37.411,4.766
108.0,38.921,4.536
108.03,29.164,3.379
108.06,19.337,2.852
108.09,14.845,1.329
108.13,10.564,0.355
108.16,8.914,0.573
108.19,6.422,0.183
108.22,1.193,-0.046
108.26,-0.491,-0.71
108.29,-4.527,-1.673
108.32,-9.055,-1.283
108.35,-11.476,-1.615
108.39,-14.073,-1.455
108.42,-16.389,-1.707
108.45,-23.128,-2.291
108.48,-28.954,-2.291
108.52,-30.673,-2.704
108.55,-32.498,-3.62
108.58,-35.341,-4.204
108.61,-37.236,-4.823
108.65,-38.675,-5.716
108.68,-40.57,-7.034
108.71,-43.097,-8.431
108.74,-45.097,-9.737
108.78,-46.747,-11.364
108.81,-50.783,-12.853
108.84,-57.767,-12.991
108.87,-62.61,-12.681
108.91,-67.313,-12.67
108.94,-71.559,-12.498
108.97,-73.454,-12.555
109.0,-75.665,-12.807
109.04,-79.034,-12.991
109.07,-82.263,-13.323
109.1,-85.667,-13.93
109.13,-89.107,-14.606
109.17,-92.16,-15.179
109.2,-94.897,-15.648
109.23,-98.056,-16.072
109.26,-101.425,-16.588
109.3,-105.04,-17.183
109.33,-108.76,-17.733
109.36,-112.199,-18.237
109.4,-115.393,-18.73
109.43,-117.569,-19.131
109.46,-120.728,-19.738
109.49,-124.553,-19.99
109.53,-126.729,-20.334
109.56,-129.993,-20.929
109.59,-133.292,-21.342
109.62,-135.959,-21.903
109.66,-138.977,-22.304
109.69,-141.188,-22.533
109.72,-143.364,-23.014
109.75,-146.733,-23.438
109.79,-149.857,-23.896
109.82,-153.015,-24.377
109.85,-155.788,-24.836
109.88,-158.385,-25.385
109.92,-160.912,-25.821
109.95,-163.895,-26.268
109.98,-167.018,-26.6
110.01,-169.475,-27.001
110.05,-171.896,-27.47
110.08,-174.879,-27.986
110.11,-178.143,-28.398
110.14,-180.916,-28.834
110.18,-183.337,-29.326
110.21,-185.724,-29.75
110.24,-188.11,-30.014
110.27,-190.321,-30.266
110.31,-192.708,-30.598
110.34,-195.129,-30.987
110.37,-197.27,-31.388
110.4,-199.165,-31.697
110.44,-201.166,-31.927
110.47,-203.026,-32.19
110.5,-204.465,-32.454
110.53,-206.255,-32.774
110.57,-208.501,-33.026
110.6,-210.466,-33.313
110.63,-212.396,-33.714
110.66,-214.397,-34.126
110.7,-216.187,-34.481
110.73,-218.257,-34.756
110.76,-220.047,-34.962
110.79,-221.626,-35.283
110.83,-223.627,-35.615
110.86,-225.241,-35.821
110.89,-227.136,-36.131
110.92,-229.242,-36.417
110.96,-230.576,-36.715
110.99,-232.014,-37.047
111.02,-233.839,-37.253
111.05,-235.664,-37.517
111.09,-237.595,-37.838
111.12,-239.104,-38.136
111.15,-240.472,-38.445
111.18,-242.508,-38.685
111.22,-244.193,-38.834
111.25,-245.105,-39.098
111.28,-246.404,-39.327
111.31,-247.983,-39.51
111.35,-249.597,-39.693
111.38,-251.036,-39.957
111.41,-252.615,-40.289
111.44,-254.195,-40.587
111.48,-255.458,-40.793
111.51,-256.651,-40.976
111.54,-258.02,-41.171
111.58,-258.968,-41.32
111.61,-259.845,-41.492
111.64,-261.319,-41.629
111.67,-262.828,-41.813
111.71,-264.337,-42.111
111.74,-265.355,-42.363
111.77,-266.267,-42.58
111.8,-267.355,-42.638
111.84,-268.303,-42.729
111.87,-269.321,-42.901
111.9,-270.619,-43.153
111.93,-272.023,-43.348
111.97,-273.322,-43.531
112.0,-274.059,-43.657
112.03,-274.796,-43.84
112.06,-275.392,-43.875
112.1,-275.919,-43.875
112.13,-276.515,-43.863
112.16,-277.393,-44.012
112.19,-278.27,-44.115
112.23,-278.831,-44.31
112.26,-279.288,-44.31
112.29,-279.744,-44.413
112.32,-279.744,-44.253
112.36,-279.463,-44.344
112.39,-280.2,-44.23
112.42,-280.586,-44.344
112.45,-281.358,-44.367
112.49,-280.692,-44.39
112.52,-281.007,-44.436
112.55,-281.393,-44.402
112.58,-281.639,-44.344
112.62,-280.165,-44.115
112.65,-280.06,-44.15
112.68,-280.832,-44.012
112.71,-280.586,-44.001
112.75,-279.779,-43.898
112.78,-278.867,-43.737
112.81,-278.165,-43.543
112.84,-277.638,-43.359
112.88,-276.831,-43.119
112.91,-275.778,-42.935
112.94,-274.936,-42.786
112.97,-273.953,-42.603
113.01,-273.041,-42.454
113.04,-272.198,-42.214
113.07,-270.584,-41.927
113.1,-269.005,-41.71
113.14,-267.636,-41.4
113.17,-266.338,-41.103
113.2,-265.355,-40.873
113.23,-264.232,-40.656
113.27,-262.758,-40.507
113.3,-261.494,-40.324
113.33,-259.95,-39.968
113.36,-258.09,-39.648
113.4,-256.511,-39.293
113.43,-254.932,-39.029
113.46,-253.598,-38.777
113.49,-252.089,-38.456
113.53,-250.475,-38.25
113.56,-248.965,-37.998
113.59,-246.684,-37.643
113.63,-244.754,-37.334
113.66,-243.491,-36.91
113.69,-241.525,-36.566
113.72,-239.7,-36.348
113.76,-238.191,-36.096
113.79,-236.963,-35.879
113.82,-235.805,-35.661
113.85,-233.664,-35.329
113.89,-231.207,-35.123
113.92,-230.154,-34.768
113.95,-228.294,-34.309
113.98,-225.943,-33.966
114.02,-223.837,-33.645
114.05,-222.609,-33.45
114.08,-221.135,-33.107
114.11,-218.959,-32.797
114.15,-216.959,-32.488
114.18,-215.099,-32.167
114.21,-213.344,-31.927
114.24,-212.151,-31.663
114.28,-210.641,-31.342
114.31,-208.711,-31.159
114.34,-206.711,-30.884
114.37,-204.254,-30.472
114.41,-201.938,-30.002
114.44,-200.253,-29.555
114.47,-198.148,-29.223
114.5,-196.042,-29.005
114.54,-194.322,-28.696
114.57,-192.357,-28.307
114.6,-189.97,-27.917
114.63,-187.233,-27.596
114.67,-184.987,-27.218
114.7,-182.635,-26.68
114.73,-180.179,-26.187
114.76,-177.933,-25.821
114.8,-175.511,-25.534
114.83,-172.879,-25.191
114.86,-170.247,-24.721
114.89,-167.369,-24.217
114.93,-164.667,-23.816
114.96,-162.035,-23.392
114.99,-159.157,-22.957
115.02,-156.946,-22.556
115.06,-154.805,-22.132
115.09,-151.682,-21.766
115.12,-148.593,-21.433
115.15,-145.996,-20.941
115.19,-142.978,-20.345
115.22,-140.1,-19.933
115.25,-137.503,-19.497
115.28,-134.344,-19.108
115.32,-131.958,-18.695
115.35,-129.115,-18.134
115.38,-126.062,-17.836
115.41,-123.395,-17.412
115.45,-120.061,-16.954
115.48,-117.183,-16.462
115.51,-114.516,-15.935
115.54,-111.778,-15.602
115.58,-109.041,-15.236
115.61,-105.742,-14.743
115.64,-102.338,-14.193
115.68,-98.337,-13.472
115.71,-93.915,-12.842
115.74,-89.914,-12.177
115.77,-86.194,-11.49
115.81,-82.719,-10.837
115.84,-78.859,-10.299
115.87,-75.244,-9.898
115.9,-71.629,-9.394
115.94,-67.734,-8.821
115.97,-64.189,-8.328
116.0,-61.171,-7.87
116.03,-57.907,-7.469
116.07,-54.643,-7.057
116.1,-51.414,-6.564
116.13,-47.94,-6.014
116.16,-44.08,-5.51
116.2,-40.219,-4.972
116.23,-36.499,-4.376
116.26,-33.411,-3.872
116.29,-33.06,-4.044
116.33,-34.92,-4.158
116.36,-28.111,-3.15
116.39,-18.565,-2.692
116.42,-15.126,-1.524
116.46,-10.985,-0.229
116.49,-7.616,-0.607
116.52,-5.475,-0.344
116.55,-0.737,0.195
116.59,0.983,1.008
