Trigger_Date,2023/07/06
Trigger_Time,T 13:53:27.158 PDT
Samples_Per_Cycle,512
Microseconds_Per_Sample,32.555
Time (ms),Voltage (V),Current (A)
-16.67,0.772,0.653
-16.64,4.808,1.489
-16.6,9.23,1.294
-16.57,11.792,1.695
-16.54,17.969,2.016
-16.51,20.882,1.34
-16.47,19.373,1.42
-16.44,22.847,2.52
-16.41,29.515,2.749
-16.38,32.147,2.807
-16.34,32.849,3.505
-16.31,34.218,4.422
-16.28,36.359,5.327
-16.24,38.815,6.094
-16.21,40.43,7.091
-16.18,42.535,8.672
-16.15,45.694,10.39
-16.11,50.537,11.559
-16.08,56.468,11.639
-16.05,60.469,11.513
-16.02,64.821,11.559
-15.98,69.067,11.49
-15.95,71.664,11.639
-15.92,74.156,12.028
-15.89,77.385,12.452
-15.85,80.719,12.842
-15.82,83.878,13.334
-15.79,87.282,13.953
-15.76,90.686,14.56
-15.72,93.95,15.075
-15.69,96.933,15.465
-15.66,99.776,15.9
-15.63,102.934,16.427
-15.59,106.549,16.874
-15.56,109.953,17.298
-15.53,113.217,17.859
-15.5,116.341,18.398
-15.46,119.569,18.959
-15.43,123.395,19.44
-15.4,126.729,19.875
-15.37,129.326,20.448
-15.33,133.397,21.113
-15.3,137.433,21.502
-15.27,139.784,21.937
-15.24,141.995,22.441
-15.2,145.364,22.877
-15.17,148.453,23.117
-15.14,150.769,23.495
-15.11,153.647,23.942
-15.07,156.7,24.458
-15.04,159.578,24.881
-15.01,162.21,25.305
-14.98,164.912,25.752
-14.94,167.685,26.29
-14.91,170.633,26.691
-14.88,173.23,27.024
-14.85,175.967,27.459
-14.81,178.775,27.963
-14.78,181.407,28.433
-14.75,184.074,28.834
-14.71,186.636,29.131
-14.68,188.637,29.521
-14.65,190.848,29.865
-14.62,193.199,30.151
-14.58,195.691,30.472
-14.55,197.867,30.873
-14.52,199.973,31.308
-14.49,202.464,31.697
-14.45,204.781,31.938
-14.42,206.184,32.27
-14.39,208.43,32.706
-14.36,211.028,32.992
-14.32,213.203,33.347
-14.29,215.169,33.702
-14.26,216.959,34.126
-14.23,219.521,34.55
-14.19,221.591,34.71
-14.16,222.609,34.951
-14.13,224.68,35.34
-14.1,226.75,35.535
-14.06,228.4,35.867
-14.03,230.47,36.131
-14.0,232.155,36.52
-13.97,234.436,36.921
-13.93,235.735,37.093
-13.9,237.033,37.391
-13.87,238.753,37.551
-13.84,240.402,37.906
-13.8,242.683,38.227
-13.77,244.298,38.433
-13.74,245.702,38.8
-13.71,247.491,39.121
-13.67,248.755,39.304
-13.64,249.878,39.43
-13.61,251.457,39.636
-13.58,253.107,39.888
-13.54,254.405,40.163
-13.51,255.914,40.415
-13.48,257.353,40.644
-13.45,258.617,40.896
-13.41,259.319,41.034
-13.38,260.196,41.16
-13.35,261.389,41.206
-13.31,262.547,41.423
-13.28,263.846,41.664
-13.25,265.285,41.939
-13.22,266.689,42.134
-13.18,267.952,42.42
-13.15,269.005,42.66
-13.12,269.952,42.821
-13.09,271.146,42.878
-13.05,272.023,42.993
-13.02,273.111,43.187
-12.99,274.269,43.394
-12.96,275.568,43.531
-12.92,276.375,43.68
-12.89,277.077,43.817
-12.86,277.673,43.898
-12.83,278.27,43.909
-12.79,278.726,43.909
-12.76,279.288,44.001
-12.73,280.095,44.115
-12.7,280.797,44.207
-12.66,280.972,44.23
-12.63,281.148,44.264
-12.6,281.534,44.241
-12.57,281.393,44.184
-12.53,280.902,44.058
-12.5,281.148,44.069
-12.47,281.85,44.058
-12.44,281.674,44.092
-12.4,281.534,44.104
-12.37,281.604,44.058
-12.34,281.358,44.001
-12.31,281.393,43.978
-12.27,280.937,43.795
-12.24,280.446,43.737
-12.21,280.692,43.657
-12.18,280.06,43.554
-12.14,279.393,43.462
-12.11,278.831,43.233
-12.08,277.779,43.038
-12.05,276.971,42.878
-12.01,276.41,42.683
-11.98,276.129,42.626
-11.95,275.848,42.534
-11.92,274.866,42.534
-11.88,274.409,42.42
-11.85,273.637,42.122
-11.82,272.198,41.87
-11.78,271.04,41.664
-11.75,270.198,41.435
-11.72,269.321,41.194
-11.69,268.127,40.931
-11.65,266.689,40.747
-11.62,265.495,40.53
-11.59,264.127,40.198
-11.56,262.512,39.877
-11.52,261.038,39.59
-11.49,259.775,39.35
-11.46,258.441,39.086
-11.43,256.827,38.788
-11.39,255.423,38.582
-11.36,254.335,38.41
-11.33,252.931,38.17
-11.3,251.422,37.849
-11.26,249.878,37.551
-11.23,248.474,37.345
-11.2,246.93,37.047
-11.17,245.035,36.692
-11.13,243.771,36.406
-11.1,242.017,36.051
-11.07,239.7,35.753
-11.04,237.805,35.352
-11.0,236.296,34.997
-10.97,234.612,34.687
-10.94,232.576,34.47
-10.91,230.997,34.172
-10.87,228.996,33.771
-10.84,227.382,33.576
-10.81,225.908,33.313
-10.78,223.802,33.015
-10.74,222.153,32.683
-10.71,220.609,32.316
-10.68,218.468,32.018
-10.65,216.327,31.709
-10.61,214.958,31.377
-10.58,213.028,30.93
-10.55,210.291,30.644
-10.52,208.185,30.323
-10.48,206.149,29.853
-10.45,203.622,29.383
-10.42,201.306,29.063
-10.39,199.341,28.765
-10.35,197.27,28.387
-10.32,194.849,27.963
-10.29,192.111,27.539
-10.25,189.514,27.173
-10.22,187.128,26.737
-10.19,184.601,26.256
-10.16,182.285,25.867
-10.12,180.003,25.523
-10.09,177.301,25.168
-10.06,174.669,24.733
-10.03,171.861,24.263
-9.99,169.019,23.862
-9.96,166.211,23.392
-9.93,163.228,22.877
-9.9,160.42,22.35
-9.86,157.332,21.914
-9.83,154.033,21.479
-9.8,150.453,20.861
-9.77,146.979,20.276
-9.73,144.031,19.772
-9.7,140.627,19.314
-9.67,137.959,19.016
-9.64,135.678,18.489
-9.6,132.414,18.134
-9.57,129.361,17.825
-9.54,126.132,17.344
-9.51,123.676,16.954
-9.47,121.114,16.393
-9.44,116.972,15.9
-9.41,113.182,15.431
-9.38,110.199,14.789
-9.34,106.795,14.125
-9.31,102.864,13.644
-9.28,99.53,13.231
-9.25,96.547,12.693
-9.21,92.581,12.051
-9.18,88.651,11.65
-9.15,85.913,11.249
-9.12,83.246,10.837
-9.08,80.298,10.413
-9.05,77.069,10.035
-9.02,74.016,9.691
-8.99,70.963,9.245
-8.95,67.664,8.683
-8.92,64.294,8.156
-8.89,61.031,7.71
-8.85,57.802,7.24
-8.82,54.538,6.724
-8.79,51.099,6.175
-8.76,47.238,5.682
-8.72,43.518,5.224
-8.69,40.605,4.708
-8.66,36.955,4.09
-8.63,33.937,3.906
-8.59,34.955,4.25
-8.56,37.447,4.491
-8.53,32.954,3.838
-8.5,22.285,2.921
-8.46,14.565,1.627
-8.43,8.072,0.137
-8.4,2.386,-0.057
-8.37,0.211,0.195
-8.33,-0.281,-0.355
-8.3,-3.053,-1.272
-8.27,-7.791,-1.237
-8.24,-10.529,-1.478
-8.2,-15.863,-2.051
-8.17,-19.548,-1.741
-8.14,-20.285,-1.627
-8.11,-24.11,-2.188
-8.07,-29.41,-2.6
-8.04,-31.902,-3.185
-8.01,-33.376,-3.883
-7.98,-35.516,-4.571
-7.94,-37.131,-5.27
-7.91,-37.903,-6.404
-7.88,-39.973,-7.721
-7.85,-43.343,-8.947
-7.81,-46.466,-10.276
-7.78,-51.941,-11.089
-7.75,-57.17,-11.02
-7.72,-60.96,-11.055
-7.68,-64.856,-11.089
-7.65,-67.979,-11.295
-7.62,-70.998,-11.593
-7.59,-73.946,-11.914
-7.55,-77.139,-12.326
-7.52,-80.228,-12.853
-7.49,-83.632,-13.472
-7.46,-87.317,-14.01
-7.42,-90.651,-14.491
-7.39,-93.564,-15.041
-7.36,-96.652,-15.545
-7.32,-99.986,-15.98
-7.29,-103.215,-16.359
-7.26,-106.303,-16.817
-7.23,-109.743,-17.424
-7.19,-113.322,-17.916
-7.16,-116.692,-18.398
-7.13,-119.815,-18.902
-7.1,-122.798,-19.463
-7.06,-126.764,-20.127
-7.03,-130.905,-20.54
-7.0,-133.748,-21.078
-6.97,-137.363,-21.743
-6.93,-140.346,-22.121
-6.9,-142.346,-22.43
-6.87,-144.662,-22.682
-6.84,-148.312,-23.152
-6.8,-151.436,-23.507
-6.77,-153.752,-24.045
-6.74,-157.156,-24.492
-6.71,-159.578,-24.881
-6.67,-162.07,-25.477
-6.64,-165.263,-25.89
-6.61,-168.176,-26.245
-6.58,-170.738,-26.68
-6.54,-173.055,-27.069
-6.51,-175.722,-27.551
-6.48,-179.091,-27.929
-6.45,-181.337,-28.272
-6.41,-183.232,-28.822
-6.38,-186.391,-29.212
-6.35,-188.812,-29.429
-6.32,-190.707,-29.762
-6.28,-192.918,-30.162
-6.25,-195.551,-30.609
-6.22,-198.253,-30.964
-6.19,-200.323,-31.285
-6.15,-202.359,-31.709
-6.12,-204.605,-32.11
-6.09,-206.816,-32.373
-6.06,-208.781,-32.66
-6.02,-210.992,-33.015
-5.99,-212.993,-33.381
-5.96,-215.063,-33.805
-5.92,-217.52,-34.092
-5.89,-219.205,-34.367
-5.86,-220.959,-34.802
-5.83,-223.1,-35.065
-5.79,-224.855,-35.283
-5.76,-226.891,-35.604
-5.73,-228.54,-35.879
-5.7,-229.839,-36.222
-5.66,-232.225,-36.509
-5.63,-234.155,-36.726
-5.6,-235.419,-37.082
-5.57,-237.173,-37.414
-5.53,-238.998,-37.677
-5.5,-240.964,-37.941
-5.47,-242.508,-38.204
-5.44,-243.771,-38.548
-5.4,-245.807,-38.834
-5.37,-247.562,-38.972
-5.34,-248.544,-39.212
-5.31,-249.808,-39.487
-5.27,-251.282,-39.671
-5.24,-252.826,-39.865
-5.21,-254.195,-40.06
-5.18,-255.353,-40.346
-5.14,-256.897,-40.633
-5.11,-258.266,-40.782
-5.08,-259.038,-40.942
-5.05,-259.95,-41.103
-5.01,-260.968,-41.251
-4.98,-262.196,-41.412
-4.95,-263.53,-41.561
-4.92,-264.688,-41.824
-4.88,-266.022,-42.145
-4.85,-267.39,-42.351
-4.82,-268.513,-42.512
-4.79,-269.566,-42.683
-4.75,-270.619,-42.878
-4.72,-271.497,-43.004
-4.69,-272.585,-43.107
-4.66,-273.778,-43.222
-4.62,-274.69,-43.451
-4.59,-275.603,-43.6
-4.56,-276.27,-43.68
-4.53,-277.077,-43.737
-4.49,-277.533,-43.795
-4.46,-277.779,-43.84
-4.43,-278.445,-43.886
-4.39,-279.323,-43.932
-4.36,-279.779,-44.058
-4.33,-280.025,-44.127
-4.3,-280.27,-44.173
-4.26,-280.797,-44.138
-4.23,-280.621,-44.104
-4.2,-280.551,-44.069
-4.17,-280.832,-44.069
-4.13,-281.464,-44.058
-4.1,-281.393,-44.092
-4.07,-281.569,-44.15
-4.04,-281.815,-44.207
-4.0,-282.832,-44.299
-3.97,-282.341,-44.161
-3.94,-281.604,-44.161
-3.91,-281.955,-44.035
-3.87,-281.85,-43.886
-3.84,-280.937,-43.726
-3.81,-280.06,-43.554
-3.78,-279.253,-43.302
-3.74,-278.34,-43.084
-3.71,-277.498,-42.844
-3.68,-276.515,-42.66
-3.65,-275.883,-42.603
-3.61,-275.392,-42.477
-3.58,-274.971,-42.477
-3.55,-276.656,-42.752
-3.52,-277.182,-42.855
-3.48,-276.585,-43.107
-3.45,-277.182,-43.016
-3.42,-276.41,-42.741
-3.39,-275.568,-42.592
-3.35,-274.831,-42.248
-3.32,-273.637,-41.881
-3.29,-272.163,-41.481
-3.26,-269.987,-41.068
-3.22,-267.952,-40.713
-3.19,-266.232,-40.243
-3.16,-264.162,-39.831
-3.13,-262.337,-39.51
-3.09,-260.582,-39.189
-3.06,-258.617,-38.914
-3.03,-256.932,-38.582
-3.0,-254.897,-38.239
-2.96,-252.861,-38.01
-2.93,-251.282,-37.7
-2.9,-249.457,-37.322
-2.86,-247.632,-36.99
-2.83,-245.842,-36.749
-2.8,-244.473,-36.52
-2.77,-242.894,-36.211
-2.73,-240.964,-35.856
-2.7,-238.788,-35.535
-2.67,-237.138,-35.237
-2.64,-235.559,-34.882
-2.6,-233.594,-34.47
-2.57,-230.821,-34.103
-2.54,-229.593,-33.966
-2.51,-228.189,-33.519
-2.47,-225.346,-33.164
-2.44,-223.486,-32.832
-2.41,-221.065,-32.373
-2.38,-218.959,-32.11
-2.34,-217.731,-31.697
-2.31,-215.485,-31.354
-2.28,-214.151,-31.308
-2.25,-212.466,-30.919
-2.21,-209.097,-30.495
-2.18,-207.202,-30.117
-2.15,-205.061,-29.624
-2.12,-202.605,-29.349
-2.08,-200.99,-28.983
-2.05,-199.13,-28.616
-2.02,-196.428,-28.284
-1.99,-193.901,-27.986
-1.95,-191.515,-27.459
-1.92,-188.988,-26.966
-1.89,-186.391,-26.554
-1.86,-183.969,-26.222
-1.82,-181.898,-25.878
-1.79,-180.144,-25.477
-1.76,-177.196,-25.03
-1.73,-173.932,-24.733
-1.69,-171.3,-24.263
-1.66,-168.633,-23.702
-1.63,-165.685,-23.152
-1.6,-162.315,-22.705
-1.56,-159.578,-22.35
-1.53,-157.542,-21.903
-1.5,-154.033,-21.261
-1.46,-149.611,-20.815
-1.43,-146.698,-20.357
-1.4,-144.171,-19.795
-1.37,-139.433,-18.856
-1.33,-130.87,-17.676
-1.3,-124.342,-16.817
-1.27,-121.5,-15.763
-1.24,-118.201,-15.075
-1.2,-116.341,-15.167
-1.17,-115.498,-15.362
-1.14,-112.41,-15.305
-1.11,-107.988,-14.984
-1.07,-104.829,-14.423
-1.04,-101.776,-13.804
-1.01,-99.425,-13.403
-0.98,-97.249,-12.887
-0.94,-94.757,-12.613
-0.91,-92.055,-12.257
-0.88,-88.37,-11.902
-0.85,-85.808,-11.513
-0.81,-83.878,-11.043
-0.78,-81.596,-10.745
-0.75,-79.105,-10.505
-0.72,-76.543,-10.195
-0.68,-74.086,-9.783
-0.65,-70.752,-9.222
-0.62,-66.962,-8.809
-0.59,-64.4,-8.34
-0.55,-61.522,-7.698
-0.52,-57.977,-7.206
-0.49,-54.398,-6.759
-0.46,-50.958,-6.278
-0.42,-47.8,-5.762
-0.39,-44.15,-5.132
-0.36,-39.973,-4.685
-0.33,-36.99,-4.273
-0.29,-34.358,-3.895
-0.26,-35.025,-4.216
-0.23,-38.289,-4.651
-0.2,-34.604,-4.181
-0.16,-23.865,-3.23
-0.13,-15.407,-1.73
-0.1,-8.072,-0.057
-0.07,-1.93,-0.057
-0.03,-0.211,-0.298
0.0,0.526,0.069
0.03,1.544,0.985
0.07,5.65,1.134
0.1,7.545,1.18
0.13,11.827,1.81
0.16,17.723,1.753
0.2,19.373,1.466
0.23,20.882,2.062
0.26,26.813,2.646
0.29,31.586,2.669
0.33,33.095,3.265
0.36,34.744,4.342
0.39,37.727,5.35
0.42,40.149,6.186
0.46,41.307,7.274
0.49,42.255,8.89
0.52,46.255,10.551
0.55,52.643,10.86
0.59,56.609,10.791
0.62,60.504,10.974
0.65,64.54,10.974
0.68,67.628,11.112
0.72,70.19,11.284
0.75,72.507,11.685
0.78,76.051,12.223
0.81,79.982,12.658
0.85,83.07,13.197
0.88,86.089,13.838
0.91,89.423,14.423
0.94,92.827,14.869
0.98,95.74,15.236
1.01,98.723,15.706
1.04,102.162,16.255
1.07,105.952,16.748
1.11,109.357,17.241
1.14,112.726,17.779
1.17,115.674,18.34
1.2,119.359,18.925
1.24,122.833,19.291
1.27,126.097,19.852
1.3,129.326,20.322
1.33,132.344,20.906
1.37,136.275,21.33
1.4,138.942,21.662
1.43,140.942,22.166
1.46,143.996,22.613
1.5,147.47,22.957
1.53,150.102,23.289
1.56,152.734,23.828
1.6,155.998,24.354
1.63,159.192,24.836
1.66,162.14,25.259
1.69,164.456,25.695
1.73,167.369,26.29
1.76,170.528,26.623
1.79,173.055,26.989
1.82,176.143,27.47
1.86,179.056,27.952
1.89,181.302,28.41
1.92,184.039,28.811
1.95,186.601,29.028
1.99,188.531,29.418
2.02,190.813,29.762
2.05,192.989,30.048
2.08,195.551,30.392
2.12,197.691,30.758
2.15,199.797,31.239
2.18,202.534,31.64
2.21,204.675,31.846
2.25,205.904,32.202
2.28,208.325,32.614
2.31,210.852,32.9
2.34,213.028,33.278
2.38,215.028,33.611
2.41,216.748,34.034
2.44,219.345,34.458
2.47,221.521,34.63
2.51,222.539,34.905
2.54,224.89,35.295
2.57,226.926,35.524
2.6,228.645,35.856
2.64,230.646,36.085
2.67,232.12,36.44
2.7,234.12,36.841
2.73,236.086,37.036
2.77,237.419,37.334
2.8,239.7,37.735
2.83,241.525,37.998
2.86,242.964,38.319
2.9,244.649,38.456
2.93,245.667,38.651
2.96,247.421,39.006
3.0,249.036,39.144
3.03,249.983,39.327
3.06,251.492,39.545
3.09,252.826,39.774
3.13,254.23,40.083
3.16,255.984,40.312
3.19,257.248,40.53
3.22,258.582,40.839
3.26,259.775,40.999
3.29,260.406,41.125
3.32,261.459,41.194
3.35,262.477,41.332
3.39,263.916,41.607
3.42,265.39,41.847
3.45,266.934,42.088
3.48,268.198,42.386
3.52,269.145,42.615
3.55,270.023,42.752
3.58,271.251,42.798
3.61,272.093,42.89
3.65,273.111,43.107
3.68,274.269,43.291
3.71,275.533,43.439
3.74,276.41,43.6
3.78,277.147,43.76
3.81,277.744,43.84
3.84,278.41,43.863
3.87,278.867,43.875
3.91,279.463,43.955
3.94,280.305,44.069
3.97,281.078,44.173
4.0,281.358,44.207
4.04,281.639,44.287
4.07,282.025,44.287
4.1,281.885,44.218
4.13,281.253,44.035
4.17,281.183,44.035
4.2,282.446,44.047
4.23,281.604,43.909
4.26,281.007,44.001
4.3,281.815,43.898
4.33,281.604,43.875
4.36,280.867,43.817
4.39,280.235,43.657
4.43,280.376,43.577
4.46,280.411,43.508
4.49,279.428,43.405
4.53,278.867,43.313
4.56,278.375,43.061
4.59,277.498,42.947
4.62,277.007,42.809
4.66,276.199,42.638
4.69,275.954,42.557
4.72,275.708,42.454
4.75,274.831,42.454
4.79,274.62,42.408
4.82,274.129,42.145
4.85,272.69,41.927
4.88,271.426,41.71
4.92,270.479,41.435
4.95,269.601,41.16
4.98,268.549,40.896
5.01,267.145,40.736
5.05,266.127,40.53
5.08,264.653,40.22
5.11,263.144,39.934
5.14,261.74,39.636
5.18,260.231,39.361
5.21,258.827,39.098
5.24,257.388,38.788
5.27,256.02,38.571
5.31,254.721,38.388
5.34,253.282,38.147
5.37,251.878,37.838
5.4,250.439,37.563
5.44,249.071,37.402
5.47,247.562,37.105
5.5,245.631,36.761
5.53,244.122,36.383
5.57,242.157,36.039
5.6,240.578,35.776
5.63,238.507,35.317
5.66,236.682,35.077
5.7,235.419,34.722
5.73,232.962,34.47
5.76,231.348,34.218
5.79,230.084,33.84
5.83,228.014,33.553
5.86,225.873,33.347
5.89,224.188,32.981
5.92,222.223,32.557
5.96,220.363,32.213
5.99,218.573,31.927
6.02,216.643,31.629
6.06,215.063,31.319
6.09,212.993,30.907
6.12,210.255,30.609
6.15,208.22,30.288
6.19,206.43,29.842
6.22,204.044,29.395
6.25,201.622,29.109
6.28,199.692,28.776
6.32,197.481,28.41
6.35,195.27,27.997
6.38,192.567,27.551
6.41,189.725,27.15
6.45,187.233,26.714
6.48,184.952,26.233
6.51,182.6,25.832
6.54,180.144,25.489
6.58,177.477,25.133
6.61,174.879,24.721
6.64,172.177,24.251
6.67,169.229,23.862
6.71,166.422,23.404
6.74,163.438,22.854
6.77,160.526,22.315
6.8,157.472,21.903
6.84,154.384,21.445
6.87,150.734,20.849
6.9,147.084,20.276
6.93,144.206,19.795
6.97,140.977,19.303
7.0,137.959,18.982
7.03,135.608,18.478
7.06,132.414,18.077
7.1,129.221,17.756
7.13,126.132,17.298
7.16,123.676,16.885
7.19,120.763,16.29
7.23,116.481,15.797
7.26,112.691,15.293
7.29,109.602,14.629
7.32,106.268,14.01
7.36,102.478,13.529
7.39,99.109,13.151
7.42,96.336,12.658
7.46,92.511,12.051
7.49,88.686,11.673
7.52,85.913,11.261
7.55,83.211,10.837
7.59,80.368,10.413
7.62,77.35,10.058
7.65,74.332,9.714
7.68,71.243,9.268
7.72,67.874,8.706
7.75,64.33,8.179
7.78,61.066,7.698
7.81,57.732,7.194
7.85,54.433,6.69
7.88,51.169,6.152
7.91,47.484,5.693
7.94,43.939,5.281
7.98,40.746,4.72
8.01,36.885,4.113
8.04,33.937,3.895
8.07,34.288,4.078
8.11,36.218,4.33
8.14,33.025,3.792
8.17,22.812,2.83
8.2,14.529,1.684
8.24,8.072,0.183
8.27,2.176,-0.137
8.3,0.105,0.034
8.33,-0.211,-0.493
8.37,-3.053,-1.157
8.4,-6.668,-1.1
8.43,-9.265,-1.546
8.46,-14.986,-2.005
8.5,-19.197,-1.833
8.53,-21.268,-1.741
8.56,-24.181,-2.028
8.59,-28.322,-2.555
8.63,-31.516,-3.162
8.66,-33.446,-3.792
8.69,-35.411,-4.445
8.72,-37.166,-5.247
8.76,-38.289,-6.369
8.79,-39.973,-7.641
8.82,-43.062,-8.901
8.85,-46.255,-10.253
8.89,-51.73,-11.032
8.92,-57.1,-10.952
8.95,-60.785,-11.02
8.99,-64.821,-11.055
9.02,-67.734,-11.226
9.05,-70.541,-11.536
9.08,-73.595,-11.834
9.12,-76.823,-12.235
9.15,-80.017,-12.807
9.18,-83.492,-13.437
9.21,-87.177,-13.999
9.25,-90.616,-14.491
9.28,-93.494,-15.007
9.31,-96.336,-15.511
9.34,-99.67,-15.923
9.38,-103.11,-16.278
9.41,-106.163,-16.759
9.44,-109.673,-17.39
9.47,-113.463,-17.916
9.51,-116.727,-18.398
9.54,-119.745,-18.902
9.57,-122.798,-19.463
9.6,-126.588,-20.013
9.64,-130.309,-20.437
9.67,-133.257,-20.929
9.7,-136.836,-21.594
9.73,-140.205,-22.018
9.77,-142.241,-22.338
9.8,-144.733,-22.705
9.83,-148.418,-23.152
9.86,-151.26,-23.495
9.9,-153.471,-23.976
9.93,-156.981,-24.412
9.96,-159.648,-24.824
9.99,-162.105,-25.431
10.03,-165.228,-25.867
10.06,-168.176,-26.222
10.09,-170.879,-26.669
10.12,-173.265,-27.069
10.16,-176.003,-27.562
10.19,-179.442,-27.974
10.22,-181.653,-28.295
10.25,-183.618,-28.857
10.29,-186.812,-29.235
10.32,-189.128,-29.441
10.35,-190.988,-29.762
10.39,-193.024,-30.128
10.42,-195.515,-30.54
10.45,-198.288,-30.896
10.48,-200.394,-31.228
10.52,-202.499,-31.663
10.55,-204.675,-32.053
10.58,-206.676,-32.316
10.61,-208.536,-32.568
10.65,-210.712,-32.9
10.68,-212.852,-33.301
10.71,-214.958,-33.691
10.74,-217.274,-34.034
10.78,-219.345,-34.367
10.81,-221.1,-34.756
10.84,-222.96,-35.043
10.87,-224.715,-35.226
10.91,-226.68,-35.501
10.94,-228.435,-35.787
10.97,-230.014,-36.142
11.0,-232.365,-36.486
11.04,-234.331,-36.726
11.07,-235.489,-37.082
11.1,-237.384,-37.437
11.13,-239.209,-37.654
11.17,-241.069,-37.941
11.2,-242.648,-38.17
11.23,-243.771,-38.468
11.26,-245.772,-38.777
11.3,-247.667,-38.914
11.33,-248.895,-39.201
11.36,-250.159,-39.476
11.39,-251.492,-39.693
11.43,-253.142,-39.888
11.46,-254.23,-40.003
11.49,-255.142,-40.266
11.52,-256.897,-40.518
11.56,-258.125,-40.644
11.59,-258.792,-40.816
11.62,-259.705,-40.976
11.65,-260.793,-41.148
11.69,-262.161,-41.32
11.72,-263.425,-41.515
11.75,-264.758,-41.801
11.78,-266.162,-42.122
11.82,-267.531,-42.351
11.85,-268.584,-42.489
11.88,-269.566,-42.626
11.92,-270.514,-42.809
11.95,-271.497,-42.901
11.98,-272.479,-43.016
12.01,-273.813,-43.165
12.05,-274.796,-43.405
12.08,-275.743,-43.577
12.11,-276.34,-43.646
12.14,-277.007,-43.703
12.18,-277.498,-43.737
12.21,-277.814,-43.772
12.24,-278.445,-43.817
12.27,-279.358,-43.886
12.31,-279.814,-44.001
12.34,-280.095,-44.081
12.37,-280.341,-44.127
12.4,-281.007,-44.127
12.44,-280.972,-44.092
12.47,-280.867,-44.069
12.5,-281.113,-44.081
12.53,-281.744,-44.058
12.57,-281.534,-44.069
12.6,-281.674,-44.104
12.63,-281.709,-44.104
12.66,-282.657,-44.184
12.7,-282.13,-43.978
12.73,-280.902,-43.978
12.76,-281.393,-43.84
12.79,-281.358,-43.714
12.83,-280.481,-43.565
12.86,-279.498,-43.417
12.89,-278.937,-43.21
12.92,-278.305,-43.038
12.96,-277.287,-42.786
12.99,-276.48,-42.695
13.02,-276.866,-42.752
13.05,-277.603,-42.878
13.09,-277.744,-42.947
13.12,-276.866,-42.901
13.15,-275.708,-42.752
13.18,-274.69,-42.386
13.22,-273.637,-41.996
13.25,-272.198,-41.595
13.28,-270.374,-41.297
13.31,-268.829,-40.988
13.35,-267.461,-40.633
13.38,-266.092,-40.346
13.41,-264.232,-40.026
13.45,-262.056,-39.739
13.48,-260.547,-39.43
13.51,-258.968,-39.029
13.54,-257.002,-38.754
13.58,-255.247,-38.502
13.61,-253.809,-38.25
13.64,-252.721,-37.987
13.67,-251.036,-37.712
13.71,-248.965,-37.54
13.74,-248.193,-37.357
13.77,-247.07,-36.99
13.8,-244.965,-36.715
13.84,-243.35,-36.474
13.87,-241.876,-36.142
13.9,-240.472,-35.867
13.93,-238.823,-35.455
13.97,-236.366,-35.157
14.0,-234.752,-34.871
14.03,-233.138,-34.47
14.06,-231.313,-34.115
14.1,-228.786,-33.771
14.13,-227.312,-33.668
14.16,-226.645,-33.359
14.19,-224.364,-33.003
14.23,-222.328,-32.797
14.26,-221.03,-32.522
14.29,-219.485,-32.236
14.32,-217.871,-31.915
14.36,-215.941,-31.56
14.39,-213.765,-31.262
14.42,-212.045,-30.987
14.45,-210.326,-30.54
14.49,-207.799,-30.14
14.52,-205.518,-29.853
14.55,-203.517,-29.498
14.58,-201.447,-29.086
14.62,-199.341,-28.685
14.65,-196.989,-28.341
14.68,-194.708,-28.032
14.71,-192.427,-27.585
14.75,-189.935,-27.104
14.78,-187.022,-26.68
14.81,-184.145,-26.302
14.85,-181.969,-25.878
14.88,-179.863,-25.363
14.91,-177.055,-24.939
14.94,-174.213,-24.698
14.98,-171.791,-24.32
15.01,-169.194,-23.862
15.04,-166.386,-23.358
15.07,-162.912,-22.865
15.11,-159.789,-22.441
15.14,-157.402,-21.914
15.17,-154.103,-21.261
15.2,-150.278,-20.849
15.24,-147.54,-20.483
15.27,-144.487,-19.841
15.3,-140.556,-19.337
15.33,-138.486,-19.051
15.37,-136.485,-18.695
15.4,-133.748,-18.478
15.43,-130.8,-18.008
15.46,-127.185,-17.47
15.5,-123.289,-16.943
15.53,-120.271,-16.416
15.56,-116.797,-15.602
15.59,-112.585,-15.064
15.63,-109.673,-14.64
15.66,-106.233,-14.067
15.69,-102.443,-13.621
15.72,-99.741,-13.197
15.76,-96.722,-12.739
15.79,-93.108,-12.406
15.82,-90.019,-11.948
15.85,-87.106,-11.433
15.89,-84.088,-11.02
15.92,-80.894,-10.642
15.95,-78.017,-10.253
15.98,-75.42,-9.772
16.02,-71.77,-9.222
16.05,-67.769,-8.798
16.08,-64.716,-8.294
16.11,-61.662,-7.687
16.15,-58.012,-7.137
16.18,-54.292,-6.713
16.21,-50.993,-6.232
16.24,-47.519,-5.682
16.28,-43.729,-5.098
16.31,-39.868,-4.639
16.34,-36.534,-4.158
16.38,-33.832,-3.838
16.41,-34.253,-4.055
16.44,-36.745,-4.422
16.47,-33.165,-3.929
16.51,-23.163,-3.07
16.54,-15.547,-1.73
16.57,-8.598,-0.149
16.6,-2.071,0.092
16.64,0.246,-0.023
16.67,0.983,0.928
16.7,5.756,1.546
16.73,9.756,1.34
16.77,13.091,1.867
16.8,19.899,2.085
16.83,22.075,1.329
16.86,20.039,1.524
16.9,24.356,2.726
16.93,31.445,2.933
16.96,33.516,3.059
16.99,33.691,3.849
17.03,34.393,4.754
17.06,36.113,5.636
17.09,38.535,6.369
17.12,40.254,7.354
17.16,42.641,8.924
17.19,46.185,10.619
17.22,51.695,11.467
17.25,56.889,11.387
17.29,60.539,11.352
17.32,64.821,11.352
17.35,68.611,11.318
17.38,71.454,11.547
17.42,74.297,12.005
17.45,77.771,12.521
17.48,81.245,12.979
17.51,84.299,13.483
17.55,87.668,14.09
17.58,91.107,14.64
17.61,94.266,15.11
17.64,97.319,15.488
17.68,100.127,15.935
17.71,103.25,16.439
17.74,106.865,16.897
17.77,110.234,17.321
17.81,113.393,17.871
17.84,116.481,18.421
17.87,119.675,18.959
17.91,123.5,19.452
17.94,127.08,19.921
17.97,130.028,20.54
18.0,134.064,21.216
18.04,137.749,21.594
18.07,139.96,22.006
18.1,142.065,22.43
18.13,145.575,22.911
18.17,149.084,23.152
18.2,151.506,23.587
18.23,154.384,24.102
18.26,157.051,24.549
18.3,159.753,24.962
18.33,162.35,25.282
18.36,165.018,25.741
18.39,167.931,26.279
18.43,171.019,26.703
18.46,173.511,27.058
18.49,176.073,27.482
18.52,178.705,27.963
18.56,181.337,28.421
18.59,184.25,28.822
18.62,186.812,29.109
18.65,188.602,29.498
18.69,190.813,29.842
18.72,193.094,30.117
18.75,195.586,30.437
18.78,197.691,30.815
18.82,199.832,31.274
18.85,202.394,31.64
18.88,204.57,31.904
18.91,206.044,32.247
18.95,208.115,32.637
18.98,210.606,32.923
19.01,212.888,33.278
19.04,214.958,33.656
19.08,216.818,34.092
19.11,219.24,34.504
19.14,221.521,34.733
19.17,222.855,34.997
19.21,225.136,35.443
19.24,227.382,35.684
19.27,228.926,35.982
19.31,230.576,36.188
19.34,231.909,36.474
19.37,234.225,36.852
19.4,235.77,36.99
19.44,236.998,37.334
19.47,238.858,37.528
19.5,239.56,37.769
19.53,241.841,38.124
19.57,243.561,38.17
19.6,244.579,38.617
19.63,247.246,39.041
19.66,248.755,39.247
19.7,249.878,39.522
19.73,251.598,39.728
19.76,253.107,39.991
19.79,254.756,40.266
19.83,256.265,40.472
19.86,257.423,40.702
19.89,258.757,40.919
19.92,259.634,41.045
19.96,260.547,41.16
19.99,261.635,41.229
20.02,262.793,41.458
20.05,264.162,41.721
20.09,265.53,41.973
20.12,266.934,42.179
20.15,268.127,42.454
20.18,269.215,42.672
20.22,270.163,42.832
20.25,271.321,42.89
20.28,272.163,43.004
20.31,273.146,43.187
20.35,274.304,43.359
20.38,275.603,43.508
20.41,276.41,43.669
20.44,277.112,43.829
20.48,277.673,43.909
20.51,278.375,43.921
20.54,278.656,43.909
20.57,279.182,43.978
20.61,279.884,44.069
20.64,280.586,44.15
20.67,280.762,44.161
20.7,280.867,44.218
20.74,281.253,44.218
20.77,281.323,44.173
20.8,280.692,44.024
20.84,280.832,44.047
20.87,281.709,44.035
20.9,281.709,44.104
20.93,281.744,44.138
20.97,281.885,44.138
21.0,281.85,44.127
21.03,281.885,44.104
21.06,281.358,43.886
21.1,280.376,43.76
21.13,280.762,43.646
21.16,279.884,43.428
21.19,278.972,43.371
21.23,278.481,43.096
21.26,277.287,42.924
21.29,276.62,42.798
21.32,275.883,42.592
21.36,275.673,42.546
21.39,275.568,42.477
21.42,274.515,42.489
21.45,274.164,42.42
21.49,273.497,42.111
21.52,272.128,41.881
21.55,271.04,41.687
21.58,269.882,41.4
21.62,268.829,41.137
21.65,267.952,40.885
21.68,266.794,40.724
21.71,265.671,40.553
21.75,264.372,40.266
21.78,262.793,39.957
21.81,261.319,39.671
21.84,260.056,39.407
21.88,258.617,39.132
21.91,257.108,38.823
21.94,255.598,38.582
21.97,254.475,38.41
22.01,253.317,38.216
22.04,251.738,37.883
22.07,249.843,37.574
22.1,248.088,37.311
22.14,246.439,36.956
22.17,244.684,36.566
22.2,243.385,36.303
22.24,241.631,35.959
22.27,239.279,35.684
22.3,237.595,35.317
22.33,236.156,34.974
22.37,234.506,34.71
22.4,232.471,34.493
22.43,230.927,34.206
22.46,228.961,33.737
22.5,226.785,33.507
22.53,225.417,33.244
22.56,223.276,32.843
22.59,221.346,32.522
22.63,219.907,32.179
22.66,217.871,31.904
22.69,215.836,31.606
22.72,214.291,31.285
22.76,212.502,30.896
22.79,209.869,30.598
22.82,207.799,30.311
22.85,206.009,29.853
22.89,203.693,29.406
22.92,201.166,29.097
22.95,199.341,28.811
22.98,197.375,28.398
23.02,194.884,27.986
23.05,192.181,27.574
23.08,189.619,27.195
23.11,187.163,26.76
23.15,184.741,26.279
23.18,182.355,25.867
23.21,179.968,25.534
23.24,177.301,25.156
23.28,174.669,24.733
23.31,171.967,24.263
23.34,169.124,23.896
23.37,166.457,23.461
23.41,163.298,22.9
23.44,160.315,22.361
23.47,157.191,21.914
23.5,153.998,21.456
23.54,150.734,20.883
23.57,147.295,20.334
23.6,144.557,19.91
23.63,141.399,19.44
23.67,138.275,19.096
23.7,135.889,18.581
23.73,132.73,18.168
23.77,129.747,17.848
23.8,126.588,17.367
23.83,124.167,17.011
23.86,121.5,16.45
23.9,117.393,15.992
23.93,113.603,15.476
23.96,110.445,14.812
23.99,107.146,14.171
24.03,103.25,13.666
24.06,99.67,13.254
24.09,96.793,12.739
24.12,93.143,12.109
24.16,89.072,11.696
24.19,85.913,11.272
24.22,83.105,10.814
24.25,80.228,10.367
24.29,77.28,10.001
24.32,74.261,9.703
24.35,71.173,9.268
24.38,67.944,8.752
24.42,64.61,8.237
24.45,61.417,7.79
24.48,58.118,7.309
24.51,54.784,6.759
24.55,51.204,6.22
24.58,47.484,5.682
24.61,43.448,5.178
24.64,39.868,4.559
24.68,35.727,3.895
24.71,32.954,3.677
24.74,33.481,3.895
24.77,34.92,4.032
24.81,29.936,3.368
24.84,20.355,2.509
24.87,13.336,1.42
24.9,8.072,0.183
24.94,3.088,0.115
24.97,1.579,0.412
25.0,0.175,0.046
25.03,-1.053,-0.951
25.07,-6.001,-1.535
25.1,-10.107,-1.352
25.13,-14.108,-1.97
25.16,-19.373,-1.947
25.2,-21.619,-1.764
25.23,-25.093,-2.154
25.26,-29.164,-2.623
25.3,-31.796,-3.242
25.33,-33.762,-3.975
25.36,-35.902,-4.571
25.39,-36.92,-5.35
25.43,-37.903,-6.507
25.46,-40.079,-7.79
25.49,-43.343,-8.981
25.52,-45.975,-10.356
25.56,-51.414,-11.249
25.59,-57.17,-11.146
25.62,-60.75,-11.1
25.65,-64.61,-11.158
25.69,-68.05,-11.318
25.72,-70.927,-11.582
25.75,-73.7,-11.914
25.78,-77.069,-12.326
25.82,-80.298,-12.865
25.85,-83.737,-13.506
25.88,-87.387,-14.056
25.91,-90.686,-14.537
25.95,-93.564,-15.064
25.98,-96.617,-15.545
26.01,-99.811,-15.946
26.04,-103.11,-16.313
26.08,-106.339,-16.828
26.11,-109.953,-17.435
26.14,-113.428,-17.962
26.17,-116.692,-18.443
26.21,-119.815,-18.925
26.24,-122.868,-19.486
26.27,-126.764,-20.104
26.3,-130.695,-20.494
26.34,-133.186,-20.964
26.37,-136.836,-21.685
26.4,-140.521,-22.075
26.43,-142.416,-22.396
26.47,-144.733,-22.774
26.5,-148.453,-23.22
26.53,-151.331,-23.564
26.56,-153.577,-24.057
26.6,-157.121,-24.481
26.63,-159.613,-24.87
26.66,-161.789,-25.443
26.7,-165.053,-25.867
26.73,-167.966,-26.187
26.76,-170.668,-26.68
26.79,-173.23,-27.092
26.83,-175.687,-27.562
26.86,-179.056,-27.986
26.89,-181.407,-28.307
26.92,-183.443,-28.879
26.96,-186.742,-29.303
26.99,-189.268,-29.509
27.02,-190.988,-29.876
27.05,-193.129,-30.243
27.09,-195.551,-30.621
27.12,-198.183,-30.953
27.15,-200.394,-31.274
27.18,-202.394,-31.697
27.22,-204.605,-32.11
27.25,-206.746,-32.362
27.28,-208.43,-32.591
27.31,-210.536,-32.958
27.35,-212.747,-33.336
27.38,-214.853,-33.702
27.41,-217.099,-34.069
27.44,-219.099,-34.39
27.48,-220.924,-34.802
27.51,-222.925,-35.1
27.54,-224.644,-35.283
27.57,-226.645,-35.569
27.61,-228.505,-35.902
27.64,-230.154,-36.257
27.67,-232.401,-36.589
27.7,-234.296,-36.83
27.74,-235.454,-37.139
27.77,-237.173,-37.471
27.8,-239.069,-37.677
27.83,-240.894,-37.929
27.87,-242.543,-38.227
27.9,-243.701,-38.525
27.93,-245.631,-38.834
27.96,-247.491,-38.972
28.0,-248.579,-39.235
28.03,-250.018,-39.556
28.06,-251.527,-39.728
28.09,-252.861,-39.934
28.13,-254.16,-40.094
28.16,-255.107,-40.312
28.19,-256.686,-40.61
28.23,-258.16,-40.747
28.26,-258.897,-40.942
28.29,-259.81,-41.103
28.32,-260.828,-41.251
28.36,-262.056,-41.412
28.39,-263.46,-41.584
28.42,-264.723,-41.87
28.45,-266.127,-42.202
28.49,-267.636,-42.431
28.52,-268.759,-42.58
28.55,-269.742,-42.764
28.58,-270.724,-42.947
28.62,-271.672,-43.038
28.65,-272.655,-43.119
28.68,-273.848,-43.279
28.71,-274.901,-43.485
28.75,-275.919,-43.669
28.78,-276.55,-43.737
28.81,-277.217,-43.817
28.84,-277.744,-43.875
28.88,-278.059,-43.898
28.91,-278.551,-43.921
28.94,-279.393,-43.966
28.97,-279.919,-44.092
29.01,-280.341,-44.184
29.04,-280.586,-44.23
29.07,-281.183,-44.241
29.1,-281.148,-44.195
29.14,-280.867,-44.161
29.17,-280.972,-44.138
29.2,-281.604,-44.115
29.23,-281.604,-44.115
29.27,-281.744,-44.173
29.3,-281.815,-44.184
29.33,-282.587,-44.299
29.36,-282.201,-44.092
29.4,-281.007,-44.092
29.43,-281.534,-43.966
29.46,-281.674,-43.84
29.49,-280.656,-43.669
29.53,-279.498,-43.531
29.56,-279.042,-43.313
29.59,-278.235,-43.073
29.62,-277.217,-42.832
29.66,-276.305,-42.695
29.69,-276.164,-42.683
29.72,-276.129,-42.649
29.76,-275.568,-42.592
29.79,-274.76,-42.5
29.82,-273.602,-42.294
29.85,-272.304,-42.019
29.89,-271.251,-41.641
29.92,-269.917,-41.297
29.95,-268.478,-41.068
29.98,-267.25,-40.839
30.02,-265.987,-40.576
30.05,-264.793,-40.312
30.08,-263.144,-40.037
30.11,-261.249,-39.751
30.15,-259.845,-39.441
30.18,-258.582,-39.132
30.21,-257.283,-38.926
30.24,-255.914,-38.731
30.28,-254.546,-38.559
30.31,-253.773,-38.33
30.34,-252.405,-38.067
30.37,-250.229,-37.861
30.41,-249.316,-37.666
30.44,-248.404,-37.276
30.47,-246.614,-37.024
30.5,-245.0,-36.807
30.54,-243.21,-36.452
30.57,-241.701,-36.142
30.6,-240.262,-35.741
30.63,-238.156,-35.443
30.67,-236.261,-35.157
30.7,-234.717,-34.813
30.73,-232.997,-34.435
30.76,-230.716,-34.138
30.8,-229.207,-34.023
30.83,-228.119,-33.679
30.86,-225.838,-33.29
30.89,-223.557,-32.981
30.93,-221.767,-32.66
30.96,-220.152,-32.293
30.99,-218.082,-31.915
31.02,-216.116,-31.571
31.06,-214.186,-31.262
31.09,-212.256,-31.01
31.12,-210.396,-30.609
31.16,-208.08,-30.22
31.19,-205.904,-29.956
31.22,-203.833,-29.578
31.25,-201.411,-29.154
31.29,-199.376,-28.742
31.32,-197.2,-28.387
31.35,-194.743,-28.066
31.38,-192.287,-27.631
31.42,-189.83,-27.127
31.45,-186.987,-26.703
31.48,-184.18,-26.325
31.51,-181.969,-25.912
31.55,-179.898,-25.408
31.58,-176.985,-24.985
31.61,-174.142,-24.755
31.64,-171.861,-24.366
31.68,-169.124,-23.873
31.71,-166.106,-23.358
31.74,-162.737,-22.865
31.77,-159.648,-22.43
31.81,-157.367,-21.914
31.84,-153.857,-21.239
31.87,-149.611,-20.803
31.9,-146.944,-20.379
31.94,-143.82,-19.749
31.97,-140.276,-19.28
32.0,-137.503,-18.856
32.03,-134.485,-18.501
32.07,-132.344,-18.249
32.1,-129.361,-17.642
32.13,-125.851,-17.355
32.16,-123.57,-16.989
32.2,-120.728,-16.519
32.23,-116.972,-15.9
32.26,-113.147,-15.35
32.29,-110.199,-14.846
32.33,-106.83,-14.285
32.36,-103.11,-13.747
32.39,-100.021,-13.243
32.42,-96.758,-12.75
32.46,-93.002,-12.326
32.49,-89.879,-11.856
32.52,-86.79,-11.295
32.55,-83.421,-10.894
32.59,-80.193,-10.505
32.62,-77.28,-10.081
32.65,-74.367,-9.611
32.69,-70.822,-9.084
32.72,-66.997,-8.66
32.75,-64.084,-8.202
32.78,-60.785,-7.549
32.82,-56.644,-6.999
32.85,-52.959,-6.518
32.88,-49.66,-5.991
32.91,-46.15,-5.441
32.95,-42.5,-4.903
32.98,-38.956,-4.513
33.01,-35.832,-4.09
33.04,-33.34,-3.826
33.08,-34.218,-4.135
33.11,-36.745,-4.445
33.14,-32.182,-3.883
33.17,-22.18,-3.024
33.21,-15.056,-1.615
33.24,-8.353,-0.115
33.27,-2.457,-0.057
33.3,0.105,-0.309
33.34,0.737,0.561
33.37,4.703,1.592
33.4,9.686,1.352
33.43,11.967,1.604
33.47,17.793,2.005
33.5,20.496,1.272
33.53,18.846,1.432
33.56,23.338,2.646
33.6,30.568,2.807
33.63,32.884,2.91
33.66,33.34,3.7
33.69,34.534,4.628
33.73,36.359,5.453
33.76,38.184,6.175
33.79,39.728,7.183
33.82,42.044,8.706
33.86,45.483,10.321
33.89,50.642,11.295
33.92,56.223,11.375
33.95,60.258,11.364
33.99,64.61,11.41
34.02,68.576,11.421
34.05,71.278,11.616
34.08,73.805,12.005
34.12,77.315,12.475
34.15,80.824,12.876
34.18,84.018,13.403
34.22,87.387,14.045
34.25,90.826,14.629
34.28,94.09,15.11
34.31,97.108,15.499
34.35,99.916,15.946
34.38,103.145,16.462
34.41,106.76,16.92
34.44,110.269,17.355
34.48,113.498,17.905
34.51,116.481,18.466
34.54,119.604,18.982
34.57,123.184,19.406
34.61,126.553,19.852
34.64,129.642,20.471
34.67,133.678,21.124
34.7,137.328,21.548
34.74,139.854,21.995
34.77,141.995,22.419
34.8,145.084,22.9
34.83,148.698,23.163
34.87,151.26,23.541
34.9,153.787,24.034
34.93,156.7,24.538
34.96,159.683,24.927
35.0,162.421,25.328
35.03,165.018,25.775
35.06,167.86,26.336
35.09,170.914,26.737
35.13,173.405,27.092
35.16,176.318,27.562
35.19,179.126,28.043
35.22,181.548,28.513
35.26,184.355,28.891
35.29,186.847,29.131
35.32,188.637,29.532
35.35,190.953,29.865
35.39,193.164,30.128
35.42,195.586,30.46
35.45,197.656,30.838
35.48,199.867,31.319
35.52,202.605,31.697
35.55,204.535,31.927
35.58,205.904,32.282
35.62,208.185,32.648
35.65,210.536,32.912
35.68,212.537,33.267
35.71,214.572,33.611
35.75,216.467,34.046
35.78,219.029,34.458
35.81,221.135,34.676
35.84,222.363,34.951
35.88,224.399,35.386
35.91,226.785,35.65
35.94,228.786,35.97
35.97,230.751,36.257
36.01,232.401,36.646
36.04,234.717,37.036
36.07,236.191,37.208
36.1,237.489,37.494
36.14,239.174,37.666
36.17,240.753,37.998
36.2,243.069,38.296
36.23,244.754,38.502
36.27,245.807,38.823
36.3,247.632,39.189
36.33,249.387,39.361
36.36,250.264,39.499
36.4,251.808,39.762
36.43,253.317,39.945
36.46,254.44,40.232
36.49,256.195,40.438
36.53,257.423,40.633
36.56,258.546,40.896
36.59,259.459,41.022
36.62,260.266,41.16
36.66,261.389,41.24
36.69,262.477,41.435
36.72,263.776,41.687
36.75,265.179,41.939
36.79,266.689,42.156
36.82,267.987,42.466
36.85,269.11,42.729
36.88,270.058,42.867
36.92,271.216,42.935
36.95,272.023,43.038
36.98,273.076,43.233
37.01,274.269,43.382
37.05,275.533,43.543
37.08,276.41,43.703
37.11,277.147,43.852
37.15,277.638,43.932
37.18,278.235,43.932
37.21,278.621,43.909
37.24,279.147,43.989
37.28,279.955,44.104
37.31,280.762,44.218
37.34,280.972,44.241
37.37,281.113,44.31
37.41,281.499,44.299
37.44,281.499,44.241
37.47,280.972,44.081
37.5,281.007,44.069
37.54,281.674,44.058
37.57,281.499,44.058
37.6,281.042,44.024
37.63,281.148,43.989
37.67,281.148,43.932
37.7,281.148,43.966
37.73,280.902,43.806
37.76,280.2,43.76
37.8,280.586,43.703
37.83,279.955,43.554
37.86,279.358,43.508
37.89,278.937,43.245
37.93,277.568,43.038
37.96,276.726,42.855
37.99,276.129,42.649
38.02,276.094,42.603
38.06,275.883,42.534
38.09,274.76,42.546
38.12,274.409,42.5
38.15,273.813,42.179
38.19,272.304,41.939
38.22,271.251,41.744
38.25,270.233,41.458
38.28,269.145,41.194
38.32,268.163,40.942
38.35,266.969,40.759
38.38,265.601,40.553
38.41,264.091,40.232
38.45,262.512,39.911
38.48,261.214,39.625
38.51,259.88,39.373
38.55,258.476,39.109
38.58,256.932,38.8
38.61,255.458,38.594
38.64,254.37,38.433
38.68,253.072,38.181
38.71,251.387,37.861
38.74,249.773,37.563
38.77,248.299,37.345
38.81,246.895,37.036
38.84,244.894,36.669
38.87,243.526,36.406
38.9,241.982,36.039
38.94,239.7,35.764
38.97,237.665,35.34
39.0,235.98,34.985
39.03,234.717,34.733
39.07,232.822,34.504
39.1,231.137,34.241
39.13,229.277,33.84
39.16,227.522,33.633
39.2,226.083,33.381
39.23,224.188,33.072
39.26,222.469,32.74
39.29,220.819,32.396
39.33,218.924,32.121
39.36,216.924,31.801
39.39,215.379,31.468
39.42,213.519,31.056
39.46,210.922,30.735
39.49,208.781,30.426
39.52,206.781,29.945
39.55,204.149,29.464
39.59,201.587,29.143
39.62,199.692,28.811
39.65,197.621,28.41
39.68,195.129,28.009
39.72,192.392,27.574
39.75,189.725,27.207
39.78,187.444,26.783
39.81,184.846,26.29
39.85,182.214,25.878
39.88,179.933,25.523
39.91,177.301,25.122
39.94,174.599,24.71
39.98,171.756,24.217
40.01,168.913,23.85
40.04,166.246,23.404
40.08,163.228,22.865
40.11,160.104,22.327
40.14,156.946,21.88
40.17,153.857,21.433
40.21,150.278,20.792
40.24,146.698,20.253
40.27,143.785,19.738
40.3,140.276,19.245
40.34,137.222,18.879
40.37,134.695,18.34
40.4,131.712,18.008
40.43,128.835,17.676
40.47,125.465,17.229
40.5,123.149,16.885
40.53,120.482,16.29
40.56,116.095,15.843
40.6,112.48,15.339
40.63,109.357,14.64
40.66,105.917,14.022
40.69,102.127,13.518
40.73,98.688,13.117
40.76,95.95,12.601
40.79,92.16,12.005
40.82,88.405,11.65
40.86,85.738,11.261
40.89,83.035,10.848
40.92,80.157,10.436
40.95,77.069,10.058
40.99,74.016,9.703
41.02,70.822,9.233
41.05,67.523,8.649
41.08,64.259,8.145
41.12,61.031,7.698
41.15,57.661,7.24
41.18,54.503,6.724
41.21,51.134,6.186
41.25,47.414,5.751
41.28,43.939,5.292
41.31,40.64,4.72
41.34,36.885,4.135
41.38,34.148,3.929
41.41,35.411,4.319
41.44,37.973,4.536
41.47,33.376,3.987
41.51,23.303,3.047
41.54,15.056,1.718
41.57,8.914,0.229
41.61,3.229,0.011
41.64,0.948,0.355
41.67,-0.035,0.0
41.7,-1.649,-1.111
41.74,-6.984,-1.466
41.77,-10.458,-1.34
41.8,-14.88,-2.016
41.83,-19.653,-1.879
41.87,-21.233,-1.695
41.9,-24.777,-2.188
41.93,-29.585,-2.692
41.96,-32.288,-3.276
42.0,-33.867,-4.009
42.03,-35.587,-4.594
42.06,-36.534,-5.35
42.09,-37.341,-6.461
42.13,-39.622,-7.698
42.16,-43.062,-8.867
42.19,-46.326,-10.218
42.22,-52.011,-11.055
42.26,-57.416,-11.02
42.29,-61.031,-11.066
42.32,-64.68,-11.123
42.35,-67.734,-11.284
42.39,-70.822,-11.57
42.42,-73.946,-11.902
42.45,-77.385,-12.349
42.48,-80.508,-12.91
42.52,-83.878,-13.563
42.55,-87.492,-14.067
42.58,-90.616,-14.514
42.61,-93.388,-15.018
42.65,-96.617,-15.522
42.68,-99.986,-15.935
42.71,-103.32,-16.324
42.74,-106.374,-16.84
42.78,-109.848,-17.458
42.81,-113.358,-17.939
42.84,-116.551,-18.398
42.87,-119.71,-18.89
42.91,-122.728,-19.417
42.94,-126.659,-20.082
42.97,-130.765,-20.483
43.01,-133.292,-20.975
43.04,-136.942,-21.731
43.07,-140.556,-22.098
43.1,-142.276,-22.384
43.14,-144.768,-22.774
43.17,-148.523,-23.209
43.2,-151.436,-23.553
43.23,-153.787,-24.08
43.27,-157.332,-24.503
43.3,-159.578,-24.87
43.33,-161.684,-25.431
43.36,-165.018,-25.821
43.4,-167.931,-26.153
43.43,-170.528,-26.646
43.46,-173.055,-27.069
43.49,-175.722,-27.551
43.53,-179.056,-27.963
43.56,-181.372,-28.318
43.59,-183.443,-28.879
43.62,-186.671,-29.28
43.66,-189.128,-29.498
43.69,-191.058,-29.842
43.72,-193.129,-30.208
43.75,-195.551,-30.609
43.79,-198.148,-30.93
43.82,-200.288,-31.239
43.85,-202.359,-31.686
43.88,-204.675,-32.098
43.92,-206.816,-32.373
43.95,-208.571,-32.625
43.98,-210.606,-32.969
44.01,-212.782,-33.347
44.05,-214.993,-33.748
44.08,-217.45,-34.08
44.11,-219.275,-34.39
44.14,-220.924,-34.813
44.18,-222.995,-35.088
44.21,-224.785,-35.283
44.24,-226.82,-35.592
44.27,-228.575,-35.902
44.31,-230.225,-36.257
44.34,-232.541,-36.566
44.37,-234.296,-36.795
44.4,-235.454,-37.15
44.44,-237.279,-37.471
44.47,-239.244,-37.7
44.5,-241.034,-37.975
44.54,-242.473,-38.204
44.57,-243.596,-38.514
44.6,-245.667,-38.8
44.63,-247.456,-38.914
44.67,-248.439,-39.189
44.7,-249.738,-39.476
44.73,-251.141,-39.659
44.76,-252.686,-39.842
44.8,-254.089,-40.049
44.83,-255.283,-40.346
44.86,-256.827,-40.61
44.89,-258.055,-40.759
44.93,-258.827,-40.919
44.96,-259.705,-41.045
44.99,-260.793,-41.206
45.02,-262.091,-41.366
45.06,-263.53,-41.572
45.09,-264.828,-41.859
45.12,-266.267,-42.214
45.15,-267.706,-42.431
45.19,-268.864,-42.58
45.22,-269.742,-42.752
45.25,-270.795,-42.924
45.28,-271.742,-43.016
45.32,-272.83,-43.107
45.35,-273.988,-43.268
45.38,-275.006,-43.508
45.41,-275.883,-43.657
45.45,-276.48,-43.714
45.48,-277.112,-43.772
45.51,-277.603,-43.795
45.54,-277.849,-43.829
45.58,-278.445,-43.875
45.61,-279.358,-43.932
45.64,-279.814,-44.058
45.67,-280.13,-44.127
45.71,-280.411,-44.184
45.74,-280.972,-44.173
45.77,-280.797,-44.138
45.8,-280.656,-44.104
45.84,-281.007,-44.092
45.87,-281.604,-44.092
45.9,-281.639,-44.138
45.93,-281.569,-44.15
45.97,-281.569,-44.161
46.0,-282.446,-44.218
46.03,-281.92,-44.001
46.07,-280.832,-44.001
46.1,-281.288,-43.875
46.13,-281.288,-43.737
46.16,-280.481,-43.611
46.2,-279.463,-43.485
46.23,-278.937,-43.302
46.26,-278.165,-43.061
46.29,-277.112,-42.821
46.33,-276.129,-42.66
46.36,-275.778,-42.592
46.39,-275.568,-42.523
46.42,-274.971,-42.408
46.46,-274.129,-42.328
46.49,-273.076,-42.156
46.52,-271.953,-41.939
46.55,-271.005,-41.595
46.59,-269.707,-41.274
46.62,-268.303,-41.068
46.65,-267.25,-40.85
46.68,-266.267,-40.621
46.72,-265.109,-40.392
46.75,-263.565,-40.14
46.78,-261.74,-39.865
46.81,-260.442,-39.556
46.85,-259.213,-39.212
46.88,-257.739,-38.995
46.91,-256.371,-38.788
46.94,-255.107,-38.605
46.98,-254.44,-38.388
47.01,-252.826,-38.113
47.04,-250.755,-37.941
47.07,-250.053,-37.746
47.11,-248.93,-37.334
47.14,-246.825,-37.07
47.17,-245.316,-36.807
47.2,-243.561,-36.44
47.24,-241.911,-36.131
47.27,-240.367,-35.73
47.3,-238.086,-35.409
47.33,-236.366,-35.146
47.37,-234.787,-34.768
47.4,-232.997,-34.424
47.43,-230.646,-34.103
47.47,-229.137,-33.966
47.5,-228.084,-33.633
47.53,-225.697,-33.221
47.56,-223.065,-32.9
47.6,-221.521,-32.591
47.63,-219.942,-32.224
47.66,-218.082,-31.869
47.69,-216.116,-31.56
47.73,-214.046,-31.285
47.76,-212.256,-31.01
47.79,-210.326,-30.563
47.82,-207.764,-30.185
47.86,-205.623,-29.888
47.89,-203.552,-29.509
47.92,-201.341,-29.109
47.95,-199.376,-28.708
47.99,-197.06,-28.375
48.02,-194.603,-28.066
48.05,-192.357,-27.642
48.08,-189.9,-27.115
48.12,-186.917,-26.703
48.15,-184.145,-26.313
48.18,-181.863,-25.89
48.21,-179.968,-25.408
48.25,-177.231,-24.996
48.28,-174.072,-24.721
48.31,-171.44,-24.332
48.34,-168.948,-23.816
48.38,-165.965,-23.289
48.41,-162.666,-22.854
48.44,-159.929,-22.464
48.47,-157.718,-21.972
48.51,-154.068,-21.307
48.54,-149.716,-20.872
48.57,-147.014,-20.414
48.6,-144.066,-19.784
48.64,-140.732,-19.326
48.67,-138.065,-18.913
48.7,-134.941,-18.581
48.73,-132.695,-18.306
48.77,-129.712,-17.71
48.8,-126.237,-17.412
48.83,-123.956,-17.023
48.86,-121.289,-16.599
48.9,-117.85,-15.992
48.93,-113.533,-15.396
48.96,-110.234,-14.892
49.0,-106.619,-14.182
49.03,-103.04,-13.735
49.06,-101.987,-13.518
49.09,-100.653,-13.288
49.13,-97.459,-13.254
49.16,-95.284,-13.071
49.19,-92.581,-12.475
49.22,-88.51,-11.971
49.26,-85.422,-11.478
49.29,-82.368,-10.78
49.32,-78.438,-10.092
49.35,-73.981,-9.382
49.39,-69.278,-8.741
49.42,-65.172,-8.065
49.45,-60.96,-7.286
49.48,-56.644,-6.69
49.52,-53.099,-6.266
49.55,-49.554,-5.751
49.58,-45.238,-5.235
49.61,-41.412,-4.72
49.65,-37.482,-4.181
49.68,-33.376,-3.677
49.71,-30.568,-3.379
49.74,-31.586,-3.597
49.78,-31.726,-3.402
49.81,-23.9,-2.635
49.84,-15.582,-1.959
49.87,-9.862,-0.355
49.91,-2.878,0.298
49.94,-0.211,0.0
49.97,0.316,0.241
50.0,1.825,1.031
50.04,6.001,1.157
50.07,8.142,1.42
50.1,13.126,2.073
50.13,19.688,1.89
50.17,21.057,1.294
50.2,21.338,1.913
50.23,26.672,2.749
50.26,30.954,2.784
50.3,32.112,3.127
50.33,33.516,3.895
50.36,35.446,4.834
50.4,37.762,5.785
50.43,40.254,6.701
50.46,42.22,7.893
50.49,44.15,9.6
50.53,47.8,11.215
50.56,54.187,11.604
50.59,58.89,11.421
50.62,63.031,11.513
50.66,67.348,11.478
50.69,70.541,11.57
50.72,73.103,11.799
50.75,75.946,12.257
50.79,79.385,12.681
50.82,82.509,13.128
50.85,85.808,13.666
50.88,89.388,14.285
50.92,92.406,14.801
50.95,95.073,15.259
50.98,98.477,15.66
51.01,101.566,16.084
51.05,104.759,16.645
51.08,108.514,17.172
51.11,112.059,17.596
51.14,115.112,18.203
51.18,118.306,18.718
51.21,121.184,19.245
51.24,124.483,19.474
51.27,123.921,19.257
51.31,124.307,19.646
51.34,127.922,19.566
51.37,129.185,19.635
51.4,131.677,20.185
51.44,134.941,20.689
51.47,137.503,21.33
51.5,140.135,21.903
51.53,143.434,22.476
51.57,147.26,23.106
51.6,150.839,23.816
51.63,154.875,24.481
51.66,158.56,24.973
51.7,161.052,25.489
51.73,164.105,26.061
51.76,167.369,26.371
51.79,170.107,26.691
51.83,173.37,27.15
51.86,176.775,27.688
51.89,179.617,28.169
51.93,182.109,28.65
51.96,184.811,28.994
51.99,187.198,29.372
52.02,189.83,29.75
52.06,192.462,30.082
52.09,194.989,30.46
52.12,197.27,30.873
52.15,199.411,31.297
52.19,202.219,31.709
52.22,204.64,31.938
52.25,206.044,32.328
52.28,208.641,32.774
52.32,211.168,33.061
52.35,213.484,33.45
52.38,215.695,33.828
52.41,217.52,34.264
52.45,220.293,34.722
52.48,222.644,34.894
52.51,223.732,35.191
52.54,226.048,35.604
52.58,228.189,35.821
52.61,229.979,36.131
52.64,231.734,36.383
52.67,233.243,36.681
52.71,235.208,37.059
52.74,236.928,37.231
52.77,237.981,37.46
52.8,239.841,37.757
52.84,241.034,37.929
52.87,242.368,38.216
52.9,244.157,38.342
52.93,245.526,38.64
52.97,247.141,39.006
53.0,248.825,39.281
53.03,250.299,39.464
53.06,251.562,39.716
53.1,253.387,40.049
53.13,254.967,40.278
53.16,256.055,40.507
53.19,257.739,40.759
53.23,258.757,40.885
53.26,259.283,41.045
53.29,260.266,41.08
53.32,261.284,41.183
53.36,262.442,41.355
53.39,263.6,41.618
53.42,264.969,41.87
53.46,266.302,42.053
53.49,267.39,42.34
53.52,268.408,42.557
53.55,269.461,42.741
53.59,270.724,42.798
53.62,271.672,42.97
53.65,272.865,43.199
53.68,274.023,43.382
53.72,275.217,43.52
53.75,276.164,43.669
53.78,276.901,43.829
53.81,277.638,43.921
53.85,278.305,43.943
53.88,278.796,44.001
53.91,279.568,44.092
53.94,280.341,44.207
53.98,281.148,44.299
54.01,281.499,44.356
54.04,281.815,44.425
54.07,282.271,44.425
54.11,282.06,44.344
54.14,281.429,44.161
54.17,281.113,44.058
54.2,282.025,44.104
54.24,281.92,43.989
54.27,280.656,43.966
54.3,280.867,43.921
54.33,281.218,43.84
54.37,280.341,43.726
54.4,279.428,43.611
54.43,279.393,43.474
54.46,279.323,43.405
54.5,278.691,43.359
54.53,278.375,43.302
54.56,277.884,43.119
54.59,276.831,42.981
54.63,276.27,42.855
54.66,276.024,42.706
54.69,275.813,42.615
54.72,275.357,42.557
54.76,274.655,42.546
54.79,274.409,42.477
54.82,273.848,42.225
54.86,272.479,41.996
54.89,271.391,41.79
54.92,270.444,41.538
54.95,269.601,41.286
54.99,268.759,41.045
55.02,267.461,40.885
55.05,266.232,40.702
55.08,264.934,40.392
55.12,263.425,40.049
55.15,261.88,39.762
55.18,260.512,39.499
55.21,259.213,39.212
55.25,257.739,38.926
55.28,256.3,38.708
55.31,255.002,38.525
55.34,253.598,38.273
55.38,252.019,37.918
55.41,250.299,37.631
55.44,249.071,37.46
55.47,247.632,37.173
55.51,245.772,36.818
55.54,244.333,36.532
55.57,242.719,36.211
55.6,240.718,35.936
55.64,238.998,35.547
55.67,237.033,35.157
55.7,235.173,34.859
55.73,233.173,34.527
55.77,231.277,34.206
55.8,229.874,33.886
55.83,227.943,33.599
55.86,225.627,33.347
55.9,223.627,32.969
55.93,221.872,32.545
55.96,220.293,32.236
55.99,218.468,31.972
56.03,216.257,31.686
56.06,214.677,31.377
56.09,212.712,30.941
56.12,210.15,30.667
56.16,208.22,30.357
56.19,206.255,29.91
56.22,203.973,29.475
56.25,201.552,29.154
56.29,199.481,28.845
56.32,197.481,28.433
56.35,195.094,28.02
56.39,192.322,27.596
56.42,189.76,27.207
56.45,187.268,26.772
56.48,184.882,26.302
56.52,182.565,25.912
56.55,180.214,25.592
56.58,177.617,25.225
56.61,175.195,24.824
56.65,172.423,24.354
56.68,169.475,23.999
56.71,166.702,23.518
56.74,163.649,22.945
56.78,160.736,22.441
56.81,158.034,22.029
56.84,154.805,21.571
56.87,151.19,21.009
56.91,147.786,20.437
56.94,145.049,19.978
56.97,141.574,19.452
57.0,138.731,19.188
57.04,137.047,18.695
57.07,133.221,18.214
57.1,129.712,17.997
57.13,127.361,17.481
57.17,124.588,16.966
57.2,121.184,16.45
57.23,117.534,16.015
57.26,114.095,15.454
57.3,110.585,14.835
57.33,107.181,14.216
57.36,103.25,13.678
57.39,99.811,13.277
57.43,96.898,12.727
57.46,93.178,12.154
57.49,89.563,11.788
57.52,86.755,11.387
57.56,83.772,10.952
57.59,80.824,10.505
57.62,77.701,10.115
57.65,74.648,9.772
57.69,71.559,9.302
57.72,68.19,8.752
57.75,64.68,8.214
57.78,61.276,7.755
57.82,58.012,7.251
57.85,54.713,6.724
57.88,51.274,6.186
57.92,47.343,5.682
57.95,43.483,5.189
57.98,39.973,4.582
58.01,36.078,3.941
58.05,33.13,3.712
58.08,33.797,4.009
58.11,36.499,4.33
58.14,32.358,3.677
58.18,21.864,2.864
58.21,14.565,1.673
58.24,8.282,0.137
58.27,2.562,-0.034
58.31,0.421,0.252
58.34,-0.211,-0.137
58.37,-2.036,-1.1
58.4,-6.352,-1.146
58.44,-8.318,-1.317
58.47,-13.547,-2.062
58.5,-19.022,-1.902
58.53,-20.917,-1.65
58.57,-23.97,-2.062
58.6,-28.287,-2.543
58.63,-31.235,-3.127
58.66,-33.551,-3.815
58.7,-35.622,-4.387
58.73,-37.096,-5.235
58.76,-38.254,-6.381
58.79,-40.149,-7.641
58.83,-43.167,-8.878
58.86,-46.15,-10.207
58.89,-51.66,-10.997
58.92,-57.03,-10.929
58.96,-60.925,-11.02
58.99,-64.821,-11.066
59.02,-67.664,-11.272
59.05,-70.541,-11.559
59.09,-73.665,-11.856
59.12,-76.964,-12.28
59.15,-80.298,-12.876
59.18,-83.878,-13.54
59.22,-87.422,-14.045
59.25,-90.44,-14.514
59.28,-93.178,-15.007
59.32,-96.336,-15.499
59.35,-99.776,-15.889
59.38,-103.004,-16.255
59.41,-106.128,-16.817
59.45,-109.848,-17.424
59.48,-113.147,-17.916
59.51,-116.446,-18.409
59.54,-119.675,-18.902
59.58,-122.763,-19.463
59.61,-126.588,-20.07
59.64,-130.414,-20.471
59.67,-133.292,-20.998
59.71,-137.117,-21.697
59.74,-140.556,-22.109
59.77,-142.346,-22.419
59.8,-144.943,-22.808
59.84,-148.663,-23.186
59.87,-151.155,-23.541
59.9,-153.787,-24.08
59.93,-157.227,-24.423
59.97,-159.578,-24.904
60.0,-162.245,-25.477
60.03,-165.263,-25.878
60.06,-168.176,-26.279
60.1,-171.019,-26.726
60.13,-173.441,-27.138
60.16,-176.248,-27.654
60.19,-179.547,-28.043
60.23,-181.793,-28.398
60.26,-183.899,-28.948
60.29,-187.022,-29.315
60.32,-189.304,-29.509
60.36,-191.234,-29.876
60.39,-193.48,-30.243
60.42,-195.866,-30.655
60.45,-198.499,-30.999
60.49,-200.745,-31.319
60.52,-202.745,-31.755
60.55,-204.781,-32.121
60.58,-206.606,-32.339
60.62,-208.536,-32.602
60.65,-210.747,-32.912
60.68,-212.642,-33.301
60.71,-214.888,-33.714
60.75,-217.169,-34.012
60.78,-218.924,-34.355
60.81,-220.784,-34.779
60.85,-222.96,-35.077
60.88,-224.925,-35.34
60.91,-227.031,-35.65
60.94,-228.821,-35.982
60.98,-230.54,-36.36
61.01,-232.927,-36.692
61.04,-234.682,-36.887
61.07,-235.98,-37.253
61.11,-237.735,-37.528
61.14,-239.279,-37.712
61.17,-241.104,-37.941
61.2,-242.613,-38.17
61.24,-243.806,-38.514
61.27,-245.772,-38.766
61.3,-247.035,-38.857
61.33,-248.053,-39.155
61.37,-249.597,-39.373
61.4,-250.755,-39.567
61.43,-252.299,-39.762
61.46,-253.598,-39.968
61.5,-255.002,-40.289
61.53,-256.862,-40.621
61.56,-258.301,-40.828
61.59,-259.178,-41.034
61.63,-260.161,-41.206
61.66,-261.249,-41.366
61.69,-262.653,-41.503
61.72,-264.091,-41.675
61.76,-265.46,-41.973
61.79,-266.794,-42.294
61.82,-268.092,-42.5
61.85,-269.11,-42.603
61.89,-269.952,-42.752
61.92,-270.935,-42.901
61.95,-271.777,-42.993
61.98,-272.935,-43.107
62.02,-274.129,-43.268
62.05,-275.111,-43.531
62.08,-275.919,-43.669
62.11,-276.515,-43.737
62.15,-277.217,-43.783
62.18,-277.673,-43.806
62.21,-277.849,-43.817
62.24,-278.551,-43.898
62.28,-279.428,-43.921
62.31,-279.849,-44.081
62.34,-280.27,-44.161
62.38,-280.586,-44.207
62.41,-281.253,-44.241
62.44,-281.183,-44.195
62.47,-280.867,-44.15
62.51,-281.288,-44.161
62.54,-281.955,-44.127
62.57,-281.779,-44.173
62.6,-281.639,-44.127
62.64,-281.569,-44.173
62.67,-282.692,-44.173
62.7,-281.604,-43.943
62.73,-280.867,-44.001
62.77,-281.569,-43.863
62.8,-281.253,-43.783
62.83,-280.376,-43.646
62.86,-279.604,-43.485
62.9,-278.972,-43.291
62.93,-278.165,-43.073
62.96,-277.217,-42.844
62.99,-276.41,-42.695
63.03,-275.848,-42.615
63.06,-275.497,-42.523
63.09,-275.006,-42.408
63.12,-274.199,-42.305
63.16,-272.9,-42.111
63.19,-271.637,-41.87
63.22,-270.689,-41.503
63.25,-269.25,-41.183
63.29,-268.057,-41.022
63.32,-267.215,-40.816
63.35,-266.057,-40.587
63.38,-264.688,-40.358
63.42,-263.179,-40.083
63.45,-261.494,-39.797
63.48,-260.371,-39.51
63.51,-259.178,-39.212
63.55,-257.739,-39.018
63.58,-256.265,-38.8
63.61,-255.142,-38.617
63.64,-254.44,-38.376
63.68,-252.65,-38.09
63.71,-250.58,-37.906
63.74,-249.773,-37.666
63.78,-248.65,-37.265
63.81,-246.754,-37.013
63.84,-245.21,-36.761
63.87,-243.245,-36.406
63.91,-241.736,-36.085
63.94,-240.227,-35.673
63.97,-238.016,-35.398
64.0,-236.015,-35.043
64.04,-233.945,-34.653
64.07,-232.295,-34.286
64.1,-230.119,-33.931
64.13,-228.61,-33.863
64.17,-227.733,-33.576
64.2,-225.487,-33.198
64.23,-223.135,-32.935
64.26,-221.591,-32.637
64.3,-220.012,-32.282
64.33,-218.187,-31.938
64.36,-216.432,-31.617
64.39,-214.607,-31.388
64.43,-212.923,-31.125
64.46,-210.712,-30.644
64.49,-207.974,-30.231
64.52,-205.974,-29.922
64.56,-203.938,-29.532
64.59,-201.622,-29.143
64.62,-199.657,-28.742
64.65,-197.2,-28.375
64.69,-194.708,-28.055
64.72,-192.427,-27.619
64.75,-189.935,-27.104
64.78,-186.917,-26.68
64.82,-184.145,-26.313
64.85,-182.179,-25.901
64.88,-180.074,-25.408
64.91,-177.09,-25.007
64.95,-174.248,-24.744
64.98,-171.721,-24.309
65.01,-168.948,-23.816
65.04,-166.176,-23.312
65.08,-162.807,-22.842
65.11,-159.894,-22.476
65.14,-157.542,-21.926
65.17,-153.682,-21.239
65.21,-149.681,-20.838
65.24,-147.014,-20.357
65.27,-143.645,-19.692
65.31,-140.311,-19.28
65.34,-137.819,-18.833
65.37,-134.976,-18.592
65.4,-133.186,-18.34
65.44,-129.677,-17.733
65.47,-126.167,-17.481
65.5,-123.781,-16.966
65.53,-120.657,-16.507
65.57,-117.253,-15.854
65.6,-113.393,-15.328
65.63,-110.515,-14.869
65.66,-107.04,-14.297
65.7,-103.461,-13.804
65.73,-100.653,-13.346
65.76,-97.319,-12.83
65.79,-93.423,-12.441
65.83,-90.335,-11.948
65.86,-87.177,-11.33
65.89,-83.386,-10.86
65.92,-79.701,-10.39
65.96,-76.367,-9.886
65.99,-73.454,-9.348
66.02,-69.98,-8.867
66.05,-66.505,-8.523
66.09,-63.593,-8.088
66.12,-60.294,-7.538
66.15,-56.573,-7.034
66.18,-53.099,-6.587
66.22,-49.976,-6.117
66.25,-46.642,-5.579
66.28,-42.921,-5.006
66.31,-39.131,-4.571
66.35,-35.657,-4.055
66.38,-32.533,-3.654
66.41,-32.323,-3.735
66.44,-34.428,-4.101
66.48,-31.972,-3.689
66.51,-22.04,-2.772
66.54,-14.003,-1.546
66.57,-7.195,-0.08
66.61,-1.193,0.149
66.64,0.246,0.149
66.67,0.983,0.916
66.71,4.703,1.191
66.74,6.738,1.168
66.77,10.248,1.867
66.8,17.021,1.959
66.84,21.338,1.65
66.87,21.057,1.512
66.9,23.163,2.44
66.93,29.375,2.772
66.97,32.182,2.795
67.0,32.603,3.494
67.03,34.253,4.513
67.06,37.096,5.373
67.1,39.447,6.175
67.13,41.272,7.32
67.16,43.483,8.993
67.19,46.571,10.699
67.23,51.695,11.673
67.26,57.381,11.627
67.29,61.452,11.559
67.32,65.979,11.57
67.36,69.875,11.57
67.39,72.472,11.742
67.42,74.858,12.154
67.45,78.297,12.578
67.49,81.421,12.899
67.52,84.334,13.426
67.55,87.949,14.033
67.58,91.353,14.629
67.62,94.722,15.156
67.65,97.81,15.58
67.68,100.513,16.003
67.71,103.461,16.519
67.75,106.9,16.897
67.78,110.234,17.321
67.81,113.393,17.825
67.84,116.692,18.478
67.88,120.412,19.016
67.91,123.43,19.406
67.94,126.167,19.875
67.97,129.01,20.322
68.01,131.432,20.609
68.04,133.958,20.964
68.07,137.187,21.284
68.1,139.468,21.743
68.14,142.522,22.304
68.17,145.821,22.739
68.2,149.33,23.278
68.24,151.892,23.747
68.27,155.191,24.526
68.3,159.297,24.939
68.33,161.929,25.385
68.37,164.702,25.947
68.4,168.001,26.462
68.43,170.984,26.829
68.46,173.897,27.218
68.5,176.81,27.631
68.53,179.582,28.135
68.56,182.039,28.559
68.59,184.882,28.937
68.63,187.444,29.189
68.66,189.268,29.601
68.69,191.515,29.933
68.72,193.796,30.22
68.76,196.252,30.54
68.79,198.253,30.941
68.82,200.464,31.4
68.85,203.026,31.72
68.89,204.956,31.95
68.92,206.395,32.305
68.95,208.711,32.66
68.98,210.957,32.992
69.02,213.344,33.359
69.05,215.414,33.748
69.08,217.345,34.183
69.11,219.556,34.55
69.15,221.451,34.71
69.18,222.714,34.962
69.21,224.89,35.34
69.24,226.855,35.558
69.28,228.61,35.879
69.31,230.26,36.074
69.34,231.418,36.417
69.37,233.594,36.749
69.41,235.103,36.91
69.44,236.507,37.219
69.47,237.805,37.368
69.5,239.349,37.769
69.54,241.771,38.021
69.57,243.28,38.262
69.6,244.719,38.64
69.63,246.684,39.018
69.67,248.299,39.201
69.7,249.457,39.407
69.73,251.282,39.671
69.77,252.791,39.911
69.8,254.124,40.186
69.83,255.774,40.404
69.86,257.108,40.61
69.9,258.336,40.862
69.93,259.178,40.988
69.96,260.02,41.103
69.99,261.249,41.171
70.03,262.372,41.412
70.06,263.811,41.675
70.09,265.39,41.962
70.12,266.934,42.202
70.16,268.233,42.512
70.19,269.321,42.741
70.22,270.233,42.878
70.25,271.286,42.89
70.29,272.058,42.993
70.32,273.076,43.165
70.35,274.269,43.336
70.38,275.533,43.497
70.42,276.34,43.657
70.45,277.077,43.829
70.48,277.638,43.898
70.51,278.13,43.886
70.55,278.481,43.875
70.58,278.937,43.932
70.61,279.709,44.024
70.64,280.27,44.081
70.68,280.305,44.092
70.71,280.446,44.138
70.74,280.972,44.15
70.77,280.902,44.092
70.81,280.481,44.024
70.84,280.902,44.035
70.87,281.569,44.058
70.9,281.604,44.127
70.94,281.885,44.195
70.97,282.236,44.207
71.0,282.13,44.218
71.03,282.376,44.195
71.07,281.815,44.001
71.1,281.393,43.955
71.13,281.709,43.817
71.17,280.621,43.634
71.2,279.814,43.52
71.23,279.323,43.245
71.26,278.27,43.073
71.3,277.428,42.89
71.33,276.515,42.718
71.36,276.585,42.649
71.39,276.27,42.58
71.43,275.217,42.592
71.46,274.796,42.512
71.49,273.988,42.202
71.52,272.585,41.973
71.56,271.602,41.733
71.59,270.374,41.458
71.62,269.215,41.16
71.65,267.987,40.873
71.69,266.548,40.679
71.72,265.565,40.495
71.75,264.267,40.186
71.78,262.407,39.888
71.82,261.073,39.625
71.85,259.775,39.35
71.88,258.406,39.109
71.91,256.967,38.8
71.95,255.458,38.571
71.98,254.124,38.399
72.01,252.861,38.136
72.04,251.352,37.815
72.08,249.632,37.517
72.11,248.053,37.288
72.14,246.368,36.944
72.17,244.298,36.543
72.21,243.105,36.291
72.24,241.56,35.925
72.27,239.209,35.673
72.3,237.454,35.295
72.34,235.98,34.962
72.37,234.261,34.699
72.4,232.365,34.493
72.43,230.821,34.16
72.47,228.926,33.794
72.5,227.452,33.599
72.53,225.803,33.313
72.56,223.732,33.026
72.6,222.188,32.66
72.63,220.644,32.339
72.66,218.678,32.076
72.7,216.643,31.755
72.73,215.028,31.388
72.76,213.028,30.953
72.79,210.501,30.678
72.83,208.536,30.369
72.86,206.641,29.91
72.89,203.973,29.452
72.92,201.482,29.131
72.96,199.376,28.753
72.99,197.235,28.364
73.02,194.989,27.94
73.05,192.322,27.539
73.09,189.549,27.173
73.12,187.022,26.737
73.15,184.636,26.256
73.18,182.32,25.855
73.22,179.968,25.523
73.25,177.371,25.156
73.28,174.669,24.733
73.31,171.861,24.251
73.35,168.913,23.862
73.38,166.106,23.381
73.41,163.017,22.808
73.44,159.964,22.281
73.48,157.086,21.88
73.51,153.998,21.445
73.54,150.278,20.826
73.57,146.663,20.265
73.61,143.82,19.749
73.64,140.205,19.222
73.67,137.328,18.902
73.7,135.117,18.375
73.74,132.028,18.054
73.77,128.975,17.756
73.8,125.887,17.321
73.83,123.64,16.931
73.87,120.587,16.324
73.9,116.446,15.912
73.93,112.971,15.362
73.96,109.848,14.697
74.0,106.444,14.09
74.03,102.548,13.586
74.06,99.074,13.197
74.09,96.371,12.635
74.13,92.581,12.074
74.16,89.001,11.73
74.19,86.159,11.307
74.23,83.351,10.906
74.26,80.473,10.447
74.29,77.315,10.081
74.32,74.261,9.726
74.36,71.103,9.245
74.39,67.839,8.706
74.42,64.751,8.225
74.45,61.522,7.79
74.49,58.223,7.332
74.52,55.17,6.828
74.55,51.871,6.301
74.58,48.045,5.842
74.62,44.325,5.35
74.65,40.921,4.766
74.68,37.166,4.135
74.71,34.253,3.906
74.75,34.464,4.09
74.78,36.429,4.365
74.81,33.832,3.964
74.84,24.216,2.99
74.88,15.512,1.913
74.91,9.616,0.389
74.94,3.685,-0.115
74.97,0.632,0.241
75.01,-0.175,-0.08
75.04,-2.246,-1.203
75.07,-7.861,-1.443
75.1,-11.195,-1.432
75.14,-16.003,-2.051
75.17,-20.074,-1.787
75.2,-20.847,-1.627
75.23,-24.426,-2.211
75.27,-30.006,-2.749
75.3,-32.779,-3.299
75.33,-34.042,-4.055
75.36,-35.832,-4.685
75.4,-36.674,-5.43
75.43,-37.306,-6.564
75.46,-39.833,-7.824
75.49,-43.413,-9.004
75.53,-46.817,-10.356
75.56,-52.678,-11.089
75.59,-57.732,-11.02
75.63,-61.171,-11.066
75.66,-64.68,-11.043
75.69,-67.523,-11.215
75.72,-70.576,-11.49
75.76,-73.805,-11.822
75.79,-77.209,-12.303
75.82,-80.368,-12.91
75.85,-83.878,-13.563
75.89,-87.492,-14.067
75.92,-90.546,-14.514
75.95,-93.353,-15.053
75.98,-96.722,-15.522
76.02,-99.951,-15.946
76.05,-103.25,-16.324
76.08,-106.374,-16.851
76.11,-109.883,-17.435
76.15,-113.252,-17.916
76.18,-116.446,-18.375
76.21,-119.745,-18.879
76.24,-122.833,-19.463
76.28,-126.939,-20.116
76.31,-130.589,-20.448
76.34,-132.941,-20.998
76.37,-136.906,-21.674
76.41,-140.205,-22.006
76.44,-142.03,-22.338
76.47,-144.768,-22.751
76.5,-148.593,-23.175
76.54,-151.015,-23.541
76.57,-153.612,-24.091
76.6,-157.402,-24.469
76.63,-159.508,-24.87
76.67,-161.789,-25.489
76.7,-165.228,-25.855
76.73,-167.966,-26.176
76.76,-170.598,-26.691
76.8,-173.16,-27.081
76.83,-175.967,-27.596
76.86,-179.477,-28.02
76.89,-181.723,-28.398
76.93,-183.864,-28.983
76.96,-186.917,-29.315
76.99,-188.953,-29.475
77.02,-190.813,-29.807
77.06,-192.989,-30.151
77.09,-195.586,-30.563
77.12,-198.148,-30.907
77.16,-200.183,-31.239
77.19,-202.219,-31.675
77.22,-204.64,-32.098
77.25,-206.781,-32.362
77.29,-208.711,-32.648
77.32,-210.922,-33.038
77.35,-212.993,-33.393
77.38,-214.958,-33.759
77.42,-217.38,-34.092
77.45,-219.415,-34.401
77.48,-221.065,-34.813
77.51,-223.03,-35.088
77.55,-224.82,-35.283
77.58,-226.82,-35.547
77.61,-228.294,-35.856
77.64,-230.014,-36.222
77.68,-232.506,-36.532
77.71,-234.19,-36.772
77.74,-235.384,-37.139
77.77,-237.314,-37.46
77.81,-239.069,-37.666
77.84,-240.999,-37.975
77.87,-242.578,-38.239
77.9,-243.877,-38.571
77.94,-245.912,-38.834
77.97,-247.281,-38.937
78.0,-248.439,-39.235
78.03,-250.159,-39.499
78.07,-251.633,-39.728
78.1,-253.212,-39.957
78.13,-254.335,-40.129
78.16,-255.353,-40.404
78.2,-257.178,-40.656
78.23,-258.336,-40.77
78.26,-258.968,-40.942
78.29,-259.845,-41.08
78.33,-260.968,-41.24
78.36,-262.337,-41.412
78.39,-263.67,-41.607
78.42,-264.969,-41.881
78.46,-266.267,-42.214
78.49,-267.636,-42.408
78.52,-268.724,-42.557
78.55,-269.777,-42.741
78.59,-270.83,-42.912
78.62,-271.637,-43.016
78.65,-272.795,-43.119
78.69,-273.953,-43.256
78.72,-274.936,-43.508
78.75,-275.848,-43.646
78.78,-276.445,-43.703
78.82,-277.077,-43.749
78.85,-277.498,-43.806
78.88,-277.849,-43.817
78.91,-278.516,-43.886
78.95,-279.358,-43.943
78.98,-279.779,-44.069
79.01,-280.095,-44.138
79.04,-280.481,-44.195
79.08,-281.042,-44.184
79.11,-280.867,-44.15
79.14,-280.656,-44.115
79.17,-281.007,-44.104
79.21,-281.499,-44.069
79.24,-281.323,-44.081
79.27,-281.393,-44.092
79.3,-281.604,-44.15
79.34,-282.446,-44.195
79.37,-281.569,-44.012
79.4,-280.797,-44.035
79.43,-281.393,-43.886
79.47,-281.148,-43.737
79.5,-280.095,-43.6
79.53,-279.358,-43.451
79.56,-278.726,-43.222
79.6,-277.779,-43.016
79.63,-276.866,-42.786
79.66,-276.024,-42.649
79.69,-275.743,-42.592
79.73,-275.427,-42.523
79.76,-274.796,-42.408
79.79,-273.953,-42.294
79.82,-272.83,-42.122
79.86,-271.707,-41.881
79.89,-270.619,-41.515
79.92,-269.391,-41.251
79.95,-268.513,-41.091
79.99,-267.496,-40.908
80.02,-266.443,-40.724
80.05,-265.565,-40.507
80.09,-263.951,-40.22
80.12,-262.267,-39.991
80.15,-261.354,-39.705
80.18,-260.301,-39.419
80.22,-258.932,-39.224
80.25,-257.353,-39.018
80.28,-256.09,-38.777
80.31,-255.177,-38.502
80.35,-253.352,-38.17
80.38,-251.282,-37.975
80.41,-250.369,-37.712
80.44,-248.965,-37.276
80.48,-247.105,-37.047
80.51,-245.526,-36.784
80.54,-243.631,-36.463
80.57,-242.087,-36.154
80.61,-240.332,-35.718
80.64,-238.156,-35.421
80.67,-236.507,-35.157
80.7,-235.243,-34.836
80.74,-233.313,-34.47
80.77,-230.927,-34.206
80.8,-229.523,-34.034
80.83,-228.329,-33.691
80.87,-225.978,-33.278
80.9,-223.451,-32.935
80.93,-221.942,-32.648
80.96,-220.328,-32.27
81.0,-218.292,-31.938
81.03,-216.502,-31.617
81.06,-214.397,-31.319
81.09,-212.396,-31.022
81.13,-210.291,-30.552
81.16,-207.693,-30.128
81.19,-205.482,-29.842
81.22,-203.307,-29.429
81.26,-201.06,-29.051
81.29,-199.165,-28.65
81.32,-196.849,-28.318
81.35,-194.322,-28.02
81.39,-192.041,-27.574
81.42,-189.549,-27.069
81.45,-186.707,-26.669
81.48,-184.18,-26.325
81.52,-182.004,-25.912
81.55,-179.898,-25.42
81.58,-177.055,-25.019
81.62,-174.248,-24.755
81.65,-171.721,-24.332
81.68,-168.913,-23.816
81.71,-165.825,-23.278
81.75,-162.561,-22.819
81.78,-159.929,-22.441
81.81,-157.753,-21.914
81.84,-153.577,-21.227
81.88,-149.365,-20.849
81.91,-146.909,-20.322
81.94,-143.645,-19.704
81.97,-140.591,-19.291
82.01,-137.679,-18.821
82.04,-134.415,-18.558
82.07,-132.414,-18.237
82.1,-129.15,-17.607
82.14,-125.957,-17.378
82.17,-123.921,-16.977
82.2,-120.973,-16.565
82.23,-117.429,-15.958
82.27,-113.428,-15.385
82.3,-110.234,-14.869
82.33,-106.654,-14.251
82.36,-103.11,-13.701
82.4,-100.162,-13.197
82.43,-96.687,-12.716
82.46,-92.722,-12.292
82.49,-89.458,-11.765
82.53,-86.194,-11.192
82.56,-82.755,-10.745
82.59,-79.456,-10.356
82.62,-76.402,-9.909
82.66,-73.524,-9.428
82.69,-69.804,-8.901
82.72,-65.909,-8.5
82.75,-62.961,-8.019
82.79,-59.837,-7.412
82.82,-56.047,-6.908
82.85,-52.502,-6.484
82.88,-49.309,-6.014
82.92,-46.22,-5.522
82.95,-42.641,-4.949
82.98,-38.815,-4.559
83.02,-35.692,-4.113
83.05,-33.025,-3.746
83.08,-33.411,-4.009
83.11,-36.324,-4.41
83.15,-33.481,-4.055
83.18,-24.005,-3.208
83.21,-16.109,-1.925
83.24,-9.511,-0.355
83.28,-3.299,-0.046
83.31,-0.175,-0.321
83.34,0.491,0.172
83.37,2.808,1.34
83.41,8.282,1.443
83.44,11.23,1.478
83.47,16.881,2.073
83.5,21.864,1.627
83.54,20.285,1.386
83.57,22.496,2.463
83.6,29.585,2.795
83.63,32.779,2.807
83.67,32.884,3.528
83.7,34.288,4.559
83.73,36.71,5.361
83.76,38.57,6.083
83.8,40.044,7.183
83.83,42.395,8.729
83.86,45.834,10.39
83.89,50.958,11.41
83.93,56.468,11.467
83.96,60.364,11.41
83.99,64.821,11.456
84.02,68.752,11.41
84.06,71.349,11.604
84.09,73.84,11.994
84.12,77.28,12.429
84.15,80.684,12.807
84.19,83.772,13.334
84.22,87.177,13.987
84.25,90.581,14.56
84.28,93.88,15.053
84.32,96.793,15.442
84.35,99.565,15.889
84.38,102.864,16.404
84.41,106.444,16.828
84.45,109.918,17.309
84.48,113.147,17.836
84.51,116.13,18.409
84.55,119.394,18.925
84.58,122.763,19.303
84.61,125.711,19.749
84.64,128.94,20.357
84.68,133.186,20.964
84.71,136.836,21.422
84.74,139.328,21.903
84.77,141.89,22.453
84.81,145.786,22.98
84.84,148.979,23.255
84.87,151.611,23.759
84.9,154.84,24.206
84.94,157.613,24.687
84.97,160.526,25.122
85.0,163.509,25.5
85.03,165.93,25.912
85.07,168.668,26.474
85.1,171.861,26.817
85.13,174.318,27.15
85.16,176.985,27.631
85.2,179.863,28.112
85.23,182.179,28.559
85.26,184.952,28.937
85.29,187.268,29.154
85.33,188.953,29.555
85.36,191.339,29.876
85.39,193.655,30.162
85.42,196.007,30.495
85.46,197.972,30.884
85.49,200.043,31.308
85.52,202.64,31.675
85.55,204.71,31.892
85.59,206.114,32.27
85.62,208.22,32.614
85.65,210.291,32.866
85.68,212.502,33.221
85.72,214.713,33.576
85.75,216.818,34.069
85.78,219.31,34.493
85.81,221.135,34.687
85.85,222.223,34.951
85.88,224.574,35.34
85.91,227.031,35.615
85.94,229.102,35.97
85.98,230.997,36.268
86.01,232.471,36.658
86.04,234.647,37.013
86.08,236.366,37.208
86.11,237.84,37.448
86.14,239.279,37.689
86.17,241.174,38.032
86.21,243.069,38.239
86.24,244.298,38.445
86.27,245.807,38.754
86.3,247.737,39.109
86.34,249.141,39.281
86.37,250.018,39.453
86.4,251.878,39.705
86.43,253.387,39.923
86.47,254.44,40.198
86.5,256.09,40.404
86.53,257.318,40.598
86.56,258.476,40.839
86.6,259.424,40.988
86.63,260.371,41.137
86.66,261.6,41.24
86.69,262.758,41.481
86.73,264.127,41.744
86.76,265.636,41.996
86.79,267.11,42.202
86.82,268.268,42.5
86.86,269.286,42.706
86.89,270.233,42.832
86.92,271.356,42.878
86.95,272.198,43.004
86.99,273.286,43.199
87.02,274.48,43.382
87.05,275.638,43.52
87.08,276.375,43.657
87.12,277.007,43.806
87.15,277.708,43.875
87.18,278.27,43.875
87.21,278.621,43.875
87.25,279.112,43.955
87.28,279.849,44.047
87.31,280.551,44.138
87.34,280.621,44.138
87.38,280.692,44.184
87.41,281.218,44.184
87.44,281.113,44.115
87.48,280.621,44.024
87.51,281.007,44.035
87.54,281.639,44.035
87.57,281.393,44.035
87.61,281.113,44.035
87.64,281.253,43.966
87.67,281.218,43.943
87.7,281.288,43.932
87.74,280.832,43.783
87.77,280.551,43.76
87.8,280.867,43.691
87.83,280.27,43.611
87.87,279.709,43.52
87.9,279.218,43.313
87.93,278.27,43.13
87.96,277.428,42.924
88.0,276.62,42.741
88.03,276.515,42.638
88.06,276.199,42.557
88.09,275.146,42.546
88.13,274.655,42.443
88.16,273.883,42.134
88.19,272.514,41.916
88.22,271.532,41.721
88.26,270.444,41.458
88.29,269.356,41.183
88.32,268.127,40.908
88.35,266.689,40.702
88.39,265.495,40.484
88.42,264.197,40.175
88.45,262.723,39.877
88.48,261.179,39.602
88.52,259.81,39.361
88.55,258.476,39.075
88.58,257.037,38.8
88.61,255.634,38.594
88.65,254.37,38.399
88.68,252.861,38.136
88.71,251.457,37.815
88.74,250.089,37.563
88.78,248.79,37.391
88.81,247.211,37.082
88.84,245.0,36.681
88.87,243.456,36.371
88.91,241.946,35.993
88.94,239.841,35.684
88.97,237.735,35.295
89.01,236.507,35.031
89.04,234.927,34.722
89.07,232.751,34.55
89.1,231.453,34.286
89.14,230.084,33.931
89.17,228.014,33.668
89.2,226.048,33.427
89.23,224.329,33.038
89.27,222.398,32.602
89.3,220.398,32.27
89.33,218.538,31.961
89.36,216.608,31.652
89.4,214.958,31.319
89.43,212.958,30.93
89.46,210.255,30.632
89.49,208.22,30.311
89.53,206.255,29.83
89.56,203.763,29.383
89.59,201.376,29.086
89.62,199.306,28.742
89.66,197.165,28.352
89.69,194.849,27.917
89.72,192.146,27.516
89.75,189.549,27.161
89.79,187.022,26.703
89.82,184.425,26.21
89.85,182.074,25.809
89.88,179.863,25.466
89.92,177.266,25.122
89.95,174.599,24.698
89.98,171.686,24.206
90.01,168.843,23.85
90.05,166.141,23.369
90.08,163.193,22.842
90.11,160.28,22.327
90.14,157.191,21.903
90.18,153.893,21.422
90.21,150.208,20.78
90.24,146.768,20.242
90.27,143.925,19.726
90.31,140.416,19.257
90.34,137.573,18.925
90.37,135.222,18.386
90.4,132.169,18.088
90.44,129.326,17.79
90.47,126.237,17.355
90.5,123.746,16.954
90.54,120.728,16.359
90.57,116.516,15.866
90.6,112.971,15.339
90.63,109.988,14.663
90.67,106.339,14.045
90.7,102.478,13.575
90.73,99.179,13.151
90.76,96.301,12.624
90.8,92.581,12.063
90.83,88.861,11.696
90.86,85.983,11.307
90.89,83.246,10.86
90.93,80.193,10.39
90.96,77.174,10.058
90.99,74.261,9.691
91.02,71.103,9.245
91.06,67.874,8.718
91.09,64.575,8.202
91.12,61.171,7.755
91.15,57.767,7.251
91.19,54.538,6.713
91.22,51.309,6.186
91.25,47.414,5.693
91.28,43.588,5.247
91.32,40.289,4.639
91.35,36.429,4.009
91.38,33.2,3.735
91.41,33.762,4.032
91.45,36.464,4.296
91.48,32.744,3.757
91.51,22.672,2.921
91.54,14.81,1.718
91.58,8.598,0.218
91.61,2.913,-0.046
91.64,0.421,0.275
91.67,-0.175,-0.115
91.71,-2.211,-1.191
91.74,-7.545,-1.363
91.77,-10.423,-1.409
91.8,-15.337,-2.073
91.84,-19.688,-1.787
91.87,-20.811,-1.627
91.9,-24.426,-2.188
91.94,-29.48,-2.692
91.97,-32.112,-3.242
92.0,-33.727,-3.975
92.03,-35.797,-4.571
92.07,-36.815,-5.35
92.1,-37.552,-6.495
92.13,-39.903,-7.755
92.16,-43.378,-8.935
92.2,-46.606,-10.264
92.23,-52.222,-11.055
92.26,-57.556,-10.997
92.29,-61.136,-11.032
92.33,-64.751,-11.1
92.36,-67.909,-11.272
92.39,-70.787,-11.524
92.42,-73.805,-11.856
92.46,-77.28,-12.315
92.49,-80.544,-12.887
92.52,-83.807,-13.529
92.55,-87.492,-14.067
92.59,-90.721,-14.514
92.62,-93.423,-15.041
92.65,-96.722,-15.545
92.68,-100.162,-15.935
92.72,-103.25,-16.313
92.75,-106.339,-16.84
92.78,-109.918,-17.435
92.81,-113.322,-17.905
92.85,-116.516,-18.375
92.88,-119.64,-18.867
92.91,-122.693,-19.429
92.94,-126.799,-20.07
92.98,-130.8,-20.471
93.01,-133.362,-21.021
93.04,-137.012,-21.72
93.07,-140.311,-22.04
93.11,-141.995,-22.327
93.14,-144.733,-22.716
93.17,-148.593,-23.152
93.2,-151.225,-23.518
93.24,-153.787,-24.08
93.27,-157.402,-24.481
93.3,-159.578,-24.87
93.33,-161.719,-25.42
93.37,-165.053,-25.821
93.4,-168.106,-26.142
93.43,-170.563,-26.634
93.47,-173.09,-27.069
93.5,-176.003,-27.551
93.53,-179.372,-27.974
93.56,-181.583,-28.341
93.6,-183.723,-28.902
93.63,-186.952,-29.28
93.66,-189.198,-29.464
93.69,-190.918,-29.819
93.73,-193.164,-30.185
93.76,-195.761,-30.598
93.79,-198.463,-30.941
93.82,-200.639,-31.285
93.86,-202.499,-31.709
93.89,-204.605,-32.076
93.92,-206.641,-32.293
93.95,-208.711,-32.58
93.99,-210.887,-32.935
94.02,-212.958,-33.359
94.05,-214.993,-33.714
94.08,-217.204,-34.046
94.12,-219.205,-34.367
94.15,-221.065,-34.768
94.18,-223.065,-35.065
94.21,-224.925,-35.283
94.25,-226.855,-35.547
94.28,-228.435,-35.867
94.31,-230.084,-36.2
94.34,-232.401,-36.509
94.38,-234.225,-36.738
94.41,-235.349,-37.082
94.44,-237.173,-37.402
94.47,-239.069,-37.609
94.51,-240.858,-37.895
94.54,-242.473,-38.158
94.57,-243.701,-38.491
94.6,-245.772,-38.788
94.64,-247.491,-38.892
94.67,-248.299,-39.201
94.7,-250.018,-39.464
94.73,-251.527,-39.659
94.77,-252.931,-39.877
94.8,-254.195,-40.06
94.83,-255.318,-40.346
94.87,-257.108,-40.61
94.9,-258.301,-40.736
94.93,-258.932,-40.919
94.96,-259.915,-41.057
95.0,-261.003,-41.217
95.03,-262.337,-41.377
95.06,-263.67,-41.572
95.09,-264.969,-41.859
95.13,-266.338,-42.168
95.16,-267.601,-42.374
95.19,-268.689,-42.512
95.22,-269.742,-42.683
95.26,-270.795,-42.867
95.29,-271.672,-42.981
95.32,-272.83,-43.084
95.35,-273.918,-43.245
95.39,-274.901,-43.462
95.42,-275.743,-43.6
95.45,-276.41,-43.657
95.48,-276.971,-43.703
95.52,-277.428,-43.737
95.55,-277.708,-43.772
95.58,-278.481,-43.84
95.61,-279.393,-43.898
95.65,-279.849,-44.069
95.68,-280.235,-44.138
95.71,-280.586,-44.195
95.74,-281.183,-44.184
95.78,-281.113,-44.161
95.81,-280.972,-44.138
95.84,-281.288,-44.127
95.87,-281.815,-44.092
95.91,-281.709,-44.138
95.94,-281.885,-44.138
95.97,-282.025,-44.184
96.0,-282.903,-44.241
96.04,-282.201,-44.069
96.07,-281.253,-44.047
96.1,-281.639,-43.898
96.13,-281.639,-43.795
96.17,-280.832,-43.623
96.2,-279.639,-43.474
96.23,-279.147,-43.279
96.26,-278.375,-43.027
96.3,-277.217,-42.809
96.33,-276.445,-42.66
96.36,-275.919,-42.58
96.4,-275.497,-42.489
96.43,-274.831,-42.351
96.46,-273.988,-42.248
96.49,-272.935,-42.088
96.53,-271.883,-41.87
96.56,-270.9,-41.549
96.59,-269.707,-41.274
96.62,-268.689,-41.137
96.66,-267.706,-40.931
96.69,-266.513,-40.69
96.72,-265.355,-40.461
96.75,-263.916,-40.175
96.79,-262.196,-39.877
96.82,-260.757,-39.579
96.85,-259.634,-39.27
96.88,-258.336,-39.063
96.92,-256.827,-38.846
96.95,-255.458,-38.617
96.98,-254.546,-38.365
97.01,-252.896,-38.078
97.05,-250.861,-37.883
97.08,-249.913,-37.643
97.11,-248.685,-37.231
97.14,-246.544,-36.956
97.18,-245.0,-36.715
97.21,-243.28,-36.36
97.24,-241.841,-36.074
97.27,-240.227,-35.684
97.31,-237.84,-35.375
97.34,-236.261,-35.134
97.37,-234.998,-34.756
97.4,-232.857,-34.39
97.44,-230.435,-34.115
97.47,-229.242,-33.943
97.5,-228.014,-33.599
97.53,-225.662,-33.187
97.57,-223.03,-32.866
97.6,-221.451,-32.557
97.63,-219.696,-32.133
97.66,-217.766,-31.812
97.7,-216.151,-31.514
97.73,-214.116,-31.251
97.76,-212.186,-30.987
97.79,-210.08,-30.529
97.83,-207.518,-30.117
97.86,-205.412,-29.819
97.89,-203.307,-29.429
97.93,-201.236,-29.063
97.96,-199.376,-28.696
97.99,-197.025,-28.364
98.02,-194.463,-28.043
98.06,-192.076,-27.574
98.09,-189.69,-27.069
98.12,-186.917,-26.68
98.15,-184.18,-26.302
98.19,-182.074,-25.912
98.22,-180.038,-25.408
98.25,-177.126,-25.019
98.28,-174.283,-24.744
98.32,-171.826,-24.32
98.35,-169.054,-23.816
98.38,-166.035,-23.289
98.41,-162.772,-22.831
98.45,-159.999,-22.441
98.48,-157.753,-21.914
98.51,-153.893,-21.25
98.54,-149.751,-20.872
98.58,-147.224,-20.379
98.61,-144.031,-19.761
98.64,-140.767,-19.337
98.67,-137.819,-18.867
98.71,-134.766,-18.569
98.74,-132.87,-18.272
98.77,-129.536,-17.642
98.8,-126.273,-17.424
98.84,-124.132,-17.0
98.87,-121.078,-16.565
98.9,-117.534,-15.946
98.93,-113.393,-15.339
98.97,-110.023,-14.823
99.0,-106.514,-14.182
99.03,-102.794,-13.598
99.06,-99.6,-13.094
99.1,-96.196,-12.613
99.13,-92.441,-12.212
99.16,-89.212,-11.696
99.19,-86.018,-11.169
99.23,-82.79,-10.768
99.26,-79.526,-10.379
99.29,-76.613,-9.978
99.33,-73.84,-9.52
99.36,-70.19,-8.993
99.39,-66.33,-8.603
99.42,-63.593,-8.133
99.46,-60.574,-7.526
99.49,-57.065,-7.091
99.52,-53.871,-6.69
99.55,-50.467,-6.209
99.59,-47.133,-5.693
99.62,-43.448,-5.086
99.65,-39.517,-4.639
99.68,-36.183,-4.147
99.72,-33.621,-3.815
99.75,-34.358,-4.067
99.78,-36.92,-4.479
99.81,-33.305,-3.998
99.85,-22.952,-3.07
99.88,-15.021,-1.65
99.91,-7.861,-0.103
99.94,-1.685,0.069
99.98,0.246,0.0
100.01,0.912,0.871
100.04,5.054,1.409
100.07,8.704,1.283
100.11,11.932,1.776
100.14,18.32,1.982
100.17,21.303,1.42
100.2,19.443,1.409
100.24,22.531,2.474
100.27,29.445,2.715
100.3,32.217,2.749
100.33,32.568,3.482
100.37,34.499,4.536
100.4,37.201,5.327
100.43,38.956,6.083
100.46,40.43,7.251
100.5,42.816,8.821
100.53,45.764,10.47
100.56,50.607,11.559
100.59,56.538,11.559
100.63,60.539,11.467
100.66,65.031,11.513
100.69,69.208,11.478
100.72,71.77,11.685
100.76,74.367,12.074
100.79,77.631,12.498
100.82,81.0,12.865
100.86,84.053,13.357
100.89,87.282,13.976
100.92,90.581,14.526
100.95,93.845,14.995
100.99,96.968,15.419
101.02,99.741,15.889
101.05,102.934,16.427
101.08,106.549,16.851
101.12,109.883,17.286
101.15,113.077,17.848
101.18,116.306,18.398
101.21,119.675,18.936
101.25,123.184,19.383
101.28,126.273,19.864
101.31,129.466,20.448
101.34,133.467,21.044
101.38,137.047,21.468
101.41,139.468,21.914
101.44,141.995,22.419
101.47,145.715,22.945
101.51,149.541,23.312
101.54,152.769,23.873
101.57,156.77,24.618
101.6,160.701,25.259
101.64,163.228,25.706
101.67,166.281,26.279
101.7,170.177,26.669
101.73,172.493,27.081
101.77,175.476,27.562
101.8,178.74,27.848
101.83,181.056,28.272
101.86,183.232,28.742
101.9,185.864,29.04
101.93,188.321,29.292
101.96,190.462,29.544
101.99,192.041,29.888
102.03,194.077,30.243
102.06,196.463,30.518
102.09,198.779,30.838
102.12,200.604,31.262
102.16,202.921,31.709
102.19,205.132,31.995
102.22,206.956,32.236
102.25,208.43,32.545
102.29,210.677,32.946
102.32,213.063,33.255
102.35,215.309,33.611
102.39,217.169,33.977
102.42,218.994,34.412
102.45,221.486,34.79
102.48,223.346,34.928
102.52,224.223,35.18
102.55,226.364,35.547
102.58,228.786,35.799
102.61,230.751,36.154
102.65,232.365,36.417
102.68,233.453,36.761
102.71,235.805,37.105
102.74,237.454,37.231
102.78,238.297,37.494
102.81,240.297,37.792
102.84,241.911,38.021
102.87,243.806,38.388
102.91,245.456,38.514
102.94,246.298,38.846
102.97,248.369,39.178
103.0,249.702,39.281
103.04,250.615,39.51
103.07,252.65,39.762
103.1,254.195,40.037
103.13,256.02,40.45
103.17,257.494,40.61
103.2,258.371,40.885
103.23,259.74,41.034
103.26,260.477,41.148
103.3,261.6,41.251
103.33,262.933,41.389
103.36,264.267,41.652
103.39,265.741,41.95
103.43,267.075,42.191
103.46,268.408,42.397
103.49,269.777,42.66
103.52,270.689,42.855
103.56,271.707,42.981
103.59,272.865,43.05
103.62,274.059,43.245
103.65,275.287,43.474
103.69,276.585,43.68
103.72,277.533,43.806
103.75,278.305,43.921
103.79,278.656,43.966
103.82,279.463,44.058
103.85,277.252,43.313
103.88,268.864,41.881
103.92,264.267,40.965
103.95,266.338,40.243
103.98,265.636,40.026
104.01,263.635,40.518
104.05,263.776,40.885
104.08,264.232,41.229
104.11,265.109,41.595
104.14,267.004,42.042
104.18,269.461,42.546
104.21,271.216,42.993
104.24,271.883,43.21
104.27,273.146,43.313
104.31,274.304,43.233
104.34,274.199,43.199
104.37,274.304,43.073
104.4,274.409,42.855
104.44,274.971,42.844
104.47,275.252,42.844
104.5,274.971,42.89
104.53,275.252,42.89
104.57,275.497,42.798
104.6,275.217,42.821
104.63,275.006,42.786
104.66,275.076,42.706
104.7,275.603,42.66
104.73,275.603,42.672
104.76,275.357,42.775
104.79,275.322,42.649
104.83,274.55,42.374
104.86,273.251,42.099
104.89,272.163,41.859
104.92,271.391,41.595
104.96,270.724,41.366
104.99,269.742,41.16
105.02,268.338,40.999
105.05,267.25,40.816
105.09,266.057,40.495
105.12,264.337,40.152
105.15,262.828,39.888
105.18,261.705,39.602
105.22,260.266,39.327
105.25,258.617,39.041
105.28,257.143,38.8
105.32,255.739,38.559
105.35,254.265,38.307
105.38,252.861,37.987
105.41,251.106,37.689
105.45,249.667,37.54
105.48,248.439,37.265
105.51,246.86,36.956
105.54,245.386,36.681
105.58,243.701,36.406
105.61,242.017,36.154
105.64,240.437,35.764
105.67,238.472,35.398
105.71,236.752,35.111
105.74,234.787,34.722
105.77,232.576,34.412
105.8,231.313,34.057
105.84,228.751,33.645
105.87,226.048,33.381
105.9,223.802,32.843
105.93,222.258,32.545
105.97,220.749,32.156
106.0,218.187,31.95
106.03,216.573,31.709
106.06,215.134,31.365
106.1,212.958,31.01
106.13,210.501,30.724
106.16,208.466,30.392
106.19,206.5,29.933
106.23,204.114,29.475
106.26,201.622,29.177
106.29,199.727,28.868
106.32,197.867,28.478
106.36,195.41,28.043
106.39,192.638,27.677
106.42,190.076,27.276
106.45,187.689,26.829
106.49,185.408,26.394
106.52,182.951,25.993
106.55,180.46,25.66
106.58,177.933,25.259
106.62,175.406,24.813
106.65,172.458,24.366
106.68,169.65,23.988
106.71,166.983,23.541
106.75,163.824,22.968
106.78,160.841,22.476
106.81,157.402,21.903
106.85,153.787,21.502
106.88,151.19,20.895
106.91,147.295,20.276
106.94,144.557,19.967
106.98,141.118,19.36
107.01,138.31,19.165
107.04,136.415,18.569
107.07,132.66,18.226
107.11,129.782,17.962
107.14,127.115,17.481
107.17,124.307,16.989
107.2,120.973,16.462
107.24,116.937,15.912
107.27,113.042,15.339
107.3,109.813,14.64
107.33,106.339,14.022
107.37,102.478,13.552
107.4,99.109,13.151
107.43,96.091,12.624
107.46,92.336,12.063
107.5,88.686,11.719
107.53,86.194,11.352
107.56,83.527,10.929
107.59,80.473,10.505
107.63,77.385,10.161
107.66,74.507,9.794
107.69,71.313,9.279
107.72,67.839,8.718
107.76,64.435,8.214
107.79,61.241,7.732
107.82,57.837,7.228
107.85,54.503,6.713
107.89,51.028,6.175
107.92,47.168,5.67
107.95,43.518,5.212
107.98,40.289,4.617
108.02,36.499,4.078
108.05,34.499,4.009
108.08,35.411,4.227
108.11,36.745,4.445
108.15,32.709,3.918
108.18,23.022,2.921
108.21,15.056,1.776
108.25,9.967,0.378
108.28,4.352,-0.046
108.31,1.334,0.355
108.34,0.0,0.103
108.38,-1.299,-0.997
108.41,-6.282,-1.489
108.44,-9.16,-1.157
108.47,-11.792,-1.81
108.51,-16.916,-1.879
108.54,-19.337,-1.524
108.57,-22.672,-1.97
108.6,-27.409,-2.509
108.64,-31.024,-3.07
108.67,-33.586,-3.723
108.7,-36.078,-4.353
108.73,-37.341,-5.212
108.77,-38.184,-6.392
108.8,-39.798,-7.618
108.83,-42.57,-8.786
108.86,-45.273,-10.184
108.9,-51.239,-11.146
108.93,-57.275,-11.066
108.96,-60.925,-11.158
108.99,-64.786,-11.261
109.03,-68.015,-11.41
109.06,-70.682,-11.627
109.09,-73.63,-11.925
109.12,-77.139,-12.326
109.16,-80.228,-12.853
109.19,-83.667,-13.529
109.22,-87.492,-14.056
109.25,-90.511,-14.514
109.29,-93.143,-15.075
109.32,-96.477,-15.534
109.35,-99.706,-15.923
109.38,-103.004,-16.324
109.42,-106.374,-16.863
109.45,-109.778,-17.458
109.48,-113.252,-17.985
109.51,-116.621,-18.466
109.55,-119.745,-18.947
109.58,-122.728,-19.52
109.61,-126.659,-20.116
109.64,-130.554,-20.494
109.68,-133.362,-21.067
109.71,-137.012,-21.708
109.74,-139.854,-22.063
109.78,-141.75,-22.338
109.81,-143.855,-22.59
109.84,-147.61,-23.117
109.87,-150.769,-23.404
109.91,-153.015,-23.976
109.94,-156.911,-24.526
109.97,-159.648,-24.939
110.0,-161.438,-25.5
110.04,-164.597,-25.947
110.07,-168.036,-26.245
110.1,-170.493,-26.703
110.13,-172.949,-27.173
110.17,-175.792,-27.619
110.2,-179.161,-28.032
110.23,-181.407,-28.41
110.26,-183.513,-28.971
110.3,-186.707,-29.349
110.33,-188.953,-29.544
110.36,-190.707,-29.888
110.39,-192.953,-30.254
110.43,-195.551,-30.655
110.46,-198.218,-31.022
110.49,-200.394,-31.377
110.52,-202.289,-31.789
110.56,-204.5,-32.19
110.59,-206.676,-32.431
110.62,-208.606,-32.706
110.65,-210.782,-33.084
110.69,-212.817,-33.45
110.72,-214.958,-33.863
110.75,-217.31,-34.16
110.78,-219.205,-34.504
110.82,-221.135,-34.951
110.85,-223.346,-35.214
110.88,-225.066,-35.455
110.91,-227.242,-35.776
110.95,-229.066,-36.085
110.98,-230.505,-36.463
111.01,-232.962,-36.772
111.04,-234.787,-36.99
111.08,-236.086,-37.379
111.11,-237.875,-37.643
111.14,-239.314,-37.803
111.18,-240.788,-38.01
111.21,-242.227,-38.239
111.24,-243.631,-38.536
111.27,-245.456,-38.788
111.31,-246.93,-38.937
111.34,-247.807,-39.201
111.37,-249.281,-39.487
111.4,-251.071,-39.728
111.44,-252.615,-39.945
111.47,-253.984,-40.232
111.5,-255.353,-40.518
111.53,-256.932,-40.793
111.57,-258.336,-40.954
111.6,-259.143,-41.103
111.63,-260.126,-41.286
111.66,-261.249,-41.423
111.7,-262.512,-41.584
111.73,-263.986,-41.767
111.76,-265.25,-42.065
111.79,-266.724,-42.397
111.83,-268.057,-42.603
111.86,-269.075,-42.741
111.89,-269.952,-42.901
111.92,-270.97,-43.073
111.96,-271.777,-43.13
111.99,-272.9,-43.245
112.02,-274.059,-43.405
112.05,-275.146,-43.646
112.09,-276.094,-43.806
112.12,-276.585,-43.863
112.15,-277.182,-43.909
112.18,-277.603,-43.955
112.22,-278.024,-43.966
112.25,-278.621,-44.035
112.28,-279.428,-44.104
112.31,-280.025,-44.23
112.35,-280.341,-44.322
112.38,-280.621,-44.356
112.41,-281.113,-44.344
112.44,-281.007,-44.31
112.48,-280.762,-44.241
112.51,-281.007,-44.23
112.54,-281.113,-44.115
112.57,-281.218,-44.23
112.61,-282.095,-44.241
112.64,-281.639,-44.322
112.67,-282.481,-44.402
112.71,-281.709,-44.173
112.74,-281.007,-44.184
112.77,-281.288,-43.978
112.8,-281.183,-43.909
112.84,-280.762,-43.783
112.87,-279.709,-43.646
112.9,-278.902,-43.439
112.93,-278.094,-43.176
112.97,-277.147,-42.935
113.0,-276.305,-42.798
113.03,-275.848,-42.741
113.06,-275.497,-42.649
113.1,-275.076,-42.557
113.13,-274.199,-42.466
113.16,-272.971,-42.305
113.19,-271.848,-42.03
113.23,-270.83,-41.698
113.26,-269.707,-41.412
113.29,-268.654,-41.274
113.32,-267.776,-41.091
113.36,-266.583,-40.85
113.39,-265.39,-40.633
113.42,-263.846,-40.312
113.45,-261.88,-39.991
113.49,-260.512,-39.671
113.52,-259.389,-39.35
113.55,-258.09,-39.132
113.58,-256.441,-38.892
113.62,-255.037,-38.697
113.65,-254.195,-38.422
113.68,-252.475,-38.158
113.71,-250.65,-38.021
113.75,-249.738,-37.757
113.78,-248.579,-37.402
113.81,-246.93,-37.185
113.84,-245.421,-36.956
113.88,-243.982,-36.692
113.91,-242.683,-36.36
113.94,-240.718,-35.959
113.97,-238.507,-35.673
114.01,-236.998,-35.34
114.04,-235.594,-34.997
114.07,-233.664,-34.607
114.1,-230.962,-34.298
114.14,-229.663,-34.126
114.17,-228.329,-33.691
114.2,-225.592,-33.29
114.24,-223.03,-32.935
114.27,-221.521,-32.637
114.3,-219.907,-32.259
114.33,-217.801,-31.938
114.37,-216.151,-31.675
114.4,-214.256,-31.411
114.43,-212.396,-31.159
114.46,-210.431,-30.701
114.5,-207.764,-30.277
114.53,-205.693,-30.002
114.56,-203.622,-29.59
114.59,-201.411,-29.2
114.63,-199.692,-28.845
114.66,-197.375,-28.501
114.69,-194.638,-28.181
114.72,-192.392,-27.734
114.76,-189.935,-27.184
114.79,-186.847,-26.76
114.82,-184.25,-26.416
114.85,-182.179,-25.958
114.89,-179.863,-25.489
114.92,-177.126,-25.122
114.95,-174.388,-24.824
114.98,-171.756,-24.4
115.02,-168.913,-23.885
115.05,-165.93,-23.369
115.08,-162.666,-22.888
115.11,-159.824,-22.499
115.15,-157.858,-22.029
115.18,-154.208,-21.376
115.21,-149.892,-20.987
115.24,-147.365,-20.505
115.28,-144.206,-19.852
115.31,-140.802,-19.394
115.34,-138.1,-18.97
115.37,-135.152,-18.65
115.41,-132.941,-18.363
115.44,-129.747,-17.756
115.47,-126.413,-17.493
115.5,-124.097,-17.069
115.54,-120.973,-16.565
115.57,-116.937,-15.889
115.6,-112.831,-15.305
115.64,-109.567,-14.72
115.67,-105.988,-14.113
115.7,-102.267,-13.54
115.73,-98.969,-13.048
115.77,-95.599,-12.578
115.8,-91.879,-12.177
115.83,-88.791,-11.708
115.86,-85.808,-11.204
115.9,-82.719,-10.825
115.93,-79.596,-10.47
115.96,-76.683,-10.069
115.99,-73.981,-9.611
116.03,-70.401,-9.084
116.06,-66.646,-8.718
116.09,-63.979,-8.237
116.12,-60.89,-7.618
116.16,-57.31,-7.183
116.19,-53.976,-6.736
116.22,-50.502,-6.22
116.25,-47.203,-5.705
116.29,-43.799,-5.132
116.32,-40.009,-4.708
116.35,-36.639,-4.25
116.38,-34.183,-3.952
116.42,-35.095,-4.181
116.45,-36.955,-4.456
116.48,-32.077,-3.815
116.51,-21.338,-2.807
116.55,-13.231,-1.226
116.58,-5.51,0.126
116.61,-0.526,0.137
116.64,0.211,0.309
