Trigger_Date,2023/09/08
Trigger_Time,T 08:38:17.731 PDT
Samples_Per_Cycle,512
Microseconds_Per_Sample,32.546
Time (ms),Voltage (V),Current (A)
-16.66,2.422,4.8
-16.63,10.915,3.23
-16.6,16.916,3.563
-16.57,21.829,3.391
-16.53,23.093,1.65
-16.5,20.847,1.203
-16.47,21.443,2.978
-16.44,26.321,3.975
-16.4,29.059,4.158
-16.37,30.533,4.846
-16.34,34.92,5.567
-16.31,40.219,5.522
-16.27,43.307,5.567
-16.24,45.869,6.289
-16.21,50.011,6.954
-16.18,54.643,7.011
-16.14,57.802,7.102
-16.11,60.925,7.584
-16.08,64.961,8.007
-16.04,68.822,8.225
-16.01,71.594,8.615
-15.98,74.648,9.199
-15.95,78.683,9.508
-15.91,82.193,9.588
-15.88,84.86,9.955
-15.85,87.773,10.505
-15.82,91.458,10.848
-15.78,94.722,11.032
-15.75,97.284,11.456
-15.72,100.197,11.994
-15.69,103.706,12.303
-15.65,106.9,12.452
-15.62,109.708,12.876
-15.59,112.866,13.518
-15.56,116.446,13.999
-15.52,119.464,14.388
-15.49,121.991,14.892
-15.46,125.044,15.316
-15.43,128.378,15.602
-15.39,131.081,15.958
-15.36,133.467,16.565
-15.33,136.45,17.137
-15.3,140.03,17.561
-15.26,143.82,18.042
-15.23,146.347,18.26
-15.2,148.488,18.879
-15.17,151.822,19.142
-15.13,154.84,19.394
-15.1,157.297,19.887
-15.07,159.648,20.666
-15.04,162.666,21.353
-15.0,165.649,21.536
-14.97,168.071,21.811
-14.94,170.387,22.315
-14.91,172.809,22.716
-14.87,175.02,22.968
-14.84,177.266,23.312
-14.81,180.109,23.747
-14.78,182.846,24.206
-14.74,185.513,24.744
-14.71,187.689,25.248
-14.68,189.865,25.683
-14.65,192.427,25.958
-14.61,194.638,26.187
-14.58,196.884,26.531
-14.55,199.306,26.921
-14.52,201.517,27.241
-14.48,203.236,27.631
-14.45,205.167,28.089
-14.42,207.237,28.352
-14.39,209.167,28.524
-14.35,210.887,28.799
-14.32,213.028,29.2
-14.29,214.958,29.613
-14.25,216.783,30.082
-14.22,218.819,30.472
-14.19,221.416,30.655
-14.16,223.381,30.575
-14.12,224.329,30.861
-14.09,226.329,31.274
-14.06,228.68,31.342
-14.03,230.225,31.571
-13.99,231.734,31.984
-13.96,234.155,32.454
-13.93,235.875,32.717
-13.9,236.752,33.152
-13.86,238.297,33.53
-13.83,240.227,33.668
-13.8,242.157,34.0
-13.77,244.017,34.355
-13.73,245.702,34.79
-13.7,247.281,35.214
-13.67,249.036,35.524
-13.64,250.334,35.764
-13.6,251.598,36.222
-13.57,253.528,36.658
-13.54,255.283,36.99
-13.51,256.546,37.563
-13.47,258.195,38.147
-13.44,259.705,38.64
-13.41,261.073,39.155
-13.38,262.442,39.476
-13.34,263.705,39.728
-13.31,264.793,39.945
-13.28,265.565,40.266
-13.25,266.934,40.679
-13.21,268.794,41.034
-13.18,270.584,41.355
-13.15,271.567,41.962
-13.12,272.585,42.557
-13.08,273.567,42.786
-13.05,274.164,43.05
-13.02,275.111,43.531
-12.99,276.48,43.817
-12.95,277.533,44.115
-12.92,278.34,44.631
-12.89,279.077,45.009
-12.86,279.604,45.169
-12.82,279.955,45.398
-12.79,280.516,45.467
-12.76,281.183,45.479
-12.73,281.955,45.719
-12.69,282.657,46.04
-12.66,282.938,46.315
-12.63,283.253,46.475
-12.6,283.464,46.555
-12.56,284.061,46.716
-12.53,284.517,46.567
-12.5,284.166,46.796
-12.46,284.903,47.22
-12.43,285.254,46.991
-12.4,284.341,46.968
-12.37,284.166,47.082
-12.33,284.657,46.807
-12.3,284.166,46.418
-12.27,283.113,46.372
-12.24,283.183,46.338
-12.2,283.464,46.154
-12.17,282.938,46.063
-12.14,282.306,46.086
-12.11,281.499,45.971
-12.07,280.656,45.673
-12.04,279.99,45.318
-12.01,279.463,45.02
-11.98,279.182,44.631
-11.94,278.27,44.356
-11.91,277.007,44.241
-11.88,276.164,44.024
-11.85,275.673,43.474
-11.81,274.374,42.912
-11.78,272.69,42.512
-11.75,271.356,42.053
-11.72,270.514,41.526
-11.68,269.847,41.011
-11.65,268.478,40.576
-11.62,266.794,40.243
-11.59,265.25,39.831
-11.55,263.846,39.132
-11.52,262.021,38.491
-11.49,260.582,38.01
-11.46,259.389,37.54
-11.42,257.88,37.047
-11.39,255.914,36.704
-11.36,254.44,36.303
-11.33,253.247,35.684
-11.29,251.352,35.065
-11.26,248.825,34.699
-11.23,247.176,34.355
-11.2,246.228,33.668
-11.16,244.263,32.958
-11.13,242.157,32.717
-11.1,240.964,32.419
-11.07,239.209,31.709
-11.03,236.612,31.067
-11.0,234.471,30.804
-10.97,233.594,30.426
-10.94,232.365,29.762
-10.9,230.435,29.28
-10.87,227.873,29.086
-10.84,225.136,29.074
-10.81,223.311,28.845
-10.77,221.381,28.307
-10.74,219.029,27.952
-10.71,216.888,27.688
-10.67,214.923,27.356
-10.64,212.642,27.024
-10.61,210.501,26.772
-10.58,208.395,26.485
-10.54,206.149,26.279
-10.51,203.552,25.855
-10.48,200.99,25.615
-10.45,199.692,25.5
-10.41,198.112,25.122
-10.38,195.515,25.053
-10.35,193.164,25.122
-10.32,191.339,24.996
-10.28,189.128,24.698
-10.25,186.566,24.572
-10.22,184.32,24.469
-10.19,182.495,24.022
-10.15,179.617,23.541
-10.12,176.915,23.369
-10.09,175.23,23.083
-10.06,172.984,22.545
-10.02,169.405,22.212
-9.99,166.211,22.121
-9.96,164.491,21.674
-9.93,162.175,20.895
-9.89,159.402,20.528
-9.86,156.7,20.219
-9.83,153.647,19.898
-9.8,150.734,19.578
-9.76,148.137,19.211
-9.73,145.645,18.902
-9.7,143.118,18.455
-9.67,139.925,17.985
-9.63,136.731,17.607
-9.6,133.923,17.286
-9.57,131.361,16.908
-9.54,128.589,16.611
-9.5,125.676,16.347
-9.47,122.552,15.969
-9.44,119.429,15.442
-9.41,116.235,14.949
-9.37,113.814,14.48
-9.34,111.357,13.896
-9.31,107.602,13.495
-9.28,103.812,13.266
-9.24,100.899,12.773
-9.21,98.161,11.994
-9.18,94.687,11.307
-9.15,91.037,10.86
-9.11,87.598,10.379
-9.08,84.123,9.806
-9.05,80.754,9.313
-9.02,77.631,8.855
-8.98,74.261,8.328
-8.95,70.331,7.859
-8.92,66.541,7.48
-8.88,64.119,6.782
-8.85,60.609,5.945
-8.82,55.696,5.888
-8.79,52.046,5.968
-8.75,49.239,5.464
-8.72,45.554,4.788
-8.69,41.518,4.422
-8.66,38.184,4.296
-8.62,36.604,4.8
-8.59,35.025,4.788
-8.56,28.638,3.494
-8.53,21.057,3.116
-8.49,18.25,2.497
-8.46,16.179,1.168
-8.43,14.494,0.309
-8.4,13.266,-0.848
-8.36,11.23,-2.818
-8.33,1.299,-3.127
-8.3,-8.423,-1.524
-8.27,-14.951,-1.615
-8.23,-20.215,-1.524
-8.2,-22.321,-0.172
-8.17,-23.198,0.664
-8.14,-22.812,-0.47
-8.1,-25.725,-1.97
-8.07,-28.989,-2.486
-8.04,-31.726,-2.864
-8.01,-35.376,-3.288
-7.97,-39.833,-3.505
-7.94,-43.799,-3.849
-7.91,-47.203,-4.422
-7.88,-50.362,-5.109
-7.84,-54.222,-5.613
-7.81,-57.942,-5.877
-7.78,-61.136,-6.197
-7.75,-64.645,-6.679
-7.71,-68.822,-6.988
-7.68,-72.226,-7.286
-7.65,-74.963,-7.836
-7.62,-78.087,-8.385
-7.58,-81.667,-8.741
-7.55,-84.895,-9.061
-7.52,-87.914,-9.588
-7.49,-91.388,-10.173
-7.45,-94.757,-10.596
-7.42,-97.6,-10.997
-7.39,-100.688,-11.433
-7.36,-103.882,-11.879
-7.32,-106.865,-12.383
-7.29,-109.988,-12.887
-7.26,-112.761,-13.472
-7.23,-115.955,-14.09
-7.19,-119.499,-14.537
-7.16,-122.237,-14.972
-7.13,-124.869,-15.488
-7.09,-127.466,-16.015
-7.06,-130.309,-16.53
-7.03,-133.186,-16.931
-7.0,-135.959,-17.619
-6.96,-139.293,-18.157
-6.93,-142.346,-18.501
-6.9,-144.803,-18.947
-6.87,-146.593,-19.165
-6.83,-148.979,-19.784
-6.8,-152.699,-20.242
-6.77,-155.753,-20.609
-6.74,-158.174,-21.113
-6.7,-160.42,-21.846
-6.67,-163.509,-22.419
-6.64,-166.316,-22.705
-6.61,-168.562,-23.129
-6.57,-171.019,-23.656
-6.54,-173.37,-24.091
-6.51,-175.371,-24.607
-6.48,-177.968,-25.237
-6.44,-181.161,-25.764
-6.41,-183.969,-26.199
-6.38,-186.18,-26.588
-6.35,-188.075,-27.058
-6.31,-190.497,-27.436
-6.28,-192.848,-27.631
-6.25,-194.814,-27.974
-6.22,-197.656,-28.352
-6.18,-200.604,-28.478
-6.15,-202.605,-28.627
-6.12,-203.868,-28.948
-6.09,-205.026,-29.338
-6.05,-206.711,-29.578
-6.02,-209.027,-29.727
-5.99,-211.343,-29.991
-5.96,-213.625,-30.449
-5.92,-215.695,-30.873
-5.89,-217.31,-31.251
-5.86,-218.748,-31.652
-5.83,-220.784,-31.995
-5.79,-222.89,-32.224
-5.76,-224.82,-32.557
-5.73,-226.68,-32.958
-5.7,-228.329,-33.393
-5.66,-230.33,-33.84
-5.63,-232.19,-34.103
-5.6,-233.839,-34.642
-5.57,-235.419,-34.951
-5.53,-236.752,-35.329
-5.5,-238.963,-35.787
-5.47,-241.209,-35.982
-5.44,-242.332,-36.348
-5.4,-243.842,-37.024
-5.37,-246.228,-37.528
-5.34,-247.913,-37.757
-5.3,-248.72,-38.296
-5.27,-250.334,-38.869
-5.24,-252.58,-39.178
-5.21,-254.581,-39.373
-5.17,-255.984,-39.705
-5.14,-257.002,-40.209
-5.11,-258.441,-40.656
-5.08,-259.81,-40.931
-5.04,-260.828,-41.229
-5.01,-262.337,-41.515
-4.98,-263.776,-41.675
-4.95,-264.442,-41.893
-4.91,-265.144,-42.386
-4.88,-267.004,-42.626
-4.85,-268.513,-42.786
-4.82,-269.391,-43.371
-4.78,-270.584,-44.001
-4.75,-271.672,-44.344
-4.72,-272.585,-44.677
-4.69,-273.672,-45.089
-4.65,-274.796,-45.433
-4.62,-275.673,-45.925
-4.59,-277.042,-46.269
-4.56,-277.779,-46.498
-4.52,-278.305,-46.865
-4.49,-279.112,-47.094
-4.46,-279.639,-47.14
-4.43,-279.955,-47.392
-4.39,-280.832,-47.678
-4.36,-281.358,-47.815
-4.33,-281.639,-48.056
-4.3,-282.271,-48.182
-4.26,-282.587,-48.148
-4.23,-282.411,-48.342
-4.2,-282.306,-48.377
-4.17,-282.587,-48.537
-4.13,-283.183,-48.549
-4.1,-283.218,-48.778
-4.07,-283.569,-49.007
-4.04,-283.324,-48.824
-4.0,-282.657,-48.732
-3.97,-282.376,-48.56
-3.94,-282.201,-48.102
-3.91,-281.639,-47.815
-3.87,-281.464,-47.689
-3.84,-281.288,-47.403
-3.81,-280.621,-47.117
-3.78,-279.639,-46.91
-3.74,-279.253,-46.578
-3.71,-278.761,-46.166
-3.68,-278.13,-45.822
-3.65,-277.287,-45.547
-3.61,-276.585,-45.318
-3.58,-275.989,-45.032
-3.55,-275.182,-44.7
-3.51,-274.023,-44.379
-3.48,-272.935,-43.989
-3.45,-271.812,-43.451
-3.42,-270.374,-42.867
-3.38,-269.286,-42.351
-3.35,-268.549,-41.836
-3.32,-267.566,-41.229
-3.29,-266.092,-40.736
-3.25,-264.828,-40.243
-3.22,-263.249,-39.636
-3.19,-261.284,-39.041
-3.16,-259.74,-38.502
-3.12,-258.932,-37.872
-3.09,-257.809,-37.242
-3.06,-255.984,-36.749
-3.03,-253.984,-36.417
-2.99,-252.335,-35.982
-2.96,-250.861,-35.34
-2.93,-248.93,-34.745
-2.9,-247.105,-34.355
-2.86,-245.667,-33.828
-2.83,-243.561,-33.301
-2.8,-241.455,-32.774
-2.77,-240.051,-32.476
-2.73,-238.788,-31.927
-2.7,-236.296,-31.377
-2.67,-233.91,-31.079
-2.64,-232.611,-30.712
-2.6,-231.277,-30.174
-2.57,-229.102,-29.716
-2.54,-226.715,-29.487
-2.51,-224.995,-29.154
-2.47,-223.03,-28.616
-2.44,-220.538,-28.261
-2.41,-218.398,-27.997
-2.38,-216.432,-27.631
-2.34,-214.326,-27.23
-2.31,-212.151,-26.943
-2.28,-210.536,-26.68
-2.25,-208.676,-26.405
-2.21,-205.974,-26.187
-2.18,-203.622,-26.187
-2.15,-201.938,-25.798
-2.12,-199.797,-25.34
-2.08,-197.937,-25.282
-2.05,-196.568,-25.076
-2.02,-194.252,-24.801
-1.99,-191.339,-24.767
-1.95,-189.128,-24.664
-1.92,-187.198,-24.24
-1.89,-184.776,-23.896
-1.86,-182.32,-23.598
-1.82,-179.723,-23.335
-1.79,-177.336,-23.06
-1.76,-174.985,-22.728
-1.72,-172.704,-22.384
-1.69,-170.457,-22.018
-1.66,-167.755,-21.64
-1.63,-164.737,-21.307
-1.59,-161.964,-20.906
-1.56,-159.473,-20.437
-1.53,-157.051,-20.093
-1.5,-154.7,-19.761
-1.46,-151.366,-19.222
-1.43,-148.102,-19.039
-1.4,-145.399,-18.34
-1.37,-142.522,-17.882
-1.33,-140.276,-17.516
-1.3,-137.608,-16.966
-1.27,-134.695,-16.576
-1.24,-131.537,-16.141
-1.2,-128.589,-15.774
-1.17,-125.992,-15.27
-1.14,-123.184,-14.64
-1.11,-119.78,-14.033
-1.07,-116.27,-13.518
-1.04,-113.217,-12.956
-1.01,-110.304,-12.452
-0.98,-107.391,-11.937
-0.94,-104.057,-11.398
-0.91,-100.583,-10.871
-0.88,-97.144,-10.207
-0.85,-93.634,-9.474
-0.81,-90.054,-8.855
-0.78,-86.966,-8.282
-0.75,-83.807,-7.618
-0.72,-79.947,-7.045
-0.68,-76.157,-6.621
-0.65,-72.787,-6.094
-0.62,-69.453,-5.533
-0.59,-66.014,-5.04
-0.55,-62.469,-4.536
-0.52,-58.89,-4.101
-0.49,-54.994,-3.792
-0.46,-51.555,-3.402
-0.42,-48.221,-2.864
-0.39,-44.641,-2.325
-0.36,-40.57,-1.821
-0.33,-36.674,-1.489
-0.29,-34.604,-2.016
-0.26,-33.727,-2.028
-0.23,-27.55,-0.493
-0.2,-19.724,-0.401
-0.16,-16.951,0.011
-0.13,-15.442,1.535
-0.1,-13.161,2.463
-0.07,-12.95,3.528
-0.03,-8.423,5.201
0.0,2.913,4.284
0.03,10.248,3.276
0.07,16.46,3.643
0.1,20.917,3.185
0.13,22.18,1.501
0.16,19.724,1.134
0.2,20.706,2.921
0.23,25.97,3.883
0.26,28.778,4.204
0.29,30.603,4.937
0.33,35.06,5.59
0.36,40.324,5.625
0.39,43.834,5.625
0.42,46.396,6.209
0.46,50.327,6.839
0.49,54.433,6.999
0.52,57.451,7.16
0.55,60.399,7.618
0.59,64.365,8.053
0.62,68.365,8.248
0.65,71.419,8.592
0.68,74.542,9.119
0.72,78.368,9.474
0.75,81.807,9.726
0.78,84.93,10.127
0.81,87.668,10.631
0.85,90.721,11.146
0.88,94.441,11.433
0.91,97.53,11.662
0.94,100.021,12.257
0.98,103.636,12.784
1.01,107.04,12.933
1.04,109.462,13.288
1.07,112.48,13.918
1.11,116.2,14.411
1.14,119.604,14.743
1.17,122.237,15.144
1.2,124.834,15.66
1.24,127.676,16.129
1.27,130.624,16.496
1.3,133.818,16.828
1.33,137.047,17.103
1.37,139.819,17.642
1.4,143.259,18.317
1.43,145.75,18.512
1.46,147.575,19.085
1.5,150.558,19.543
1.53,154.068,19.921
1.56,156.77,20.311
1.59,159.052,21.009
1.63,162.315,21.628
1.66,165.158,21.766
1.69,167.123,22.075
1.72,169.194,22.693
1.76,172.072,23.129
1.79,175.16,23.163
1.82,177.652,23.255
1.86,179.477,23.862
1.89,182.6,24.526
1.92,185.899,24.698
1.95,187.619,25.053
1.99,189.549,25.718
2.02,192.146,26.222
2.05,194.568,26.474
2.08,196.884,26.737
2.12,199.095,27.127
2.15,201.552,27.539
2.18,203.587,27.917
2.21,205.377,28.33
2.25,207.413,28.513
2.28,209.343,28.616
2.31,211.098,28.891
2.34,213.379,29.315
2.38,215.695,29.613
2.41,217.59,29.933
2.44,219.345,30.346
2.47,221.381,30.724
2.51,222.784,30.758
2.54,223.978,31.045
2.57,226.785,31.652
2.6,229.488,31.652
2.64,229.909,31.972
2.67,230.681,32.683
2.7,233.453,33.107
2.73,236.05,33.118
2.77,237.033,33.496
2.8,239.279,34.057
2.83,242.017,33.966
2.86,242.824,34.069
2.9,243.701,34.664
2.93,246.088,35.008
2.96,247.948,35.237
2.99,249.001,35.707
3.03,250.439,36.177
3.06,252.264,36.509
3.09,253.844,36.761
3.12,255.107,37.116
3.16,256.3,37.735
3.19,258.055,38.33
3.22,259.775,38.708
3.25,261.038,39.109
3.29,262.267,39.43
3.32,263.004,39.808
3.35,263.881,40.358
3.38,265.706,40.518
3.42,267.039,40.553
3.45,268.198,41.171
3.48,269.952,41.71
3.51,271.181,42.065
3.55,271.988,42.546
3.58,272.725,43.084
3.61,273.848,43.428
3.65,275.217,43.623
3.68,276.55,43.84
3.71,277.638,44.23
3.74,278.445,44.734
3.78,279.077,45.078
3.81,279.463,45.318
3.84,280.025,45.536
3.87,280.481,45.605
3.91,281.078,45.719
3.94,281.92,45.914
3.97,282.622,46.212
4.0,283.078,46.349
4.04,283.183,46.601
4.07,283.218,46.681
4.1,283.464,46.773
4.13,283.85,46.796
4.17,283.92,46.842
4.2,284.517,47.048
4.23,284.868,47.036
4.26,284.517,47.185
4.3,284.306,47.208
4.33,284.026,47.094
4.36,283.745,46.956
4.39,283.534,46.704
4.43,283.218,46.555
4.46,283.289,46.544
4.49,283.008,46.418
4.52,282.341,46.269
4.56,281.499,46.177
4.59,281.078,45.914
4.62,280.446,45.49
4.65,279.568,45.192
4.69,278.902,44.952
4.72,278.586,44.654
4.75,278.13,44.207
4.78,276.62,43.852
4.82,274.76,43.669
4.85,273.567,43.279
4.88,272.549,42.592
4.91,271.356,41.927
4.95,270.233,41.492
4.98,269.426,41.045
5.01,268.198,40.495
5.04,266.899,40.026
5.08,265.53,39.567
5.11,263.846,39.006
5.14,261.986,38.536
5.17,260.617,38.101
5.21,259.424,37.586
5.24,257.915,37.07
5.27,256.3,36.6
5.3,254.581,36.131
5.34,252.861,35.673
5.37,251.176,35.226
5.4,249.562,34.722
5.44,247.632,34.172
5.47,245.631,33.748
5.5,243.912,33.244
5.53,242.122,32.855
5.57,240.683,32.591
5.6,238.893,32.087
5.63,236.472,31.606
5.66,234.436,31.308
5.7,232.997,30.93
5.73,231.664,30.437
5.76,229.839,29.945
5.79,227.347,29.704
5.83,225.346,29.544
5.86,224.013,29.04
5.89,221.696,28.398
5.92,218.889,28.181
5.96,217.134,27.952
5.99,215.52,27.39
6.02,213.203,26.955
6.05,210.571,26.898
6.09,208.711,26.737
6.12,206.956,26.268
6.15,204.184,25.729
6.18,201.938,25.638
6.22,199.973,25.179
6.25,197.656,24.824
6.28,195.586,24.813
6.31,194.147,24.721
6.35,191.795,24.354
6.38,188.637,24.251
6.41,186.11,23.988
6.44,183.934,23.621
6.48,182.32,23.392
6.51,179.688,23.129
6.54,176.88,23.117
6.57,174.599,22.945
6.61,172.072,22.671
6.64,169.37,22.419
6.67,167.159,22.086
6.7,165.404,21.422
6.74,162.21,20.792
6.77,159.367,20.448
6.8,156.419,20.036
6.83,153.296,19.852
6.87,150.769,19.658
6.9,148.207,19.337
6.93,145.364,18.993
6.96,142.592,18.558
7.0,139.854,18.123
7.03,137.257,17.584
7.06,134.766,17.057
7.09,132.098,16.633
7.13,129.536,16.118
7.16,125.781,15.728
7.19,122.166,15.534
7.23,119.359,15.133
7.26,116.481,14.617
7.29,113.393,14.297
7.32,110.725,14.079
7.36,107.988,13.666
7.39,104.443,13.185
7.42,100.653,12.819
7.45,97.74,12.315
7.49,94.757,11.524
7.52,91.037,10.86
7.55,87.282,10.447
7.58,84.229,9.955
7.62,80.894,9.279
7.65,77.034,8.786
7.68,73.524,8.466
7.71,70.401,7.927
7.75,66.751,7.309
7.78,62.82,6.931
7.81,59.592,6.507
7.84,56.328,6.003
7.88,52.432,5.602
7.91,48.677,5.407
7.94,45.518,4.972
7.97,41.728,4.422
8.01,37.762,4.17
8.04,35.902,4.892
8.07,36.148,4.903
8.1,30.182,3.276
8.14,21.724,3.104
8.17,18.6,2.623
8.2,16.354,0.974
8.23,13.722,0.103
8.27,12.88,-0.894
8.3,10.318,-2.956
8.33,-0.667,-2.749
8.36,-8.914,-1.272
8.4,-15.091,-1.569
8.43,-19.478,-1.352
8.46,-22.18,0.309
8.49,-22.391,1.306
8.53,-21.689,-0.183
8.56,-25.62,-1.707
8.59,-29.48,-2.085
8.62,-31.866,-2.497
8.66,-34.814,-3.322
8.69,-40.184,-3.826
8.72,-44.992,-4.135
8.75,-48.045,-4.662
8.79,-51.274,-5.487
8.82,-55.345,-5.968
8.85,-58.153,-6.14
8.88,-61.031,-6.518
8.92,-65.137,-6.701
8.95,-68.506,-6.793
8.98,-71.103,-7.24
9.02,-74.297,-7.847
9.05,-78.052,-8.237
9.08,-81.596,-8.466
9.11,-84.439,-8.901
9.15,-87.598,-9.565
9.18,-91.177,-10.138
9.21,-94.547,-10.562
9.24,-97.635,-10.917
9.28,-100.548,-11.318
9.31,-103.496,-11.799
9.34,-106.725,-12.303
9.37,-109.813,-12.83
9.41,-112.48,-13.46
9.44,-115.569,-14.148
9.47,-119.254,-14.617
9.5,-122.623,-14.869
9.54,-124.869,-15.419
9.57,-127.185,-16.141
9.6,-130.379,-16.668
9.63,-133.783,-16.805
9.67,-136.45,-17.286
9.7,-139.047,-17.962
9.73,-141.855,-18.558
9.76,-145.119,-18.833
9.8,-147.47,-18.684
9.83,-149.506,-19.28
9.86,-153.015,-19.864
9.89,-156.314,-20.196
9.93,-158.455,-20.631
9.96,-160.806,-21.342
9.99,-163.754,-21.869
10.02,-166.281,-22.224
10.06,-168.457,-22.682
10.09,-171.054,-23.186
10.12,-173.686,-23.541
10.15,-175.967,-23.896
10.19,-178.389,-24.435
10.22,-181.021,-24.996
10.25,-183.478,-25.546
10.28,-185.689,-26.084
10.32,-188.04,-26.531
10.35,-190.427,-26.817
10.38,-192.603,-27.115
10.41,-194.708,-27.528
10.45,-197.095,-27.974
10.48,-199.13,-28.421
10.51,-201.131,-28.891
10.54,-203.166,-29.235
10.58,-205.167,-29.464
10.61,-206.921,-29.658
10.64,-208.852,-29.979
10.67,-211.203,-30.3
10.71,-213.239,-30.701
10.74,-214.923,-31.228
10.77,-217.38,-31.594
10.81,-220.082,-31.571
10.84,-221.521,-31.743
10.87,-222.714,-32.328
10.9,-225.101,-32.728
10.94,-227.382,-32.774
10.97,-228.645,-33.118
11.0,-230.33,-33.805
11.03,-232.716,-34.195
11.07,-234.12,-34.378
11.1,-235.068,-34.813
11.13,-237.209,-35.237
11.16,-239.806,-35.443
11.2,-241.28,-35.81
11.23,-242.403,-36.474
11.26,-244.298,-37.105
11.29,-246.474,-37.517
11.33,-247.913,-37.792
11.36,-248.93,-38.204
11.39,-250.404,-38.64
11.42,-252.124,-38.972
11.46,-253.879,-39.293
11.49,-255.493,-39.671
11.52,-256.967,-40.094
11.55,-258.055,-40.633
11.59,-259.283,-41.137
11.62,-260.722,-41.332
11.65,-261.951,-41.503
11.68,-263.354,-41.755
11.72,-264.407,-42.042
11.75,-265.425,-42.42
11.78,-267.004,-42.741
11.81,-268.408,-43.142
11.85,-269.531,-43.657
11.88,-270.619,-44.104
11.91,-271.532,-44.482
11.94,-272.409,-44.871
11.98,-273.602,-45.272
12.01,-274.866,-45.673
12.04,-275.954,-46.143
12.07,-277.112,-46.521
12.11,-277.814,-46.796
12.14,-278.13,-47.105
12.17,-278.621,-47.38
12.2,-279.288,-47.38
12.24,-279.884,-47.403
12.27,-280.727,-47.632
12.3,-281.429,-47.781
12.33,-281.393,-47.884
12.37,-282.13,-48.136
12.4,-282.692,-48.033
12.43,-282.341,-48.113
12.46,-282.06,-48.171
12.5,-282.446,-48.182
12.53,-283.359,-48.079
12.56,-283.394,-48.09
12.6,-283.253,-48.285
12.63,-283.113,-48.297
12.66,-282.797,-48.148
12.69,-282.306,-48.033
12.73,-282.341,-47.735
12.76,-281.885,-47.483
12.79,-281.429,-47.506
12.82,-281.253,-47.495
12.86,-280.762,-47.3
12.89,-279.919,-47.151
12.92,-279.358,-46.876
12.95,-278.902,-46.498
12.99,-278.305,-46.074
13.02,-277.463,-45.788
13.05,-277.007,-45.57
13.08,-276.445,-45.238
13.12,-275.252,-44.894
13.15,-273.708,-44.688
13.18,-273.006,-44.253
13.21,-272.234,-43.462
13.25,-270.584,-42.798
13.28,-269.075,-42.466
13.31,-268.513,-42.065
13.34,-267.741,-41.435
13.38,-266.022,-40.965
13.41,-264.442,-40.61
13.44,-263.109,-39.945
13.47,-261.319,-39.235
13.51,-259.634,-38.731
13.54,-258.476,-38.239
13.57,-257.213,-37.712
13.6,-255.809,-37.185
13.64,-254.195,-36.692
13.67,-252.44,-36.211
13.7,-250.58,-35.65
13.73,-248.72,-35.043
13.77,-247.141,-34.458
13.8,-245.596,-33.863
13.83,-243.771,-33.347
13.86,-241.771,-32.855
13.9,-240.402,-32.534
13.93,-239.209,-31.972
13.96,-236.963,-31.319
13.99,-234.261,-31.022
14.03,-232.541,-30.747
14.06,-231.067,-30.197
14.09,-228.961,-29.704
14.12,-226.926,-29.395
14.16,-225.171,-29.028
14.19,-222.749,-28.57
14.22,-220.293,-28.261
14.25,-218.538,-27.894
14.29,-217.029,-27.379
14.32,-214.677,-27.001
14.35,-212.431,-26.829
14.39,-210.852,-26.577
14.42,-208.957,-26.187
14.45,-206.184,-25.89
14.48,-203.658,-25.764
14.52,-201.868,-25.512
14.55,-200.078,-25.099
14.58,-197.656,-24.859
14.61,-195.586,-24.755
14.65,-193.761,-24.469
14.68,-191.515,-24.102
14.71,-188.672,-23.919
14.74,-186.145,-23.873
14.78,-184.32,-23.576
14.81,-182.46,-22.991
14.84,-179.688,-22.636
14.87,-177.161,-22.728
14.91,-175.301,-22.545
14.94,-172.984,-22.121
14.97,-169.966,-21.743
15.0,-167.264,-21.502
15.04,-164.842,-20.906
15.07,-162.35,-20.494
15.1,-160.21,-20.139
15.13,-157.613,-19.864
15.17,-154.91,-19.704
15.2,-151.646,-19.154
15.23,-148.488,-18.821
15.26,-145.715,-18.157
15.3,-143.259,-17.779
15.33,-141.083,-17.332
15.36,-137.854,-16.817
15.39,-134.344,-16.507
15.43,-131.396,-16.072
15.46,-128.94,-15.465
15.49,-126.097,-14.823
15.52,-122.623,-14.354
15.56,-119.113,-13.896
15.59,-115.99,-13.346
15.62,-113.182,-12.796
15.65,-110.796,-12.235
15.69,-107.637,-11.753
15.72,-104.724,-11.822
15.75,-102.899,-11.891
15.78,-100.653,-11.582
15.82,-97.424,-11.33
15.85,-94.652,-10.94
15.88,-91.634,-10.241
15.91,-88.194,-9.691
15.95,-85.071,-9.199
15.98,-81.421,-8.477
16.01,-76.718,-7.561
16.04,-72.156,-6.621
16.08,-68.12,-5.441
16.11,-63.522,-4.273
16.14,-58.539,-3.631
16.18,-54.994,-3.208
16.21,-51.73,-2.497
16.24,-47.379,-1.833
16.27,-42.746,-1.512
16.31,-38.956,-1.157
16.34,-35.271,-0.745
16.37,-32.639,-0.951
16.4,-29.585,-0.401
16.44,-23.163,0.825
16.47,-16.916,0.985
16.5,-14.354,1.73
16.53,-12.038,3.047
16.57,-12.073,4.124
16.6,-7.686,4.8
16.63,1.79,3.482
16.66,7.405,3.059
16.7,13.477,3.345
16.73,16.6,2.623
16.76,19.092,1.707
16.79,19.618,0.825
16.83,19.864,1.569
16.86,23.338,2.795
16.89,26.988,3.574
16.92,28.217,4.548
16.96,30.743,5.648
16.99,36.394,5.945
17.02,41.307,5.923
17.05,44.992,6.289
17.09,48.677,6.999
17.12,52.748,7.561
17.15,56.433,8.053
17.18,60.153,8.351
17.22,63.593,8.557
17.25,66.997,8.855
17.28,70.822,9.187
17.31,74.542,9.382
17.35,77.28,9.634
17.38,79.982,10.001
17.41,83.456,10.31
17.44,87.001,10.551
17.48,89.809,10.929
17.51,92.757,11.456
17.54,96.407,11.891
17.57,99.495,12.086
17.61,101.952,12.326
17.64,104.689,12.761
17.67,108.023,13.22
17.7,111.497,13.552
17.74,114.551,13.907
17.77,117.464,14.354
17.8,120.657,14.801
17.83,123.886,15.121
17.87,126.729,15.305
17.9,129.291,15.671
17.93,132.309,16.21
17.97,135.678,16.633
18.0,138.626,17.011
18.03,141.188,17.584
18.06,143.785,18.226
18.1,146.312,18.833
18.13,149.435,19.326
18.16,152.419,19.417
18.19,152.594,18.718
18.23,150.488,17.848
18.26,150.909,17.435
18.29,154.524,16.622
18.32,157.262,16.038
18.36,158.525,16.519
18.39,159.438,17.08
18.42,161.333,17.596
18.45,164.912,17.951
18.49,168.878,18.661
18.52,172.984,19.83
18.55,176.529,20.952
18.58,178.915,21.846
18.62,181.232,22.739
18.65,184.601,23.495
18.68,188.496,24.045
18.71,191.444,24.549
18.75,193.199,25.454
18.78,195.691,26.336
18.81,198.99,26.772
18.84,202.324,27.012
18.88,204.675,27.47
18.91,206.255,28.089
18.94,207.939,28.673
18.97,210.326,29.017
19.01,212.958,29.257
19.04,215.379,29.704
19.07,217.59,30.231
19.1,219.38,30.747
19.14,220.854,31.239
19.17,222.855,31.423
19.2,225.101,31.549
19.23,226.996,31.801
19.27,228.61,32.213
19.3,230.119,32.694
19.33,231.944,33.072
19.36,234.015,33.359
19.4,235.945,33.702
19.43,237.454,34.069
19.46,239.174,34.447
19.49,240.753,34.882
19.53,242.683,35.398
19.56,245.0,35.787
19.59,247.0,36.154
19.62,248.439,36.635
19.66,249.632,37.139
19.69,251.141,37.494
19.72,252.896,37.666
19.76,254.335,38.055
19.79,256.476,38.502
19.82,258.476,38.754
19.85,259.354,39.167
19.89,260.196,39.739
19.92,261.775,39.98
19.95,262.863,40.106
19.98,263.951,40.472
20.02,265.46,40.656
20.05,266.443,40.816
20.08,267.531,41.32
20.11,269.005,41.881
20.15,270.514,42.26
20.18,271.567,42.603
20.21,272.269,43.107
20.24,273.251,43.439
20.28,274.269,43.703
20.31,275.322,44.081
20.34,276.515,44.482
20.37,277.463,44.94
20.41,278.551,45.353
20.44,279.323,45.456
20.47,279.709,45.57
20.5,280.13,45.799
20.54,280.551,45.879
20.57,281.113,45.937
20.6,282.025,46.005
20.63,282.516,46.131
20.67,282.552,46.452
20.7,282.727,46.658
20.73,283.148,46.636
20.76,283.464,46.51
20.8,283.148,46.464
20.83,282.938,46.567
20.86,283.604,46.555
20.89,283.955,46.361
20.93,283.604,46.441
20.96,283.464,46.464
20.99,283.289,46.292
21.02,282.973,46.109
21.06,282.622,45.914
21.09,282.13,45.834
21.12,282.166,45.96
21.15,282.446,45.937
21.19,282.201,45.811
21.22,281.288,45.731
21.25,280.305,45.673
21.28,279.814,45.421
21.32,279.358,45.02
21.35,278.867,44.734
21.38,278.165,44.654
21.41,277.393,44.47
21.45,276.375,44.115
21.48,275.111,43.691
21.51,273.918,43.245
21.55,272.795,42.672
21.58,271.497,42.099
21.61,270.338,41.721
21.64,269.812,41.32
21.68,268.864,40.816
21.71,267.145,40.484
21.74,265.846,40.163
21.77,264.758,39.487
21.81,263.284,38.754
21.84,261.705,38.181
21.87,260.336,37.746
21.9,258.932,37.288
21.94,257.458,36.772
21.97,255.458,36.383
22.0,253.844,36.016
22.03,252.299,35.432
22.07,250.299,34.859
22.1,248.79,34.47
22.13,247.772,33.943
22.16,245.772,33.359
22.2,243.175,33.072
22.23,241.49,32.786
22.26,239.911,32.247
22.29,237.805,31.732
22.33,235.875,31.297
22.36,234.331,30.907
22.39,232.471,30.506
22.42,230.26,30.162
22.46,228.259,29.899
22.49,226.68,29.544
22.52,224.329,29.063
22.55,221.872,28.765
22.59,219.591,28.33
22.62,217.906,28.066
22.65,216.853,27.482
22.68,213.835,26.989
22.72,210.291,27.024
22.75,208.957,26.966
22.78,207.904,26.256
22.81,204.745,25.844
22.85,202.184,25.912
22.88,200.534,25.626
22.91,198.463,25.122
22.94,196.288,24.836
22.98,194.357,24.664
23.01,192.006,24.538
23.04,189.479,24.274
23.07,186.952,23.908
23.11,184.987,23.472
23.14,182.916,22.877
23.17,179.582,22.671
23.2,176.599,22.602
23.24,174.213,22.292
23.27,172.598,22.121
23.3,170.317,21.708
23.34,167.369,21.594
23.37,164.421,21.147
23.4,161.192,20.631
23.43,158.736,20.448
23.47,157.718,20.001
23.5,155.717,19.383
23.53,151.331,19.211
23.56,147.505,19.28
23.6,145.329,18.764
23.63,143.294,17.871
23.66,140.872,17.08
23.69,137.117,16.794
23.73,133.221,16.817
23.76,130.835,16.519
23.79,128.519,15.82
23.82,125.22,15.499
23.86,122.342,15.431
23.89,119.78,14.972
23.92,116.376,14.342
23.95,112.585,14.102
23.99,110.515,13.918
24.02,108.549,13.369
24.05,105.04,12.945
24.08,101.074,12.773
24.12,97.81,12.349
24.15,94.897,11.547
24.18,91.353,10.791
24.21,87.773,10.413
24.25,85.281,9.886
24.28,81.912,9.119
24.31,77.631,8.718
24.34,74.156,8.374
24.38,71.419,7.71
24.41,67.628,7.034
24.44,63.417,6.713
24.47,60.083,6.438
24.51,57.135,5.98
24.54,53.31,5.487
24.57,49.133,5.247
24.6,45.764,4.949
24.64,42.535,4.399
24.67,38.64,4.032
24.7,36.534,4.639
24.73,36.604,4.72
24.77,30.849,3.23
24.8,22.25,2.978
24.83,18.811,2.463
24.86,16.389,0.653
24.9,12.88,-0.16
24.93,12.459,-1.157
24.96,8.458,-3.104
24.99,-2.773,-2.394
25.03,-9.932,-1.146
25.06,-15.723,-1.569
25.09,-19.688,-1.111
25.13,-21.373,0.745
25.16,-20.215,1.1
25.19,-21.408,-0.653
25.22,-26.041,-1.569
25.26,-28.111,-1.89
25.29,-29.655,-2.6
25.32,-34.007,-3.093
25.35,-39.412,-3.15
25.39,-42.886,-3.471
25.42,-45.378,-4.445
25.45,-49.73,-5.384
25.48,-54.713,-5.613
25.52,-57.907,-5.774
25.55,-60.855,-6.392
25.58,-64.926,-6.954
25.61,-69.173,-7.183
25.65,-72.086,-7.48
25.68,-74.998,-8.053
25.71,-78.648,-8.408
25.74,-82.018,-8.615
25.78,-84.685,-9.084
25.81,-87.598,-9.737
25.84,-91.388,-10.218
25.87,-94.827,-10.505
25.91,-97.495,-10.94
25.94,-100.407,-11.513
25.97,-103.777,-11.925
26.0,-106.9,-12.257
26.04,-109.602,-12.784
26.07,-112.726,-13.426
26.1,-116.165,-13.987
26.13,-118.867,-14.457
26.17,-121.184,-15.11
26.2,-124.553,-15.614
26.23,-128.519,-15.832
26.26,-130.8,-16.015
26.3,-132.449,-16.931
26.33,-135.713,-17.642
26.36,-139.328,-18.02
26.39,-142.065,-18.34
26.43,-143.996,-18.856
26.46,-146.698,-19.474
26.49,-149.541,-19.795
26.52,-151.787,-20.139
26.56,-154.454,-20.712
26.59,-157.753,-21.25
26.62,-160.666,-21.743
26.65,-162.912,-22.338
26.69,-165.158,-22.968
26.72,-167.79,-23.404
26.75,-170.457,-23.679
26.78,-173.546,-23.908
26.82,-176.564,-24.171
26.85,-178.951,-24.664
26.88,-181.161,-25.271
26.92,-183.583,-25.764
26.95,-185.794,-26.119
26.98,-187.935,-26.554
27.01,-190.251,-27.058
27.05,-192.989,-27.344
27.08,-195.375,-27.574
27.11,-197.165,-28.078
27.14,-199.165,-28.639
27.18,-201.482,-28.983
27.21,-203.342,-29.166
27.24,-204.781,-29.509
27.27,-206.851,-29.853
27.31,-209.132,-30.036
27.34,-210.992,-30.323
27.37,-213.028,-30.804
27.4,-215.274,-31.251
27.44,-217.274,-31.686
27.47,-219.029,-32.076
27.5,-220.959,-32.442
27.53,-222.89,-32.74
27.57,-224.68,-33.129
27.6,-226.61,-33.53
27.63,-228.751,-33.908
27.66,-230.646,-34.332
27.7,-232.365,-34.848
27.73,-233.664,-35.272
27.76,-235.699,-35.684
27.79,-238.507,-35.741
27.83,-239.911,-35.741
27.86,-240.894,-36.326
27.89,-242.683,-36.795
27.92,-244.719,-37.082
27.96,-246.544,-37.483
27.99,-248.018,-38.01
28.02,-249.492,-38.456
28.05,-250.966,-38.811
28.09,-252.475,-39.167
28.12,-254.124,-39.567
28.15,-255.739,-40.117
28.18,-257.037,-40.507
28.22,-258.231,-40.805
28.25,-259.705,-41.103
28.28,-261.214,-41.32
28.31,-262.196,-41.526
28.35,-262.968,-41.904
28.38,-264.442,-42.237
28.41,-265.671,-42.42
28.44,-266.794,-42.867
28.48,-268.338,-43.313
28.51,-269.566,-43.646
28.54,-270.444,-44.138
28.57,-271.497,-44.596
28.61,-272.479,-44.883
28.64,-273.462,-45.307
28.67,-274.866,-45.639
28.71,-275.778,-45.96
28.74,-276.656,-46.429
28.77,-277.252,-46.704
28.8,-277.779,-47.094
28.84,-278.445,-47.3
28.87,-278.551,-47.243
28.9,-279.253,-47.541
28.93,-280.621,-47.735
28.97,-281.288,-47.953
29.0,-280.867,-48.113
29.03,-280.797,-48.549
29.06,-281.604,-48.526
29.1,-281.92,-48.274
29.13,-282.166,-48.457
29.16,-282.587,-48.423
29.19,-282.481,-48.48
29.23,-282.692,-48.617
29.26,-282.832,-48.583
29.29,-282.587,-48.526
29.32,-282.025,-48.388
29.36,-281.85,-48.251
29.39,-281.709,-47.884
29.42,-281.218,-47.632
29.45,-281.429,-47.552
29.49,-281.674,-47.323
29.52,-280.937,-47.208
29.55,-279.919,-47.117
29.58,-279.007,-46.888
29.62,-278.551,-46.578
29.65,-278.305,-46.166
29.68,-277.814,-45.834
29.71,-277.112,-45.673
29.75,-276.48,-45.433
29.78,-275.497,-45.032
29.81,-274.129,-44.619
29.84,-272.83,-44.104
29.88,-271.777,-43.508
29.91,-270.689,-42.844
29.94,-269.426,-42.294
29.97,-268.443,-41.859
30.01,-267.355,-41.412
30.04,-265.741,-41.022
30.07,-264.302,-40.587
30.1,-262.898,-39.945
30.14,-261.214,-39.338
30.17,-259.845,-38.777
30.2,-258.511,-38.193
30.23,-257.248,-37.7
30.27,-255.949,-37.208
30.3,-254.3,-36.726
30.33,-252.37,-36.257
30.36,-250.404,-35.718
30.4,-248.474,-35.203
30.43,-247.105,-34.63
30.46,-245.737,-34.023
30.5,-243.806,-33.519
30.53,-241.525,-33.198
30.56,-239.981,-32.866
30.59,-238.297,-32.35
30.63,-236.05,-31.801
30.66,-234.085,-31.468
30.69,-233.102,-31.067
30.72,-231.102,-30.46
30.76,-228.54,-30.208
30.79,-226.785,-29.91
30.82,-225.381,-29.372
30.85,-223.276,-28.868
30.89,-220.538,-28.582
30.92,-218.292,-28.352
30.95,-216.502,-27.929
30.98,-214.537,-27.528
31.02,-212.677,-27.23
31.05,-210.817,-26.955
31.08,-208.641,-26.634
31.11,-206.044,-26.302
31.15,-203.798,-26.107
31.18,-201.938,-25.809
31.21,-200.113,-25.454
31.24,-198.007,-25.191
31.28,-195.866,-25.019
31.31,-193.761,-24.836
31.34,-191.55,-24.618
31.37,-189.268,-24.354
31.41,-186.777,-24.102
31.44,-184.355,-23.896
31.47,-182.249,-23.667
31.5,-179.933,-23.369
31.54,-177.441,-23.209
31.57,-175.02,-22.968
31.6,-172.633,-22.682
31.63,-170.247,-22.247
31.67,-167.615,-21.846
31.7,-164.561,-21.319
31.73,-161.719,-21.17
31.76,-159.789,-20.757
31.8,-157.928,-20.242
31.83,-155.226,-19.738
31.86,-152.208,-19.44
31.89,-149.365,-19.039
31.93,-146.277,-18.466
31.96,-143.329,-17.974
31.99,-140.521,-17.458
32.02,-137.468,-16.966
32.06,-134.59,-16.496
32.09,-132.028,-15.969
32.12,-128.975,-15.442
32.15,-125.36,-14.995
32.19,-121.921,-14.56
32.22,-119.148,-13.907
32.25,-116.235,-13.22
32.29,-113.147,-12.796
32.32,-110.445,-12.555
32.35,-107.742,-12.189
32.38,-104.689,-11.765
32.42,-101.495,-11.284
32.45,-98.196,-10.677
32.48,-94.511,-10.047
32.51,-90.756,-9.451
32.55,-87.352,-8.798
32.58,-83.842,-7.962
32.61,-79.877,-7.171
32.64,-76.192,-6.507
32.68,-72.542,-5.716
32.71,-68.436,-5.04
32.74,-64.716,-4.594
32.77,-61.487,-4.124
32.81,-57.767,-3.586
32.84,-53.766,-3.253
32.87,-50.186,-2.921
32.9,-46.887,-2.486
32.94,-43.378,-1.993
32.97,-39.552,-1.627
33.0,-35.867,-1.375
33.03,-33.762,-2.005
33.07,-33.025,-2.314
33.1,-28.111,-0.916
33.13,-21.198,-0.504
33.16,-18.179,-0.241
33.2,-16.214,1.18
33.23,-13.652,2.234
33.26,-12.283,3.494
33.29,-5.054,4.124
33.33,3.194,3.391
33.36,9.967,3.517
33.39,16.249,3.482
33.42,20.25,2.761
33.46,21.689,1.157
33.49,19.197,1.111
33.52,21.338,2.887
33.55,26.637,3.712
33.59,28.743,4.09
33.62,29.971,5.098
33.65,34.569,5.831
33.68,40.465,5.716
33.72,44.115,5.774
33.75,47.203,6.507
33.78,51.765,7.171
33.81,55.872,7.412
33.85,58.679,7.698
33.88,61.557,8.156
33.91,65.453,8.466
33.94,69.138,8.523
33.98,72.156,8.752
34.01,75.42,9.13
34.04,78.683,9.371
34.08,81.561,9.52
34.11,84.544,9.863
34.14,87.843,10.138
34.17,90.897,10.47
34.21,93.704,10.963
34.24,96.828,11.41
34.27,100.092,11.708
34.3,102.934,12.063
34.34,105.742,12.521
34.37,109.006,13.025
34.4,112.621,13.334
34.43,115.463,13.724
34.47,118.271,14.297
34.5,121.394,14.812
34.53,124.483,15.202
34.56,127.15,15.557
34.6,130.098,16.049
34.63,133.186,16.496
34.66,136.24,17.08
34.69,139.539,17.504
34.73,141.855,18.008
34.76,143.61,18.673
34.79,147.224,19.005
34.82,151.541,18.73
34.86,153.717,18.65
34.89,155.016,19.28
34.92,157.893,19.875
34.95,161.122,19.944
34.99,163.403,20.15
35.02,165.649,20.769
35.05,168.562,21.422
35.08,171.405,21.754
35.12,173.511,22.281
35.15,176.143,23.071
35.18,179.758,23.702
35.21,182.776,24.206
35.25,185.092,24.916
35.28,187.479,25.66
35.31,190.076,26.142
35.34,192.497,26.497
35.38,195.059,26.863
35.41,197.656,27.276
35.44,199.692,27.757
35.47,201.727,28.238
35.51,203.938,28.582
35.54,205.904,28.742
35.57,207.483,28.857
35.6,209.203,29.12
35.64,211.343,29.383
35.67,213.554,29.59
35.7,215.274,29.842
35.73,216.678,30.277
35.77,218.924,30.724
35.8,222.153,30.678
35.83,223.662,30.254
35.87,223.943,30.667
35.9,226.364,31.365
35.93,228.996,31.365
35.96,230.19,31.537
36.0,231.418,32.087
36.03,233.629,32.694
36.06,235.629,33.003
36.09,236.612,33.381
36.13,237.665,33.977
36.16,240.121,34.378
36.19,242.543,34.447
36.22,244.157,34.71
36.26,245.526,35.214
36.29,247.07,35.695
36.32,248.755,35.97
36.35,250.264,36.268
36.39,251.878,36.692
36.42,253.563,37.059
36.45,255.072,37.54
36.48,256.581,38.09
36.52,258.16,38.559
36.55,259.494,39.006
36.58,260.898,39.396
36.61,262.407,39.659
36.65,263.319,39.774
36.68,264.091,40.209
36.71,265.495,40.484
36.74,266.724,40.633
36.78,268.163,40.999
36.81,269.882,41.286
36.84,271.111,41.572
36.87,271.812,42.007
36.91,272.69,42.397
36.94,273.637,42.706
36.97,274.76,43.05
37.0,275.919,43.451
37.04,276.796,43.909
37.07,278.059,44.425
37.1,279.112,44.631
37.13,279.147,45.032
37.17,279.498,45.295
37.2,280.516,45.353
37.23,281.429,45.421
37.26,282.166,45.731
37.3,282.903,46.063
37.33,283.218,46.315
37.36,283.499,46.464
37.39,283.289,46.406
37.43,283.64,46.601
37.46,284.271,46.544
37.49,284.447,46.578
37.52,284.903,47.002
37.56,285.359,47.105
37.59,285.114,47.185
37.62,284.763,47.243
37.66,284.447,47.208
37.69,284.482,47.025
37.72,284.306,46.762
37.75,283.955,46.727
37.79,283.85,46.762
37.82,283.499,46.636
37.85,282.587,46.544
37.88,281.779,46.418
37.92,281.393,46.051
37.95,280.762,45.547
37.98,279.814,45.238
38.01,279.112,45.1
38.05,278.972,44.734
38.08,278.094,44.218
38.11,276.515,43.932
38.14,275.182,43.623
38.18,273.918,43.119
38.21,272.655,42.569
38.24,271.567,42.065
38.27,271.005,41.549
38.31,269.812,40.988
38.34,268.057,40.598
38.37,266.618,40.335
38.4,265.706,39.831
38.44,264.091,39.132
38.47,262.091,38.64
38.5,260.793,38.193
38.53,259.564,37.62
38.57,257.809,37.116
38.6,256.195,36.715
38.63,254.897,36.222
38.66,253.212,35.661
38.7,251.282,35.203
38.73,249.457,34.722
38.76,247.632,34.149
38.79,245.807,33.599
38.83,243.947,33.003
38.86,242.157,32.683
38.89,240.683,32.305
38.92,239.139,31.606
38.96,237.138,30.884
38.99,234.401,30.621
39.02,232.33,30.586
39.05,231.172,30.117
39.09,229.312,29.555
39.12,227.382,29.131
39.15,225.452,28.799
39.18,222.82,28.547
39.22,220.187,28.261
39.25,217.836,27.917
39.28,216.151,27.585
39.32,214.677,27.253
39.35,212.677,27.047
39.38,210.326,26.921
39.41,207.974,26.749
39.45,205.939,26.474
39.48,203.833,26.119
39.51,201.622,25.867
39.54,199.376,25.638
39.58,197.095,25.42
39.61,194.778,25.282
39.64,192.918,25.202
39.67,191.234,25.042
39.71,188.847,24.801
39.74,185.724,24.618
39.77,183.478,24.458
39.8,181.969,24.011
39.84,179.688,23.541
39.87,176.81,23.404
39.9,174.353,23.346
39.93,172.107,23.003
39.97,169.756,22.51
40.0,166.913,22.224
40.03,164.632,22.04
40.06,161.649,21.399
40.1,158.56,21.181
40.13,157.297,20.528
40.16,154.91,20.001
40.19,151.331,19.921
40.23,148.347,19.83
40.26,145.75,19.406
40.29,142.662,18.844
40.32,139.503,18.489
40.36,136.942,18.168
40.39,134.485,17.722
40.42,131.502,17.241
40.45,128.484,16.92
40.49,125.676,16.53
40.52,122.798,16.038
40.55,119.534,15.602
40.58,116.341,15.179
40.62,113.463,14.743
40.65,110.585,14.4
40.68,107.602,14.102
40.71,104.619,13.724
40.75,101.285,13.208
40.78,97.6,12.693
40.81,94.441,12.131
40.84,91.458,11.318
40.88,87.914,10.619
40.91,84.229,10.15
40.94,81.035,9.657
40.97,78.227,8.878
41.01,74.507,8.191
41.04,70.506,7.79
41.07,66.856,7.435
41.11,63.277,6.896
41.14,59.592,6.404
41.17,56.223,6.083
41.2,53.204,5.705
41.24,49.554,5.247
41.27,45.659,4.903
41.3,41.939,4.594
41.33,38.605,4.307
41.37,36.324,4.766
41.4,35.481,5.178
41.43,30.428,3.769
41.46,22.11,2.933
41.5,17.513,2.52
41.53,15.337,1.008
41.56,12.74,-0.115
41.59,12.599,-1.352
41.63,7.195,-2.669
41.66,-2.562,-1.764
41.69,-9.16,-1.237
41.72,-15.161,-1.512
41.76,-19.337,-0.905
41.79,-21.97,0.962
41.82,-19.864,1.214
41.85,-21.162,-0.653
41.89,-26.181,-1.581
41.92,-28.673,-1.867
41.95,-29.761,-2.807
41.98,-34.288,-3.666
42.02,-40.71,-3.677
42.05,-44.501,-3.849
42.08,-46.466,-4.823
42.11,-50.993,-5.888
42.15,-56.503,-6.106
42.18,-59.557,-6.163
42.21,-61.732,-6.828
42.24,-65.979,-7.458
42.28,-70.436,-7.48
42.31,-73.138,-7.595
42.34,-75.244,-8.122
42.37,-78.508,-8.683
42.41,-82.614,-8.832
42.44,-85.843,-9.038
42.47,-88.51,-9.588
42.5,-91.774,-10.23
42.54,-95.038,-10.596
42.57,-97.319,-10.986
42.6,-99.881,-11.559
42.63,-103.391,-11.948
42.67,-106.76,-11.983
42.7,-108.76,-12.246
42.73,-111.322,-13.014
42.76,-114.972,-13.54
42.8,-118.481,-13.792
42.83,-121.219,-14.216
42.86,-123.956,-14.881
42.9,-126.869,-15.465
42.93,-129.922,-15.958
42.96,-133.221,-16.313
42.99,-136.45,-16.897
43.03,-139.117,-17.481
43.06,-141.504,-18.226
43.09,-144.031,-18.673
43.12,-146.487,-19.085
43.16,-149.435,-19.532
43.19,-152.524,-19.921
43.22,-155.261,-20.494
43.25,-157.893,-21.147
43.29,-160.736,-21.685
43.32,-163.544,-22.109
43.35,-165.79,-22.613
43.38,-168.176,-23.163
43.42,-170.879,-23.518
43.45,-173.23,-23.816
43.48,-175.371,-24.354
43.51,-178.038,-24.996
43.55,-180.986,-25.557
43.58,-183.548,-26.016
43.61,-185.583,-26.474
43.64,-187.935,-26.863
43.68,-190.637,-27.161
43.71,-192.883,-27.425
43.74,-194.638,-27.986
43.77,-197.551,-28.478
43.81,-200.604,-28.501
43.84,-202.008,-28.673
43.87,-203.482,-29.166
43.9,-205.763,-29.406
43.94,-207.588,-29.452
43.97,-208.957,-29.75
44.0,-211.098,-30.208
44.03,-213.765,-30.472
44.07,-215.73,-30.781
44.1,-217.31,-31.274
44.13,-219.099,-31.732
44.16,-220.854,-31.995
44.2,-222.469,-32.259
44.23,-224.434,-32.717
44.26,-226.505,-33.129
44.29,-228.47,-33.519
44.33,-230.33,-33.92
44.36,-232.085,-34.367
44.39,-233.875,-34.745
44.42,-235.629,-35.191
44.46,-237.138,-35.501
44.49,-238.367,-36.005
44.52,-240.613,-36.578
44.55,-243.175,-36.864
44.59,-244.719,-37.196
44.62,-245.772,-37.895
44.65,-247.527,-38.445
44.69,-249.106,-38.674
44.72,-250.475,-39.052
44.75,-252.37,-39.453
44.78,-254.581,-39.716
44.82,-256.265,-39.98
44.85,-257.072,-40.461
44.88,-258.266,-41.034
44.91,-260.02,-41.286
44.95,-261.179,-41.469
44.98,-262.372,-41.847
45.01,-263.425,-42.042
45.04,-264.267,-42.237
45.08,-265.495,-42.626
45.11,-267.215,-42.878
45.14,-268.198,-43.165
45.17,-269.356,-43.795
45.21,-270.724,-44.184
45.24,-271.777,-44.574
45.27,-272.409,-44.837
45.3,-273.216,-45.295
45.34,-274.936,-45.673
45.37,-276.094,-45.948
45.4,-276.305,-46.487
45.43,-277.287,-46.945
45.47,-278.34,-47.059
45.5,-279.253,-47.208
45.53,-279.077,-47.105
45.56,-279.042,-47.495
45.6,-280.341,-47.598
45.63,-281.323,-47.586
45.66,-281.709,-47.815
45.69,-281.815,-48.045
45.73,-281.815,-48.193
45.76,-281.885,-48.171
45.79,-281.85,-48.067
45.82,-282.095,-48.182
45.86,-282.832,-48.228
45.89,-282.938,-48.205
45.92,-282.411,-48.342
45.95,-282.13,-48.411
45.99,-282.13,-48.251
46.02,-281.779,-47.919
46.05,-281.042,-47.735
46.08,-281.358,-47.689
46.12,-281.99,-47.437
46.15,-281.569,-47.208
46.18,-280.27,-47.254
46.21,-279.709,-47.231
46.25,-279.323,-46.784
46.28,-278.516,-46.406
46.31,-277.989,-46.143
46.34,-277.744,-45.822
46.38,-277.287,-45.513
46.41,-276.375,-45.261
46.44,-275.322,-45.02
46.48,-274.059,-44.654
46.51,-272.69,-44.15
46.54,-271.742,-43.634
46.57,-270.865,-42.958
46.61,-269.566,-42.408
46.64,-268.408,-42.007
46.67,-267.496,-41.481
46.7,-265.881,-40.988
46.74,-264.127,-40.553
46.77,-263.004,-39.865
46.8,-261.986,-39.132
46.83,-260.652,-38.525
46.87,-258.897,-38.032
46.9,-257.248,-37.62
46.93,-255.809,-37.173
46.96,-254.265,-36.658
47.0,-252.44,-36.119
47.03,-250.58,-35.455
47.06,-248.685,-34.882
47.09,-247.035,-34.252
47.13,-245.245,-33.714
47.16,-243.35,-33.244
47.19,-241.455,-32.797
47.22,-240.192,-32.476
47.26,-238.753,-31.961
47.29,-236.331,-31.457
47.32,-233.769,-31.159
47.35,-232.401,-30.861
47.39,-231.102,-30.357
47.42,-228.961,-29.933
47.45,-226.645,-29.727
47.48,-224.925,-29.315
47.52,-222.855,-28.753
47.55,-220.573,-28.398
47.58,-218.503,-28.158
47.61,-216.783,-27.757
47.65,-214.607,-27.356
47.68,-212.431,-27.115
47.71,-210.606,-26.898
47.74,-208.746,-26.6
47.78,-206.535,-26.279
47.81,-204.219,-26.004
47.84,-202.324,-25.638
47.87,-200.323,-25.145
47.91,-197.797,-24.881
47.94,-195.691,-24.836
47.97,-193.831,-24.687
48.0,-191.444,-24.492
48.04,-189.023,-24.24
48.07,-186.952,-23.942
48.1,-184.987,-23.53
48.13,-182.32,-23.14
48.17,-179.512,-22.991
48.2,-177.336,-22.819
48.23,-175.09,-22.453
48.27,-172.598,-22.121
48.3,-169.931,-21.892
48.33,-167.404,-21.571
48.36,-164.807,-21.067
48.4,-162.035,-20.597
48.43,-159.438,-20.334
48.46,-157.367,-20.047
48.49,-154.559,-19.612
48.53,-151.26,-19.326
48.56,-148.593,-19.039
48.59,-146.347,-18.535
48.62,-143.399,-17.916
48.66,-140.03,-17.55
48.69,-137.117,-17.172
48.72,-134.344,-16.633
48.75,-131.221,-16.129
48.79,-128.413,-15.683
48.82,-125.887,-15.018
48.85,-122.588,-14.262
48.88,-118.903,-13.666
48.92,-115.674,-13.151
48.95,-113.007,-12.578
48.98,-110.129,-12.074
49.01,-107.111,-11.708
49.05,-103.917,-11.307
49.08,-100.407,-10.78
49.11,-96.617,-10.241
49.14,-93.318,-9.668
49.18,-90.335,-8.981
49.21,-86.966,-8.305
49.24,-83.105,-7.732
49.27,-79.526,-7.091
49.31,-76.016,-6.346
49.34,-72.296,-5.613
49.37,-68.295,-5.052
49.4,-64.751,-4.628
49.44,-61.417,-4.113
49.47,-57.661,-3.62
49.5,-53.836,-3.322
49.53,-50.677,-2.978
49.57,-47.414,-2.543
49.6,-43.799,-2.165
49.63,-40.044,-1.833
49.66,-36.71,-1.569
49.7,-34.674,-2.051
49.73,-34.428,-2.612
49.76,-29.726,-1.249
49.79,-21.478,-0.836
49.83,-17.899,-0.596
49.86,-16.214,0.962
49.89,-13.757,2.039
49.92,-13.02,2.933
49.96,-10.248,4.857
49.99,0.702,4.674
50.02,9.37,3.471
50.06,16.039,3.677
50.09,21.233,3.471
50.12,23.373,1.856
50.15,20.847,0.939
50.19,20.25,2.83
50.22,25.76,4.17
50.25,29.62,4.273
50.28,30.603,4.914
50.32,33.972,5.854
50.35,39.973,5.923
50.38,44.501,5.808
50.41,47.203,6.289
50.45,50.537,7.08
50.48,54.819,7.584
50.51,58.749,7.732
50.54,62.013,7.881
50.58,65.347,8.225
50.61,68.857,8.557
50.64,71.91,8.821
50.67,75.069,9.164
50.71,78.192,9.382
50.74,80.789,9.611
50.77,84.123,10.001
50.8,87.808,10.195
50.84,90.44,10.528
50.87,92.967,11.192
50.9,96.126,11.719
50.93,99.214,12.109
50.97,102.618,12.475
51.0,105.742,12.842
51.03,108.655,13.449
51.06,112.094,13.999
51.1,115.604,14.354
51.13,118.727,14.697
51.16,121.57,15.19
51.19,124.483,15.763
51.23,127.676,16.164
51.26,130.975,16.496
51.29,133.748,16.805
51.32,136.591,17.493
51.36,139.89,17.962
51.39,142.592,18.283
51.42,144.908,18.661
51.45,147.54,19.142
51.49,150.453,19.486
51.52,152.945,19.818
51.55,155.437,20.357
51.58,158.525,20.895
51.62,161.613,21.33
51.65,164.246,21.8
51.68,166.737,22.304
51.71,169.37,22.716
51.75,171.721,23.14
51.78,174.529,23.667
51.81,178.389,23.965
51.85,181.407,24.217
51.88,183.513,24.836
51.91,185.759,25.58
51.94,187.935,26.153
51.98,190.321,26.428
52.01,192.743,26.531
52.04,194.849,26.863
52.07,197.025,27.344
52.11,199.236,27.7
52.14,201.166,27.986
52.17,203.096,28.41
52.2,205.307,28.708
52.24,206.886,28.845
52.27,208.606,29.166
52.3,211.168,29.395
52.33,213.519,29.635
52.37,215.274,30.014
52.4,217.064,30.437
52.43,219.135,30.735
52.46,221.065,30.907
52.5,222.293,30.953
52.53,223.627,31.365
52.56,226.399,31.835
52.59,228.68,31.915
52.63,229.593,32.339
52.66,231.032,32.866
52.69,233.243,33.141
52.72,235.559,33.324
52.76,236.963,33.737
52.79,238.683,34.241
52.82,241.35,34.367
52.85,242.894,34.447
52.89,244.157,34.939
52.92,246.333,35.421
52.95,248.088,35.741
52.98,249.071,36.131
53.02,250.404,36.566
53.05,252.194,36.967
53.08,253.773,37.288
53.11,255.142,37.712
53.15,256.581,38.227
53.18,258.371,38.685
53.21,260.126,38.914
53.24,261.038,39.212
53.28,261.916,39.682
53.31,262.898,39.968
53.34,264.162,40.312
53.37,265.601,40.53
53.41,267.039,40.621
53.44,268.233,41.022
53.47,269.707,41.572
53.5,270.76,42.019
53.54,271.181,42.5
53.57,271.988,42.89
53.6,273.427,43.245
53.64,274.936,43.451
53.67,275.778,43.909
53.7,276.62,44.562
53.73,278.13,44.997
53.77,279.007,45.146
53.8,279.042,45.559
53.83,279.218,45.765
53.86,279.99,45.879
53.9,280.832,45.937
53.93,281.569,46.074
53.96,281.92,46.235
53.99,282.552,46.613
54.03,283.043,46.704
54.06,283.394,46.933
54.09,283.675,46.991
54.12,283.148,46.865
54.16,283.569,47.243
54.19,285.008,47.243
54.22,284.798,47.22
54.25,284.096,47.552
54.29,284.096,47.644
54.32,284.447,47.449
54.35,284.131,47.094
54.38,283.464,46.933
54.42,283.113,46.888
54.45,283.394,46.819
54.48,283.394,46.613
54.51,282.762,46.429
54.55,281.639,46.223
54.58,280.551,45.994
54.61,280.165,45.627
54.64,279.744,45.158
54.68,278.691,44.883
54.71,278.059,44.734
54.74,277.603,44.367
54.77,276.726,43.898
54.81,275.287,43.382
54.84,273.637,42.947
54.87,272.304,42.454
54.9,271.286,41.87
54.94,270.479,41.32
54.97,269.286,40.942
55.0,268.198,40.53
55.03,266.899,40.037
55.07,265.39,39.51
55.1,263.705,38.972
55.13,262.126,38.456
55.16,260.722,37.952
55.2,259.564,37.437
55.23,258.195,36.864
55.26,256.616,36.463
55.29,254.967,36.062
55.33,253.072,35.581
55.36,251.106,35.031
55.39,249.281,34.55
55.43,247.948,34.057
55.46,246.333,33.45
55.49,244.017,32.958
55.52,242.122,32.74
55.56,240.929,32.373
55.59,238.998,31.778
55.62,236.331,31.342
55.65,234.225,31.067
55.69,232.927,30.621
55.72,231.593,30.071
55.75,229.909,29.613
55.78,228.294,29.028
55.82,225.101,28.662
55.85,222.153,28.765
55.88,220.538,28.478
55.91,218.924,27.883
55.95,216.573,27.596
55.98,214.783,27.516
56.01,213.098,27.207
56.04,210.606,26.966
56.08,208.781,26.703
56.11,207.062,26.256
56.14,204.745,25.798
56.17,201.833,25.546
56.21,199.306,25.42
56.24,197.691,25.145
56.27,195.796,24.836
56.3,193.48,24.698
56.34,190.988,24.641
56.37,188.461,24.469
56.4,185.97,24.125
56.43,183.723,23.805
56.47,181.442,23.53
56.5,179.301,23.289
56.53,177.161,23.014
56.56,174.599,22.797
56.6,171.756,22.59
56.63,169.159,22.361
56.66,166.913,22.018
56.69,164.491,21.674
56.73,161.122,21.135
56.76,158.279,21.021
56.79,156.384,20.62
56.82,154.173,20.173
56.86,151.646,19.852
56.89,148.593,19.669
56.92,145.68,19.394
56.95,142.908,18.741
56.99,139.714,18.134
57.02,136.52,17.802
57.05,134.274,17.458
57.08,131.853,16.92
57.12,128.729,16.542
57.15,125.851,16.187
57.18,122.552,15.694
57.22,119.113,15.339
57.25,116.2,14.892
57.28,113.533,14.434
57.31,110.936,14.033
57.35,108.128,13.575
57.38,104.689,13.14
57.41,100.969,12.796
57.44,97.424,12.349
57.48,94.125,11.776
57.51,90.967,11.078
57.54,87.773,10.447
57.57,84.544,9.886
57.61,80.965,9.348
57.64,77.069,8.97
57.67,73.524,8.5
57.7,70.296,7.893
57.74,67.874,7.137
57.77,64.154,6.438
57.8,59.311,6.358
57.83,55.942,6.266
57.87,53.204,5.544
57.9,49.133,4.88
57.93,45.027,4.766
57.96,42.009,4.617
58.0,38.85,4.181
58.03,35.867,4.525
58.06,34.85,4.96
58.09,30.779,3.299
58.13,22.005,2.406
58.16,17.126,2.497
58.19,15.723,1.088
58.22,13.687,-0.08
58.26,13.301,-0.974
58.29,8.247,-1.764
58.32,0.597,-1.375
58.35,-6.142,-1.398
58.39,-12.494,-1.363
58.42,-17.583,-0.928
58.45,-22.18,0.699
58.48,-20.566,1.272
58.52,-21.233,-0.63
58.55,-26.743,-1.97
58.58,-30.708,-2.165
58.61,-31.761,-2.635
58.65,-34.534,-3.425
58.68,-39.903,-3.689
58.71,-44.255,-3.666
58.74,-46.606,-4.113
58.78,-49.554,-5.029
58.81,-54.012,-5.59
58.84,-58.258,-5.602
58.87,-60.89,-5.865
58.91,-63.943,-6.518
58.94,-68.26,-6.931
58.97,-71.98,-7.137
59.01,-74.577,-7.629
59.04,-77.455,-8.305
59.07,-80.614,-8.924
59.1,-84.299,-9.382
59.14,-87.633,-9.68
59.17,-90.581,-10.299
59.2,-94.125,-10.929
59.23,-98.161,-11.513
59.27,-101.671,-11.948
59.3,-104.163,-12.532
59.33,-107.426,-13.254
59.36,-111.252,-13.655
59.4,-114.13,-13.941
59.43,-116.656,-14.606
59.46,-119.991,-15.213
59.49,-122.903,-15.522
59.53,-125.606,-16.003
59.56,-128.027,-16.37
59.59,-131.01,-16.828
59.62,-134.239,-16.954
59.66,-136.731,-17.424
59.69,-139.117,-18.042
59.72,-141.75,-18.638
59.75,-144.592,-18.913
59.79,-147.54,-19.096
59.82,-150.523,-19.371
59.85,-153.261,-19.681
59.88,-155.261,-20.196
59.92,-157.578,-20.872
59.95,-160.876,-21.388
59.98,-163.86,-21.72
60.01,-166.176,-22.178
60.05,-168.317,-22.762
60.08,-170.844,-23.22
60.11,-173.37,-23.45
60.14,-175.581,-23.885
60.18,-178.178,-24.549
60.21,-180.986,-25.099
60.24,-183.232,-25.58
60.27,-185.268,-26.016
60.31,-187.724,-26.325
60.34,-190.181,-26.543
60.37,-192.216,-26.875
60.4,-194.252,-27.425
60.44,-196.989,-27.894
60.47,-199.236,-28.146
60.5,-200.78,-28.536
60.53,-202.78,-28.971
60.57,-205.342,-29.166
60.6,-206.921,-29.383
60.63,-208.22,-29.91
60.66,-210.431,-30.437
60.7,-213.239,-30.689
60.73,-215.274,-30.999
60.76,-217.415,-31.48
60.8,-220.258,-31.64
60.83,-222.012,-31.617
60.86,-223.1,-31.95
60.89,-224.89,-32.431
60.93,-227.206,-32.717
60.96,-228.926,-32.981
60.99,-230.435,-33.542
61.02,-232.26,-33.989
61.06,-234.401,-34.367
61.09,-236.191,-34.47
61.12,-237.384,-34.939
61.15,-239.139,-35.489
61.19,-240.929,-35.787
61.22,-242.368,-36.177
61.25,-244.087,-36.772
61.28,-246.404,-37.185
61.32,-247.913,-37.46
61.35,-248.86,-37.964
61.38,-250.334,-38.468
61.41,-252.054,-38.8
61.45,-253.668,-39.098
61.48,-255.247,-39.51
61.51,-256.897,-39.957
61.54,-258.09,-40.427
61.58,-259.143,-40.873
61.61,-260.406,-41.206
61.64,-261.775,-41.446
61.67,-263.214,-41.698
61.71,-264.513,-41.962
61.74,-265.53,-42.225
61.77,-266.934,-42.603
61.8,-268.513,-42.993
61.84,-269.672,-43.336
61.87,-270.549,-43.84
61.9,-271.707,-44.241
61.93,-272.62,-44.574
61.97,-273.497,-45.032
62.0,-274.725,-45.49
62.03,-275.778,-45.948
62.06,-276.866,-46.326
62.1,-277.708,-46.521
62.13,-278.094,-46.784
62.16,-278.726,-47.059
62.19,-279.182,-47.059
62.23,-279.568,-47.266
62.26,-280.551,-47.541
62.29,-281.358,-47.609
62.32,-281.569,-47.85
62.36,-281.815,-48.067
62.39,-282.201,-48.056
62.42,-282.06,-47.999
62.45,-281.85,-48.01
62.49,-282.657,-48.022
62.52,-283.218,-47.804
62.55,-283.113,-48.045
62.59,-283.008,-48.251
62.62,-282.692,-48.067
62.65,-282.201,-47.941
62.68,-282.166,-47.689
62.72,-281.85,-47.346
62.75,-281.534,-47.197
62.78,-281.674,-47.151
62.81,-281.393,-47.002
62.85,-280.551,-46.956
62.88,-280.095,-46.819
62.91,-279.428,-46.487
62.94,-278.621,-46.212
62.98,-278.2,-45.948
63.01,-277.919,-45.662
63.04,-277.252,-45.364
63.07,-276.305,-45.135
63.11,-275.287,-44.917
63.14,-274.585,-44.47
63.17,-273.251,-43.863
63.2,-271.497,-43.371
63.24,-270.233,-42.924
63.27,-269.566,-42.408
63.3,-268.689,-41.881
63.33,-267.461,-41.469
63.37,-265.987,-41.091
63.4,-264.793,-40.576
63.43,-263.249,-39.9
63.46,-261.635,-39.315
63.5,-260.301,-38.777
63.53,-258.968,-38.239
63.56,-257.283,-37.712
63.59,-255.669,-37.208
63.63,-254.089,-36.692
63.66,-252.545,-36.096
63.69,-250.545,-35.409
63.72,-248.404,-34.882
63.76,-246.754,-34.401
63.79,-245.491,-33.84
63.82,-244.087,-33.244
63.85,-242.157,-32.797
63.89,-240.543,-32.58
63.92,-238.963,-32.03
63.95,-236.472,-31.411
63.98,-234.085,-31.113
64.02,-232.997,-30.747
64.05,-231.699,-30.105
64.08,-228.961,-29.67
64.11,-226.575,-29.532
64.15,-225.171,-29.131
64.18,-223.311,-28.57
64.21,-220.854,-28.226
64.24,-218.854,-27.974
64.28,-216.959,-27.539
64.31,-214.537,-27.184
64.34,-212.502,-26.921
64.38,-210.782,-26.634
64.41,-209.132,-26.268
64.44,-206.535,-25.912
64.47,-204.114,-25.844
64.51,-201.938,-25.454
64.54,-199.797,-25.179
64.57,-198.288,-25.133
64.6,-196.674,-24.962
64.64,-194.463,-24.836
64.67,-192.076,-24.79
64.7,-189.549,-24.595
64.73,-186.636,-24.354
64.77,-184.425,-24.114
64.8,-182.846,-23.621
64.83,-180.705,-23.094
64.86,-178.038,-22.842
64.9,-175.23,-22.693
64.93,-172.633,-22.419
64.96,-170.036,-21.949
64.99,-167.264,-21.502
65.03,-164.877,-21.101
65.06,-162.35,-20.551
65.09,-159.438,-20.15
65.12,-156.946,-19.921
65.16,-154.489,-19.532
65.19,-151.401,-19.108
65.22,-148.593,-18.695
65.25,-146.136,-18.157
65.29,-143.399,-17.653
65.32,-140.03,-17.069
65.35,-136.942,-16.668
65.38,-134.309,-16.152
65.42,-131.432,-15.66
65.45,-128.448,-15.316
65.48,-125.606,-14.938
65.51,-122.377,-14.411
65.55,-118.903,-13.873
65.58,-115.709,-13.392
65.61,-113.217,-12.887
65.64,-110.62,-12.303
65.68,-107.216,-11.708
65.71,-103.25,-11.261
65.74,-99.741,-10.791
65.77,-96.968,-10.104
65.81,-93.88,-9.313
65.84,-90.37,-8.763
65.87,-86.861,-8.305
65.9,-83.492,-7.641
65.94,-79.807,-6.919
65.97,-76.086,-6.438
66.0,-72.963,-5.934
66.03,-69.734,-5.235
66.07,-65.804,-4.674
66.1,-61.768,-4.399
66.13,-58.574,-4.124
66.17,-55.626,-3.643
66.2,-52.011,-3.208
66.23,-48.291,-2.933
66.26,-44.606,-2.589
66.3,-40.57,-2.188
66.33,-37.131,-1.787
66.36,-35.095,-2.062
66.39,-34.85,-2.6
66.43,-30.182,-1.249
66.46,-21.548,-0.527
66.49,-16.811,-0.263
66.52,-14.986,1.237
66.56,-12.669,2.486
66.59,-12.704,3.551
66.62,-8.844,5.098
66.65,2.246,4.204
66.69,9.686,3.391
66.72,16.495,3.792
66.75,21.338,3.311
66.78,22.882,1.546
66.82,20.039,0.974
66.85,20.32,2.807
66.88,25.865,4.021
66.91,29.269,4.284
66.95,29.901,5.018
66.98,33.762,5.854
67.01,40.184,5.648
67.04,43.729,5.487
67.08,45.799,6.255
67.11,49.87,7.068
67.14,54.643,7.206
67.17,57.802,7.217
67.21,60.294,7.584
67.24,64.154,8.03
67.27,67.874,8.248
67.3,70.963,8.649
67.34,74.507,9.142
67.37,78.297,9.462
67.4,81.491,9.794
67.43,84.755,10.241
67.47,87.843,10.642
67.5,90.826,11.078
67.53,94.441,11.444
67.56,97.986,11.639
67.6,100.478,11.983
67.63,102.829,12.578
67.66,106.268,13.002
67.69,110.059,13.185
67.73,113.042,13.472
67.76,115.779,14.045
67.79,119.183,14.457
67.82,122.061,14.652
67.86,124.237,15.064
67.89,127.396,15.648
67.92,131.291,15.958
67.96,133.994,16.278
67.99,136.134,16.874
68.02,139.644,17.596
68.05,143.82,17.962
68.09,146.136,18.146
68.12,148.067,18.81
68.15,150.839,19.165
68.18,153.471,19.417
68.22,156.139,19.807
68.25,159.402,20.334
68.28,162.421,20.838
68.31,164.737,21.41
68.35,167.334,21.983
68.38,169.545,22.281
68.41,171.756,22.636
68.44,175.055,23.255
68.48,178.459,23.472
68.51,180.249,23.793
68.54,181.863,24.607
68.57,185.022,25.363
68.61,188.672,25.683
68.64,191.129,26.038
68.67,193.129,26.795
68.7,195.691,27.425
68.74,198.183,27.734
68.77,200.288,28.158
68.8,203.412,28.582
68.83,206.711,28.765
68.87,208.781,29.063
68.9,210.396,29.75
68.93,212.888,30.426
68.96,215.765,30.724
69.0,217.871,31.033
69.03,219.801,31.571
69.06,221.802,32.064
69.09,223.662,32.545
69.13,225.627,32.9
69.16,227.101,32.958
69.19,228.54,33.141
69.22,230.646,33.347
69.26,232.716,33.519
69.29,234.261,33.714
69.32,235.524,34.023
69.35,237.033,34.298
69.39,238.472,34.607
69.42,240.121,34.836
69.45,242.052,34.962
69.48,243.701,35.077
69.52,244.789,35.409
69.55,246.404,35.776
69.58,248.299,36.005
69.61,249.913,36.222
69.65,250.896,36.555
69.68,252.37,37.036
69.71,254.124,37.448
69.75,255.493,37.906
69.78,257.248,38.376
69.81,259.213,38.651
69.84,260.477,38.892
69.88,261.635,39.327
69.91,263.144,39.59
69.94,264.056,39.705
69.97,264.688,40.094
70.01,266.443,40.358
70.04,268.127,40.461
70.07,269.566,40.954
70.1,271.005,41.538
70.14,271.918,42.202
70.17,272.865,42.706
70.2,273.637,42.924
70.23,274.55,43.187
70.27,275.919,43.508
70.3,277.287,43.76
70.33,278.34,44.23
70.36,279.323,44.711
70.4,279.884,45.032
70.43,280.376,45.181
70.46,280.867,45.204
70.49,281.464,45.272
70.53,282.06,45.41
70.56,282.832,45.57
70.59,283.675,45.788
70.62,284.096,46.005
70.66,284.201,46.154
70.69,284.201,46.212
70.72,284.201,46.315
70.75,284.552,46.292
70.79,284.798,46.177
70.82,284.973,46.338
70.85,285.57,46.578
70.88,285.956,46.567
70.92,285.429,46.613
70.95,284.517,46.59
70.98,284.341,46.624
71.01,283.499,45.501
71.05,276.199,42.134
71.08,266.829,39.499
71.11,266.899,37.735
71.14,272.514,34.653
71.18,271.216,32.373
71.21,265.636,32.339
71.24,262.442,32.362
71.27,263.144,31.743
71.31,265.846,31.675
71.34,268.373,32.442
71.37,268.092,33.233
71.4,265.636,34.367
71.44,265.881,35.627
71.47,268.127,36.016
71.5,267.952,36.165
71.54,265.916,36.967
71.57,265.39,37.609
71.6,265.601,37.689
71.63,265.109,37.769
71.67,264.337,38.124
71.7,263.635,38.445
71.73,262.582,38.536
71.76,261.53,38.41
71.8,260.582,38.25
71.83,259.915,38.158
71.86,259.108,37.975
71.89,257.529,37.757
71.93,255.844,37.62
71.96,254.405,37.471
71.99,253.458,37.036
72.02,251.633,36.532
72.06,249.457,36.291
72.09,247.702,36.154
72.12,246.684,35.787
72.15,245.702,35.146
72.19,243.491,34.768
72.22,241.245,34.768
72.25,239.665,34.447
72.28,237.454,33.863
72.32,235.173,33.439
72.35,233.839,33.21
72.38,232.541,32.82
72.41,230.049,32.534
72.45,227.733,32.431
72.48,226.469,32.11
72.51,224.75,31.629
72.54,222.188,31.388
72.58,220.152,31.136
72.61,218.152,30.735
72.64,215.871,30.437
72.67,213.765,30.288
72.71,212.431,30.002
72.74,210.641,29.429
72.77,208.115,29.074
72.8,206.29,28.662
72.84,204.114,28.066
72.87,201.306,27.642
72.9,198.534,27.596
72.93,196.674,27.528
72.97,195.27,27.115
73.0,192.883,26.691
73.03,189.83,26.565
73.06,187.373,26.279
73.1,184.846,25.844
73.13,183.092,25.351
73.16,181.372,24.801
73.19,178.178,24.572
73.23,175.125,24.561
73.26,172.633,24.286
73.29,169.931,23.839
73.33,167.159,23.507
73.36,164.526,23.163
73.39,161.929,22.705
73.42,159.192,22.224
73.46,156.384,21.811
73.49,153.647,21.433
73.52,150.664,20.987
73.55,147.33,20.494
73.59,144.417,19.933
73.62,141.539,19.337
73.65,138.661,18.799
73.68,136.31,18.295
73.72,133.502,17.905
73.75,130.344,17.745
73.78,128.554,17.412
73.81,126.448,16.691
73.85,122.166,16.313
73.88,118.481,16.347
73.91,116.341,15.889
73.94,113.989,15.167
73.98,111.743,14.583
74.01,108.514,14.159
74.04,104.303,14.079
74.07,101.109,13.747
74.11,98.477,12.876
74.14,94.933,12.166
74.17,91.388,11.753
74.2,88.335,11.272
74.24,84.966,10.677
74.27,81.21,10.161
74.3,77.841,9.726
74.33,74.718,9.176
74.37,71.068,8.557
74.4,67.313,8.099
74.43,63.803,7.698
74.46,60.715,7.183
74.5,57.31,6.69
74.53,53.59,6.278
74.56,49.835,5.888
74.59,46.15,5.464
74.63,42.43,5.04
74.66,38.64,4.754
74.69,36.429,5.121
74.72,36.043,5.418
74.76,31.726,3.883
74.79,23.058,3.253
74.82,18.987,3.001
74.85,16.846,1.168
74.89,13.161,-0.046
74.92,11.862,-0.813
74.95,10.248,-2.818
74.98,-0.316,-2.887
75.02,-9.019,-1.249
75.05,-15.126,-1.512
75.08,-20.145,-1.535
75.12,-22.882,0.115
75.15,-22.285,1.008
75.18,-21.654,-0.653
75.21,-25.9,-1.97
75.25,-29.199,-2.039
75.28,-30.919,-2.36
75.31,-34.393,-2.898
75.34,-39.201,-3.139
75.38,-42.921,-3.528
75.41,-46.22,-4.25
75.44,-49.94,-4.926
75.47,-54.362,-5.315
75.51,-58.047,-5.51
75.54,-60.715,-6.014
75.57,-64.014,-6.656
75.6,-68.33,-7.114
75.64,-72.296,-7.194
75.67,-74.753,-7.48
75.7,-77.56,-8.133
75.73,-81.316,-8.5
75.77,-84.439,-8.718
75.8,-87.352,-9.325
75.83,-91.177,-10.012
75.86,-94.722,-10.413
75.9,-97.003,-10.86
75.93,-99.39,-11.478
75.96,-102.969,-11.948
75.99,-106.865,-12.223
76.03,-110.094,-12.555
76.06,-112.866,-13.162
76.09,-115.849,-13.792
76.12,-119.043,-14.308
76.16,-122.026,-14.72
76.19,-124.483,-15.064
76.22,-127.255,-15.602
76.25,-130.379,-15.889
76.29,-133.081,-16.336
76.32,-135.538,-16.931
76.35,-138.451,-17.561
76.38,-141.469,-18.1
76.42,-144.171,-18.443
76.45,-146.628,-18.936
76.48,-149.33,-19.497
76.51,-151.997,-20.013
76.55,-154.63,-20.597
76.58,-157.788,-21.078
76.61,-160.631,-21.525
76.64,-162.947,-22.075
76.68,-165.193,-22.682
76.71,-167.86,-23.06
76.74,-170.317,-23.312
76.77,-173.125,-23.587
76.81,-175.932,-23.919
76.84,-178.564,-24.354
76.87,-180.775,-24.813
76.91,-182.881,-25.294
76.94,-185.303,-25.764
76.97,-187.724,-26.21
77.0,-190.041,-26.669
77.04,-192.322,-27.104
77.07,-194.322,-27.585
77.1,-196.814,-28.123
77.13,-199.411,-28.49
77.17,-201.517,-28.822
77.2,-203.271,-29.235
77.23,-205.096,-29.658
77.26,-207.132,-29.922
77.3,-209.273,-30.174
77.33,-211.238,-30.529
77.36,-213.203,-31.067
77.39,-215.379,-31.549
77.43,-217.45,-31.835
77.46,-218.959,-32.144
77.49,-220.538,-32.545
77.52,-222.679,-32.877
77.56,-224.89,-33.221
77.59,-226.855,-33.611
77.62,-228.4,-34.126
77.65,-230.295,-34.664
77.69,-232.155,-35.1
77.72,-233.769,-35.501
77.75,-235.735,-35.879
77.78,-238.367,-35.97
77.82,-240.332,-36.039
77.85,-241.385,-36.474
77.88,-242.999,-37.024
77.91,-245.21,-37.265
77.95,-246.333,-37.494
77.98,-247.386,-38.067
78.01,-249.281,-38.468
78.04,-251.036,-38.72
78.08,-252.194,-39.155
78.11,-253.703,-39.671
78.14,-255.423,-40.106
78.17,-257.072,-40.392
78.21,-258.16,-40.828
78.24,-259.634,-41.274
78.27,-261.108,-41.435
78.3,-262.056,-41.687
78.34,-262.723,-41.996
78.37,-263.776,-42.386
78.4,-265.46,-42.66
78.43,-266.759,-42.935
78.47,-268.233,-43.348
78.5,-269.426,-43.726
78.53,-270.409,-44.161
78.56,-271.391,-44.528
78.6,-272.198,-44.906
78.63,-273.322,-45.284
78.66,-274.48,-45.685
78.7,-275.813,-46.143
78.73,-276.901,-46.372
78.76,-276.971,-46.601
78.79,-277.779,-47.151
78.83,-278.796,-47.117
78.86,-278.375,-47.14
78.89,-278.972,-47.632
78.92,-280.656,-47.838
78.96,-281.604,-47.896
78.99,-281.183,-48.045
79.02,-281.007,-48.4
79.05,-281.99,-48.572
79.09,-282.341,-48.331
79.12,-281.779,-48.354
79.15,-282.06,-48.468
79.18,-282.832,-48.274
79.22,-282.727,-48.125
79.25,-282.341,-48.193
79.28,-282.236,-48.067
79.31,-281.85,-47.85
79.35,-281.569,-47.644
79.38,-281.464,-47.38
79.41,-281.534,-47.197
79.44,-281.604,-47.14
79.48,-281.464,-47.105
79.51,-280.762,-47.025
79.54,-279.919,-46.888
79.57,-279.323,-46.647
79.61,-279.147,-46.269
79.64,-278.551,-45.822
79.67,-277.638,-45.593
79.7,-277.077,-45.524
79.74,-276.62,-45.249
79.77,-275.462,-44.94
79.8,-274.164,-44.631
79.83,-273.041,-44.081
79.87,-272.023,-43.428
79.9,-270.83,-42.764
79.93,-269.531,-42.271
79.96,-268.794,-41.847
80.0,-267.776,-41.297
80.03,-266.057,-40.839
80.06,-264.478,-40.45
80.09,-263.214,-39.854
80.13,-261.775,-39.155
80.16,-260.126,-38.559
80.19,-258.617,-38.032
80.22,-257.108,-37.471
80.26,-255.669,-36.921
80.29,-254.16,-36.348
80.32,-252.335,-35.787
80.35,-250.51,-35.26
80.39,-249.071,-34.699
80.42,-247.351,-34.08
80.45,-245.561,-33.656
80.49,-244.087,-33.255
80.52,-242.403,-32.797
80.55,-240.297,-32.396
80.58,-238.507,-32.064
80.62,-236.998,-31.503
80.65,-235.033,-30.964
80.68,-233.102,-30.621
80.71,-231.137,-30.128
80.75,-228.961,-29.762
80.78,-227.242,-29.452
80.81,-225.768,-29.086
80.84,-223.872,-28.65
80.88,-220.959,-28.352
80.91,-218.503,-28.135
80.94,-216.959,-27.7
80.97,-215.309,-27.184
81.01,-213.168,-26.863
81.04,-211.098,-26.68
81.07,-209.027,-26.336
81.1,-206.5,-25.935
81.14,-204.114,-25.729
81.17,-202.394,-25.454
81.2,-200.534,-24.973
81.23,-198.077,-24.652
81.27,-195.761,-24.503
81.3,-193.761,-24.354
81.33,-191.725,-24.114
81.36,-189.339,-23.805
81.4,-186.777,-23.621
81.43,-184.636,-23.369
81.46,-182.39,-22.957
81.49,-179.758,-22.716
81.53,-177.582,-22.613
81.56,-175.652,-22.315
81.59,-172.879,-22.029
81.62,-170.071,-21.731
81.66,-167.58,-21.342
81.69,-165.053,-20.883
81.72,-162.28,-20.494
81.75,-159.964,-20.208
81.79,-157.823,-19.83
81.82,-155.472,-19.486
81.85,-152.103,-19.051
81.88,-149.12,-18.776
81.92,-146.347,-18.088
81.95,-143.469,-17.619
81.98,-140.942,-17.16
82.01,-137.714,-16.691
82.05,-134.274,-16.278
82.08,-131.256,-15.751
82.11,-128.694,-15.144
82.14,-125.746,-14.48
82.18,-122.482,-14.033
82.21,-119.254,-13.483
82.24,-115.955,-12.807
82.28,-112.656,-12.246
82.31,-110.094,-11.799
82.34,-107.637,-11.249
82.37,-104.233,-10.78
82.41,-100.302,-10.413
82.44,-96.758,-9.898
82.47,-93.494,-9.164
82.5,-90.3,-8.42
82.54,-87.001,-7.813
82.57,-83.492,-7.286
82.6,-80.087,-6.713
82.63,-76.543,-6.083
82.67,-72.542,-5.648
82.7,-69.278,-5.292
82.73,-66.365,-4.731
82.76,-62.785,-4.181
82.8,-58.925,-3.872
82.83,-55.38,-3.631
82.86,-52.081,-3.23
82.89,-48.607,-2.749
82.93,-44.817,-2.303
82.96,-40.956,-2.005
82.99,-37.798,-1.741
83.02,-35.832,-2.073
83.06,-34.639,-2.199
83.09,-28.603,-0.699
83.12,-20.285,-0.057
83.15,-16.53,0.458
83.19,-14.775,1.913
83.22,-12.775,2.784
83.25,-12.985,4.009
83.28,-6.387,4.972
83.32,3.755,3.631
83.35,10.002,3.288
83.38,16.214,3.563
83.41,19.864,2.784
83.45,20.776,1.168
83.48,18.846,0.974
83.51,20.741,2.555
83.54,26.146,3.482
83.58,28.603,3.964
83.61,29.41,4.937
83.64,33.446,5.751
83.67,39.482,5.865
83.71,43.799,5.888
83.74,46.571,6.518
83.77,50.502,7.423
83.8,55.731,7.755
83.84,59.135,7.801
83.87,60.995,8.454
83.9,64.856,9.119
83.93,69.699,9.096
83.97,72.752,8.981
84.0,74.718,9.405
84.03,77.771,9.783
84.07,81.07,9.657
84.1,83.772,9.806
84.13,86.685,10.207
84.16,90.125,10.654
84.2,93.704,11.089
84.23,96.687,11.433
84.26,99.249,11.925
84.29,102.478,12.532
84.33,106.198,12.853
84.36,109.357,13.128
84.39,112.164,13.666
84.42,115.182,14.297
84.46,118.411,14.812
84.49,121.5,15.156
84.52,124.518,15.683
84.55,127.396,16.095
84.59,130.344,16.519
84.62,132.835,16.92
84.65,135.643,17.481
84.68,139.363,17.939
84.72,142.943,18.317
84.75,145.189,18.764
84.78,147.33,19.348
84.81,151.19,19.566
84.85,154.63,19.509
84.88,156.77,19.99
84.91,159.122,20.872
84.94,161.227,21.766
84.98,163.86,22.407
85.01,168.001,22.476
85.04,171.159,22.51
85.07,172.949,22.968
85.11,175.02,23.667
85.14,178.319,24.32
85.17,181.653,24.71
85.2,184.109,25.363
85.24,186.812,26.107
85.27,189.584,26.543
85.3,191.76,26.795
85.33,193.55,27.253
85.37,195.937,27.722
85.4,198.779,27.906
85.43,200.85,28.066
85.46,202.289,28.49
85.5,204.079,28.868
85.53,206.114,28.891
85.56,207.588,28.742
85.59,208.746,28.879
85.63,210.712,29.086
85.66,212.817,29.189
85.69,214.291,29.418
85.72,215.555,29.819
85.76,217.59,30.162
85.79,219.872,30.231
85.82,222.083,30.162
85.86,223.767,30.277
85.89,225.417,30.586
85.92,227.277,30.793
85.95,229.102,30.976
85.99,230.576,31.297
86.02,232.611,32.007
86.05,235.384,32.373
86.08,236.823,32.625
86.12,237.595,33.313
86.15,239.665,33.943
86.18,242.157,34.183
86.21,243.526,34.538
86.25,245.14,35.203
86.28,247.597,35.661
86.31,249.387,35.844
86.34,250.299,36.245
86.38,251.492,36.761
86.41,253.107,37.07
86.44,254.475,37.357
86.47,256.23,37.746
86.51,257.845,38.101
86.54,259.073,38.559
86.57,260.512,39.029
86.6,261.916,39.35
86.64,262.863,39.819
86.67,264.372,40.301
86.7,265.881,40.301
86.73,266.618,40.633
86.77,267.987,41.274
86.8,269.952,41.549
86.83,270.935,41.939
86.86,271.918,42.626
86.9,272.83,42.878
86.93,273.497,43.245
86.96,274.48,43.691
86.99,275.813,44.081
87.03,276.866,44.184
87.06,277.533,44.619
87.09,278.691,45.078
87.12,279.533,45.238
87.16,279.884,45.559
87.19,280.446,45.822
87.22,281.323,45.994
87.25,281.744,46.04
87.29,281.815,46.372
87.32,282.832,46.842
87.35,283.464,46.796
87.38,283.394,47.025
87.42,283.99,47.22
87.45,284.096,47.162
87.48,284.131,47.277
87.51,284.447,47.334
87.55,284.552,47.266
87.58,284.166,47.197
87.61,283.253,46.888
87.65,282.13,46.315
87.68,281.253,45.662
87.71,280.692,45.089
87.74,280.832,44.642
87.78,280.586,44.356
87.81,279.779,44.413
87.84,279.253,44.551
87.87,279.147,44.482
87.91,279.007,44.436
87.94,278.726,44.608
87.97,278.831,44.826
88.0,278.691,45.009
88.04,278.445,45.249
88.07,278.2,45.41
88.1,277.814,45.433
88.13,276.901,45.284
88.17,275.252,45.055
88.2,273.778,44.768
88.23,273.076,44.241
88.26,272.269,43.68
88.3,270.935,43.336
88.33,269.461,43.016
88.36,267.987,42.546
88.39,266.513,41.881
88.43,264.899,41.183
88.46,263.144,40.564
88.49,261.6,40.003
88.52,260.126,39.396
88.56,258.336,38.857
88.59,256.476,38.388
88.62,254.967,37.826
88.65,253.282,37.116
88.69,251.247,36.44
88.72,249.632,35.684
88.75,247.948,34.882
88.78,245.631,34.275
88.82,243.35,33.691
88.85,242.052,33.21
88.88,240.823,32.568
88.91,238.191,32.076
88.95,235.699,31.904
88.98,234.857,31.365
89.01,233.173,30.54
89.04,230.295,30.288
89.08,228.4,30.266
89.11,226.961,29.83
89.14,224.925,29.361
89.17,222.574,29.131
89.21,220.573,28.914
89.24,218.538,28.524
89.27,216.116,28.181
89.3,213.905,28.009
89.34,212.256,27.78
89.37,210.431,27.436
89.4,208.185,27.115
89.44,205.798,26.852
89.47,203.377,26.554
89.5,201.131,26.164
89.53,199.06,25.729
89.57,196.884,25.512
89.6,194.638,25.454
89.63,192.673,25.351
89.66,190.567,25.145
89.7,188.216,24.939
89.73,185.724,24.698
89.76,183.337,24.435
89.79,180.951,24.125
89.83,178.88,23.862
89.86,176.915,23.587
89.89,174.599,23.358
89.92,171.756,23.152
89.96,168.843,22.968
89.99,166.597,22.648
90.02,164.456,22.155
90.05,161.789,21.743
90.09,158.911,21.582
90.12,156.525,21.353
90.15,153.822,20.826
90.18,151.19,20.654
90.22,149.084,20.276
90.25,146.523,19.99
90.28,143.118,19.6
90.31,139.749,19.429
90.35,137.398,19.085
90.38,135.187,18.592
90.41,132.414,18.283
90.44,129.15,17.997
90.48,126.027,17.607
90.51,122.903,17.034
90.54,119.85,16.473
90.57,117.078,15.889
90.61,114.095,15.362
90.64,110.76,14.938
90.67,107.567,14.48
90.7,104.092,14.01
90.74,101.285,13.483
90.77,98.442,12.75
90.8,94.862,12.131
90.83,91.563,11.524
90.87,88.335,10.814
90.9,84.579,10.115
90.93,80.649,9.646
90.96,77.42,9.187
91.0,74.261,8.546
91.03,70.471,7.916
91.06,66.505,7.469
91.09,62.856,7.045
91.13,59.521,6.495
91.16,55.907,6.014
91.19,52.362,5.659
91.23,48.782,5.258
91.26,44.957,4.8
91.29,40.921,4.284
91.32,37.061,3.815
91.36,34.393,4.021
91.39,33.27,4.273
91.42,28.111,3.013
91.45,20.18,2.474
91.49,16.354,2.28
91.52,15.407,1.042
91.55,14.108,-0.069
91.58,14.003,-1.042
91.62,10.599,-2.532
91.65,0.702,-2.142
91.68,-6.949,-1.409
91.71,-13.828,-1.581
91.75,-18.706,-1.317
91.78,-22.847,0.241
91.81,-21.584,1.283
91.84,-20.566,-0.435
91.88,-25.584,-1.844
91.91,-29.866,-1.936
91.94,-30.638,-2.474
91.97,-33.411,-3.643
92.01,-39.868,-3.975
92.04,-44.711,-3.906
92.07,-46.922,-4.571
92.1,-50.502,-5.613
92.14,-55.872,-6.003
92.17,-59.486,-5.991
92.2,-61.557,-6.507
92.23,-65.593,-7.16
92.27,-70.155,-7.274
92.3,-72.787,-7.435
92.33,-74.858,-8.019
92.36,-78.227,-8.557
92.4,-82.228,-8.672
92.43,-85.176,-8.947
92.46,-88.054,-9.577
92.49,-91.563,-10.15
92.53,-94.933,-10.493
92.56,-97.565,-10.883
92.59,-100.267,-11.398
92.62,-103.566,-11.799
92.66,-106.584,-12.086
92.69,-109.181,-12.567
92.72,-112.024,-13.208
92.75,-115.393,-13.758
92.79,-118.903,-14.045
92.82,-121.605,-14.285
92.85,-123.956,-14.858
92.88,-126.939,-15.499
92.92,-130.063,-15.797
92.95,-132.449,-16.118
92.98,-135.187,-16.737
93.02,-138.907,-17.252
93.05,-142.065,-17.607
93.08,-143.996,-18.042
93.11,-146.136,-18.673
93.15,-149.225,-19.257
93.18,-152.664,-19.6
93.21,-155.191,-20.082
93.24,-157.753,-20.815
93.28,-160.806,-21.456
93.31,-163.263,-21.869
93.34,-165.228,-22.396
93.37,-167.931,-22.888
93.41,-170.808,-23.163
93.44,-173.019,-23.518
93.47,-175.441,-24.068
93.5,-178.003,-24.687
93.54,-180.424,-25.328
93.57,-182.811,-25.912
93.6,-185.338,-26.371
93.63,-187.584,-26.817
93.67,-189.83,-27.264
93.7,-192.146,-27.574
93.73,-194.322,-27.917
93.76,-197.375,-28.272
93.8,-200.464,-28.318
93.83,-201.938,-28.444
93.86,-202.921,-28.891
93.89,-204.781,-29.223
93.93,-206.816,-29.326
93.96,-208.676,-29.578
93.99,-210.957,-29.933
94.02,-213.239,-30.231
94.06,-215.204,-30.518
94.09,-216.818,-30.907
94.12,-218.468,-31.354
94.15,-220.433,-31.72
94.19,-222.328,-32.087
94.22,-224.504,-32.476
94.25,-226.54,-32.82
94.28,-228.084,-33.278
94.32,-229.768,-33.851
94.35,-231.909,-34.275
94.38,-233.875,-34.538
94.41,-235.489,-34.951
94.45,-237.173,-35.34
94.48,-238.858,-35.787
94.51,-241.034,-36.222
94.54,-242.824,-36.543
94.58,-244.052,-37.082
94.61,-245.772,-37.712
94.64,-247.667,-38.021
94.67,-248.93,-38.204
94.71,-250.229,-38.605
94.74,-251.913,-39.041
94.77,-253.738,-39.384
94.81,-255.458,-39.728
94.84,-256.897,-40.094
94.87,-258.195,-40.553
94.9,-259.599,-40.885
94.94,-260.652,-41.057
94.97,-261.424,-41.458
95.0,-262.933,-41.939
95.03,-264.688,-42.111
95.07,-265.53,-42.374
95.1,-266.548,-43.061
95.13,-268.303,-43.451
95.16,-269.426,-43.772
95.2,-270.374,-44.218
95.23,-271.356,-44.642
95.26,-272.304,-45.009
95.29,-273.392,-45.364
95.33,-274.62,-45.685
95.36,-275.568,-46.177
95.39,-276.726,-46.67
95.42,-277.708,-46.784
95.46,-277.989,-47.036
95.49,-278.481,-47.334
95.52,-279.147,-47.288
95.55,-279.639,-47.231
95.59,-280.305,-47.426
95.62,-281.042,-47.632
95.65,-281.429,-47.735
95.68,-281.499,-47.907
95.72,-281.499,-47.781
95.75,-281.148,-47.793
95.78,-281.815,-48.102
95.81,-282.341,-47.907
95.85,-281.99,-48.125
95.88,-282.411,-48.285
95.91,-282.797,-48.251
95.94,-282.341,-48.319
95.98,-281.92,-48.388
96.01,-282.025,-48.159
96.04,-281.709,-47.85
96.07,-281.323,-47.758
96.11,-281.464,-47.793
96.14,-281.429,-47.689
96.17,-280.727,-47.586
96.2,-280.235,-47.415
96.24,-279.814,-47.036
96.27,-278.937,-46.647
96.3,-277.989,-46.429
96.33,-277.673,-46.223
96.37,-277.533,-45.96
96.4,-276.656,-45.708
96.43,-275.357,-45.467
96.46,-274.234,-44.986
96.5,-272.9,-44.322
96.53,-271.883,-43.714
96.56,-270.9,-43.142
96.6,-269.742,-42.615
96.63,-268.513,-42.156
96.66,-267.25,-41.641
96.69,-265.671,-41.148
96.73,-264.127,-40.587
96.76,-262.582,-39.854
96.79,-261.284,-39.075
96.82,-260.126,-38.262
96.86,-258.441,-37.609
96.89,-256.581,-37.116
96.92,-254.967,-36.6
96.95,-253.317,-36.154
96.99,-252.054,-35.684
97.02,-250.369,-35.146
97.05,-248.439,-34.664
97.08,-246.965,-34.16
97.12,-245.526,-33.656
97.15,-243.877,-33.187
97.18,-241.911,-32.82
97.21,-240.367,-32.728
97.25,-239.279,-32.373
97.28,-237.138,-31.789
97.31,-234.296,-31.434
97.34,-232.611,-31.262
97.38,-231.804,-30.735
97.41,-229.803,-30.151
97.44,-227.031,-29.876
97.47,-224.855,-29.567
97.51,-222.89,-28.983
97.54,-220.924,-28.513
97.57,-218.713,-27.963
97.6,-216.397,-27.619
97.64,-214.748,-27.39
97.67,-212.888,-26.966
97.7,-210.466,-26.737
97.73,-208.676,-26.634
97.77,-206.816,-26.29
97.8,-204.254,-25.947
97.83,-201.973,-25.798
97.86,-200.394,-25.615
97.9,-198.534,-25.351
97.93,-196.217,-25.237
97.96,-194.252,-25.179
97.99,-192.427,-24.904
98.03,-189.725,-24.618
98.06,-186.987,-24.469
98.09,-184.917,-24.24
98.12,-182.706,-23.713
98.16,-180.038,-23.255
98.19,-177.547,-23.014
98.22,-175.406,-22.785
98.25,-172.914,-22.43
98.29,-170.036,-22.075
98.32,-167.334,-21.754
98.35,-164.912,-21.307
98.39,-162.315,-20.838
98.42,-159.543,-20.483
98.45,-157.191,-20.196
98.48,-154.735,-19.795
98.52,-151.752,-19.394
98.55,-148.909,-18.993
98.58,-146.207,-18.524
98.61,-143.61,-18.111
98.65,-140.381,-17.516
98.68,-137.187,-17.195
98.71,-134.52,-16.782
98.74,-131.993,-16.244
98.78,-128.87,-15.671
98.81,-125.5,-15.167
98.84,-122.693,-14.629
98.87,-119.71,-13.907
98.91,-116.376,-13.266
98.94,-113.217,-12.807
98.97,-110.374,-12.315
99.0,-107.181,-11.685
99.04,-103.812,-11.146
99.07,-100.583,-10.677
99.1,-97.53,-10.115
99.13,-94.09,-9.405
99.17,-90.23,-8.867
99.2,-86.966,-8.351
99.23,-83.948,-7.629
99.26,-80.298,-6.965
99.3,-76.648,-6.553
99.33,-73.524,-6.083
99.36,-70.085,-5.487
99.39,-66.19,-5.109
99.43,-62.75,-4.743
99.46,-59.662,-4.181
99.49,-56.012,-3.666
99.52,-52.116,-3.299
99.56,-48.502,-2.933
99.59,-45.168,-2.486
99.62,-41.167,-2.016
99.65,-37.201,-1.581
99.69,-34.639,-1.799
99.72,-34.148,-2.085
99.75,-29.059,-0.687
99.78,-20.531,-0.069
99.82,-16.389,0.229
99.85,-14.67,1.707
99.88,-12.669,2.692
99.91,-12.74,3.769
99.95,-6.212,4.502
99.98,2.737,3.414
100.01,9.125,3.345
100.04,15.442,3.482
100.08,19.688,2.875
100.11,21.548,1.386
100.14,19.162,1.123
100.18,20.847,2.967
100.21,26.567,3.941
100.24,29.094,4.25
100.27,29.585,5.155
100.31,33.516,5.957
100.34,39.798,5.751
100.37,43.939,5.51
100.4,46.361,6.152
100.44,50.116,7.068
100.47,54.678,7.469
100.5,57.872,7.561
100.53,60.399,7.916
100.57,64.049,8.305
100.6,68.015,8.374
100.63,71.068,8.58
100.66,74.226,9.073
100.7,78.122,9.371
100.73,81.456,9.588
100.76,84.474,10.024
100.79,87.668,10.459
100.83,90.546,10.929
100.86,93.95,11.341
100.89,97.249,11.65
100.92,100.197,12.074
100.96,103.004,12.544
100.99,106.233,12.956
101.02,109.637,13.243
101.05,112.691,13.609
101.09,115.463,14.125
101.12,118.657,14.652
101.15,121.921,14.984
101.18,124.728,15.373
101.22,127.606,15.969
101.25,130.765,16.588
101.28,133.958,17.069
101.31,136.801,17.412
101.35,139.89,17.974
101.38,143.188,18.329
101.41,145.47,18.627
101.44,147.47,19.165
101.48,150.348,19.543
101.51,153.471,19.715
101.54,156.068,20.104
101.57,158.665,20.735
101.61,161.368,21.158
101.64,163.789,21.617
101.67,166.386,22.063
101.7,169.264,22.373
101.74,171.545,22.728
101.77,174.283,23.209
101.8,177.863,23.576
101.83,181.197,24.034
101.87,183.829,24.71
101.9,186.566,25.443
101.93,188.918,25.947
101.97,190.041,26.646
102.0,192.287,27.253
102.03,196.393,27.505
102.06,199.341,27.482
102.1,200.394,27.848
102.13,201.517,28.33
102.16,203.903,28.547
102.19,206.184,28.398
102.23,207.693,28.433
102.26,209.097,28.639
102.29,211.203,29.097
102.32,213.414,29.189
102.36,215.063,29.452
102.39,216.678,29.842
102.42,218.433,30.151
102.45,220.187,30.334
102.49,222.223,30.598
102.52,224.644,30.93
102.55,226.259,31.067
102.58,227.277,31.445
102.62,229.031,31.915
102.65,231.593,32.213
102.68,233.348,32.557
102.71,234.787,33.164
102.75,236.472,33.633
102.78,238.437,33.794
102.81,240.753,33.759
102.84,242.683,33.92
102.88,244.403,34.275
102.91,245.421,34.676
102.94,246.649,35.226
102.97,248.404,35.661
103.01,250.089,36.028
103.04,251.878,36.452
103.07,253.352,36.841
103.1,254.44,37.334
103.14,255.634,37.952
103.17,257.143,38.571
103.2,259.459,39.006
103.23,261.389,39.201
103.27,262.021,39.613
103.3,262.828,40.163
103.33,264.302,40.507
103.36,265.53,40.644
103.4,266.653,40.942
103.43,268.057,41.389
103.46,269.566,41.859
103.49,270.795,42.363
103.53,271.637,42.947
103.56,272.76,43.417
103.59,273.813,43.726
103.62,274.901,43.978
103.66,275.883,44.379
103.69,276.971,44.837
103.72,277.744,45.238
103.76,278.516,45.524
103.79,279.112,45.708
103.82,279.533,45.937
103.85,279.955,46.04
103.89,280.446,46.2
103.92,281.393,46.326
103.95,282.306,46.338
103.98,282.552,46.475
104.02,282.481,46.83
104.05,282.727,47.025
104.08,283.464,47.208
104.11,283.359,46.853
104.15,282.657,47.128
104.18,284.377,47.747
104.21,285.043,47.243
104.24,282.973,47.231
104.28,282.306,47.506
104.31,283.324,47.036
104.34,282.692,46.338
104.37,281.358,46.315
104.41,281.744,46.28
104.44,282.095,45.879
104.47,281.639,45.948
104.5,281.464,46.223
104.54,281.253,46.292
104.57,280.656,46.223
104.6,280.376,46.372
104.63,280.376,46.131
104.67,279.639,45.845
104.7,278.691,45.788
104.73,278.2,45.639
104.76,277.357,45.204
104.8,276.024,44.848
104.83,274.445,44.253
104.86,272.69,43.634
104.89,271.602,42.924
104.93,270.338,42.179
104.96,269.286,41.675
104.99,268.408,41.125
105.02,266.794,40.507
105.06,264.618,40.014
105.09,263.319,39.396
105.12,261.916,38.64
105.15,260.477,38.032
105.19,258.687,37.574
105.22,256.862,37.231
105.25,255.774,36.669
105.28,254.195,36.062
105.32,252.124,35.627
105.35,250.615,35.203
105.38,249.387,34.596
105.41,247.211,33.908
105.45,244.93,33.576
105.48,243.28,33.084
105.51,241.666,32.648
105.55,240.192,32.282
105.58,238.402,31.812
105.61,235.84,31.274
105.64,233.067,30.861
105.68,231.523,30.621
105.71,230.611,30.128
105.74,228.891,29.784
105.77,226.469,29.601
105.81,224.294,29.395
105.84,222.293,29.12
105.87,220.187,28.834
105.9,218.468,28.605
105.94,216.713,28.284
105.97,214.677,27.974
106.0,212.747,27.631
106.03,210.571,27.39
106.07,208.466,27.241
106.1,206.079,26.943
106.13,203.552,26.657
106.16,201.482,26.359
106.2,199.622,26.016
106.23,197.586,25.752
106.26,195.515,25.638
106.29,193.234,25.512
106.33,190.813,25.374
106.36,188.426,25.122
106.39,186.075,24.859
106.42,183.794,24.515
106.46,181.267,24.194
106.49,178.67,23.965
106.52,176.564,23.793
106.55,174.669,23.484
106.59,171.896,23.152
106.62,168.843,22.888
106.65,166.281,22.602
106.68,163.719,22.155
106.72,160.841,21.766
106.75,158.771,21.433
106.78,156.595,21.044
106.81,153.717,20.723
106.85,150.945,20.322
106.88,147.961,19.852
106.91,145.119,19.589
106.94,142.381,18.993
106.98,139.258,18.524
107.01,136.275,18.237
107.04,133.713,17.859
107.07,131.291,17.47
107.11,128.378,17.057
107.14,125.079,16.782
107.17,122.096,16.381
107.2,119.008,15.866
107.24,115.884,15.419
107.27,113.042,15.075
107.3,110.234,14.56
107.34,107.146,14.056
107.37,103.952,13.575
107.4,101.004,12.991
107.43,97.389,12.349
107.47,93.599,11.879
107.5,90.37,11.341
107.53,87.177,10.711
107.56,83.772,10.173
107.6,80.473,9.68
107.63,77.35,9.153
107.66,73.805,8.626
107.69,70.226,8.156
107.73,66.751,7.721
107.76,63.312,7.263
107.79,59.943,6.805
107.82,57.03,6.209
107.86,53.59,5.602
107.89,49.449,5.189
107.92,45.378,4.88
107.95,41.412,4.502
107.99,37.833,4.055
108.02,35.025,4.239
108.05,33.937,4.777
108.08,29.796,3.505
108.12,21.829,2.6
108.15,17.197,2.52
108.18,15.758,1.249
108.21,13.757,0.092
108.25,13.652,-0.848
108.28,9.756,-2.051
108.31,0.983,-1.741
108.34,-6.212,-1.501
108.38,-13.336,-1.673
108.41,-18.811,-1.352
108.44,-23.724,0.344
108.47,-21.829,1.226
108.51,-20.776,-0.733
108.54,-26.146,-2.165
108.57,-30.463,-1.993
108.6,-31.27,-2.131
108.64,-33.656,-2.898
108.67,-38.991,-3.208
108.7,-43.483,-3.219
108.73,-45.834,-3.735
108.77,-49.028,-4.639
108.8,-53.52,-5.166
108.83,-57.24,-5.373
108.86,-60.048,-5.762
108.9,-62.785,-6.449
108.93,-66.47,-7.114
108.96,-71.033,-7.343
108.99,-74.437,-7.538
109.03,-77.245,-8.099
109.06,-80.649,-8.729
109.09,-84.158,-9.199
109.13,-87.563,-9.588
109.16,-90.897,-10.012
109.19,-94.301,-10.516
109.22,-97.319,-10.963
109.26,-99.916,-11.433
109.29,-102.408,-11.948
109.32,-105.742,-12.418
109.35,-109.532,-12.681
109.39,-112.585,-13.059
109.42,-115.218,-13.792
109.45,-118.201,-14.468
109.48,-121.184,-14.778
109.52,-123.64,-15.247
109.55,-127.08,-15.717
109.58,-130.73,-16.175
109.61,-133.502,-16.748
109.65,-136.064,-17.607
109.68,-139.293,-18.386
109.71,-142.276,-18.753
109.74,-144.557,-19.085
109.78,-147.47,-19.452
109.81,-150.804,-19.566
109.84,-152.805,-19.795
109.87,-154.875,-20.345
109.91,-157.928,-21.009
109.94,-161.298,-21.468
109.97,-163.193,-21.708
110.0,-164.948,-22.396
110.04,-168.246,-22.865
110.07,-171.124,-22.9
110.1,-172.598,-23.312
110.13,-175.125,-24.091
110.17,-178.459,-24.503
110.2,-180.775,-24.824
110.23,-182.53,-25.523
110.26,-185.408,-26.222
110.3,-188.216,-26.485
110.33,-189.935,-26.817
110.36,-192.111,-27.333
110.39,-194.849,-27.665
110.43,-197.27,-28.112
110.46,-199.516,-28.673
110.49,-201.06,-28.937
110.52,-202.605,-29.372
110.56,-204.745,-29.693
110.59,-207.132,-30.002
110.62,-209.097,-30.059
110.65,-210.536,-30.277
110.69,-212.572,-30.655
110.72,-214.748,-31.045
110.75,-216.888,-31.468
110.78,-219.556,-31.778
110.82,-221.732,-31.972
110.85,-223.135,-32.27
110.88,-224.855,-32.637
110.92,-226.54,-32.969
110.95,-228.189,-33.393
110.98,-230.19,-33.748
111.01,-232.19,-34.16
111.05,-233.945,-34.538
111.08,-235.138,-34.871
111.11,-236.577,-35.272
111.14,-238.683,-35.569
111.18,-240.718,-35.776
111.21,-242.017,-36.096
111.24,-243.701,-36.646
111.27,-245.631,-37.001
111.31,-246.825,-37.276
111.34,-247.948,-37.7
111.37,-249.773,-38.09
111.4,-251.668,-38.365
111.44,-253.212,-38.708
111.47,-254.581,-39.189
111.5,-255.984,-39.739
111.53,-257.599,-40.186
111.57,-258.862,-40.518
111.6,-260.091,-40.873
111.63,-261.459,-41.251
111.66,-263.109,-41.526
111.7,-264.127,-41.813
111.73,-264.934,-42.225
111.76,-266.267,-42.66
111.79,-267.917,-42.947
111.83,-269.18,-43.268
111.86,-270.058,-43.829
111.89,-271.005,-44.299
111.92,-271.918,-44.608
111.96,-272.9,-45.043
111.99,-274.199,-45.524
112.02,-275.287,-45.925
112.05,-276.41,-46.326
112.09,-277.217,-46.555
112.12,-277.568,-46.853
112.15,-278.059,-47.128
112.18,-278.726,-47.151
112.22,-279.288,-47.323
112.25,-280.446,-47.563
112.28,-281.288,-47.644
112.31,-281.464,-47.953
112.35,-281.534,-48.228
112.38,-281.709,-48.354
112.41,-281.92,-48.388
112.44,-282.201,-48.285
112.48,-282.481,-48.377
112.51,-282.973,-48.308
112.54,-282.762,-48.354
112.57,-283.394,-48.617
112.61,-283.324,-48.113
112.64,-282.271,-48.182
112.67,-281.955,-48.045
112.71,-281.604,-47.586
112.74,-281.499,-47.437
112.77,-281.92,-47.426
112.8,-281.674,-47.288
112.84,-280.481,-47.151
112.87,-279.358,-47.048
112.9,-279.077,-46.716
112.93,-278.656,-46.246
112.97,-278.165,-45.937
113.0,-277.603,-45.719
113.03,-277.112,-45.456
113.06,-276.34,-45.1
113.1,-275.252,-44.78
113.13,-273.988,-44.459
113.16,-272.865,-43.978
113.19,-271.707,-43.371
113.23,-270.619,-42.786
113.26,-269.742,-42.202
113.29,-268.654,-41.71
113.32,-267.566,-41.24
113.36,-266.408,-40.77
113.39,-264.969,-40.232
113.42,-263.144,-39.59
113.45,-261.249,-38.949
113.49,-259.705,-38.41
113.52,-258.652,-37.906
113.55,-257.213,-37.448
113.58,-255.739,-37.059
113.62,-254.16,-36.612
113.65,-252.58,-36.039
113.68,-250.685,-35.443
113.71,-248.93,-34.997
113.75,-247.667,-34.481
113.78,-246.404,-33.851
113.81,-244.473,-33.37
113.84,-242.227,-32.935
113.88,-240.297,-32.568
113.91,-238.718,-31.915
113.94,-236.612,-31.159
113.97,-234.19,-30.77
114.01,-232.471,-30.414
114.04,-230.856,-29.842
114.07,-228.821,-29.269
114.1,-226.505,-29.028
114.14,-224.925,-28.788
114.17,-223.17,-28.284
114.2,-220.854,-27.986
114.23,-218.573,-27.608
114.27,-216.187,-27.356
114.3,-214.783,-27.264
114.33,-213.625,-26.932
114.37,-211.449,-26.646
114.4,-208.781,-26.634
114.43,-206.606,-26.508
114.46,-204.64,-26.073
114.5,-202.499,-25.706
114.53,-200.394,-25.454
114.56,-198.288,-25.225
114.59,-196.288,-24.962
114.63,-194.041,-24.675
114.66,-191.585,-24.492
114.69,-189.444,-24.286
114.72,-187.233,-23.896
114.76,-184.425,-23.553
114.79,-181.828,-23.312
114.82,-179.933,-22.968
114.85,-177.722,-22.636
114.89,-175.055,-22.43
114.92,-172.668,-22.235
114.95,-170.422,-21.846
114.98,-167.615,-21.41
115.02,-164.948,-21.044
115.05,-162.386,-20.666
115.08,-159.718,-20.253
115.11,-157.051,-20.001
115.15,-154.63,-19.669
115.18,-152.032,-19.222
115.21,-149.084,-18.73
115.24,-145.926,-18.237
115.28,-142.802,-17.745
115.31,-140.346,-17.412
115.34,-138.205,-16.977
115.37,-135.397,-16.622
115.41,-131.923,-16.244
115.44,-128.484,-15.843
115.47,-125.606,-15.282
115.5,-122.868,-14.56
115.54,-119.78,-13.918
115.57,-116.551,-13.334
115.6,-112.866,-12.784
115.63,-109.532,-12.315
115.67,-106.795,-11.742
115.7,-103.952,-11.169
115.73,-100.478,-10.711
115.76,-96.933,-10.253
115.8,-93.704,-9.508
115.83,-90.16,-8.718
115.86,-86.685,-8.145
115.89,-83.527,-7.618
115.93,-80.579,-6.942
115.96,-76.788,-6.301
115.99,-72.752,-5.923
116.02,-69.418,-5.556
116.06,-66.681,-4.949
116.09,-62.961,-4.342
116.12,-58.89,-4.101
116.16,-55.38,-3.883
116.19,-52.327,-3.356
116.22,-48.537,-2.738
116.25,-44.676,-2.348
116.29,-40.991,-1.97
116.32,-37.447,-1.489
116.35,-34.464,-1.581
116.38,-33.516,-2.291
116.42,-29.761,-0.928
116.45,-21.092,0.0
116.48,-16.284,-0.046
116.51,-15.266,1.34
116.55,-13.336,2.715
116.58,-12.845,3.494
116.61,-10.599,5.201
