Trigger_Date,2023/09/08
Trigger_Time,T 09:43:40.476 PDT
Samples_Per_Cycle,512
Microseconds_Per_Sample,32.550
Time (ms),Voltage (V),Current (A)
-16.67,6.773,4.548
-16.63,12.704,1.776
-16.6,12.529,1.363
-16.57,13.477,2.99
-16.54,19.934,3.792
-16.5,26.392,2.681
-16.47,25.444,2.429
-16.44,23.83,3.815
-16.41,27.023,5.43
-16.37,33.376,5.785
-16.34,36.464,5.418
-16.31,37.552,5.751
-16.28,41.623,6.427
-16.24,47.519,6.415
-16.21,50.818,6.381
-16.18,52.502,7.24
-16.14,56.398,8.065
-16.11,61.803,8.351
-16.08,65.909,8.42
-16.05,67.874,8.809
-16.01,70.787,9.577
-15.98,75.56,9.863
-15.95,79.21,9.783
-15.92,81.0,10.115
-15.88,83.702,10.447
-15.85,87.247,10.619
-15.82,90.756,10.837
-15.79,92.897,10.917
-15.75,94.897,11.501
-15.72,99.004,12.017
-15.69,103.004,11.902
-15.66,105.075,12.028
-15.62,107.286,12.773
-15.59,110.936,13.3
-15.56,114.305,13.724
-15.53,117.323,14.297
-15.49,119.78,14.835
-15.46,123.079,15.476
-15.43,126.799,15.728
-15.4,128.659,16.015
-15.36,129.817,16.92
-15.33,134.59,17.71
-15.3,140.556,17.229
-15.27,142.101,17.023
-15.23,142.557,17.928
-15.2,146.382,18.856
-15.17,151.155,19.005
-15.14,153.05,19.108
-15.1,153.471,19.807
-15.07,156.279,20.769
-15.04,161.403,21.032
-15.01,164.281,20.918
-14.97,164.877,21.388
-14.94,167.194,22.361
-14.91,171.23,22.797
-14.88,173.511,22.957
-14.84,175.02,23.598
-14.81,178.038,24.217
-14.78,181.618,24.412
-14.75,183.969,24.744
-14.71,185.759,25.259
-14.68,187.549,25.775
-14.65,190.427,26.256
-14.62,193.269,26.485
-14.58,194.849,26.669
-14.55,196.428,27.173
-14.52,199.376,27.631
-14.48,201.938,27.734
-14.45,203.307,27.952
-14.42,204.816,28.421
-14.39,207.027,28.753
-14.35,209.238,28.994
-14.32,211.87,29.166
-14.29,214.046,29.154
-14.26,215.73,29.338
-14.22,217.696,29.807
-14.19,219.45,30.151
-14.16,220.749,30.449
-14.13,222.96,30.85
-14.09,225.171,30.999
-14.06,226.329,31.205
-14.03,227.873,31.686
-14.0,230.19,32.053
-13.96,232.33,32.167
-13.93,233.524,32.488
-13.9,234.506,32.855
-13.87,235.945,33.324
-13.83,238.647,33.805
-13.8,240.402,33.863
-13.77,240.613,34.275
-13.74,242.754,34.974
-13.7,246.017,35.077
-13.67,246.649,35.1
-13.64,246.965,35.913
-13.61,249.702,36.394
-13.57,252.054,36.326
-13.54,252.615,36.921
-13.51,254.019,37.62
-13.48,256.406,37.975
-13.44,258.125,38.273
-13.41,258.652,38.708
-13.38,259.248,39.121
-13.35,260.547,39.43
-13.31,262.828,39.739
-13.28,264.091,39.854
-13.25,264.513,40.381
-13.22,265.811,40.896
-13.18,267.39,41.309
-13.15,268.584,41.847
-13.12,269.987,42.122
-13.09,270.795,42.317
-13.05,272.023,42.821
-13.02,273.497,43.176
-12.99,274.269,43.634
-12.95,274.971,44.127
-12.92,275.919,44.631
-12.89,277.077,44.917
-12.86,277.638,44.94
-12.82,277.708,45.204
-12.79,278.972,45.456
-12.76,279.884,45.433
-12.73,280.095,45.765
-12.69,280.27,46.017
-12.66,280.832,46.418
-12.63,281.779,46.464
-12.6,281.99,46.475
-12.56,282.06,46.613
-12.53,282.06,46.83
-12.5,282.587,47.002
-12.47,283.078,46.945
-12.43,282.867,46.945
-12.4,282.446,46.979
-12.37,282.376,46.807
-12.34,282.306,46.601
-12.3,281.639,46.452
-12.27,281.042,46.372
-12.24,281.078,46.429
-12.21,281.288,46.338
-12.17,280.762,46.246
-12.14,280.446,46.257
-12.11,280.095,46.109
-12.08,279.639,45.937
-12.04,278.867,45.822
-12.01,278.094,45.685
-11.98,277.638,45.444
-11.95,277.077,45.261
-11.91,276.27,44.963
-11.88,274.936,44.551
-11.85,273.813,44.15
-11.82,273.041,43.611
-11.78,271.567,42.924
-11.75,269.777,42.443
-11.72,268.689,41.973
-11.69,267.882,41.4
-11.65,266.443,40.805
-11.62,264.793,40.335
-11.59,263.495,39.854
-11.56,262.091,39.373
-11.52,260.722,38.972
-11.49,259.494,38.456
-11.46,258.055,37.975
-11.43,256.932,37.597
-11.39,255.563,37.047
-11.36,253.247,36.566
-11.33,251.422,36.314
-11.29,250.545,35.661
-11.26,248.579,34.768
-11.23,246.158,34.424
-11.2,244.614,34.126
-11.16,242.929,33.576
-11.13,241.174,33.233
-11.1,239.56,32.877
-11.07,237.63,32.419
-11.03,235.489,32.076
-11.0,234.576,31.755
-10.97,233.559,31.125
-10.94,230.47,30.632
-10.9,227.557,30.586
-10.87,226.259,30.437
-10.84,225.066,30.014
-10.81,222.469,29.475
-10.77,219.31,29.269
-10.74,217.836,29.063
-10.71,216.783,28.49
-10.68,214.116,27.974
-10.64,211.238,27.871
-10.61,209.694,27.734
-10.58,208.08,27.23
-10.55,205.132,26.772
-10.51,202.57,26.703
-10.48,201.096,26.325
-10.45,198.99,25.615
-10.42,196.077,25.443
-10.38,194.147,25.397
-10.35,192.287,25.007
-10.32,190.216,24.893
-10.29,188.145,24.687
-10.25,185.373,24.297
-10.22,182.811,24.286
-10.19,181.898,23.908
-10.16,179.933,22.991
-10.12,176.494,22.797
-10.09,174.388,22.739
-10.06,171.686,22.476
-10.03,168.562,22.533
-9.99,166.772,22.384
-9.96,164.702,21.754
-9.93,160.596,21.456
-9.9,157.823,21.651
-9.86,156.7,21.158
-9.83,154.454,20.609
-9.8,150.804,20.23
-9.77,147.61,20.15
-9.73,146.066,19.967
-9.7,143.715,19.245
-9.67,139.503,18.753
-9.63,136.415,18.489
-9.6,134.485,17.951
-9.57,131.958,17.149
-9.54,128.238,16.519
-9.5,124.939,16.095
-9.47,122.658,15.465
-9.44,119.85,14.64
-9.41,115.463,14.125
-9.37,112.375,13.976
-9.34,111.603,13.151
-9.31,108.62,12.097
-9.28,103.741,11.914
-9.24,100.548,11.925
-9.21,98.477,11.375
-9.18,95.634,10.665
-9.15,91.563,10.035
-9.11,87.668,9.531
-9.08,85.352,9.164
-9.05,82.755,8.649
-9.02,78.438,8.122
-8.98,74.332,7.824
-8.95,71.84,7.561
-8.92,69.173,6.61
-8.89,63.663,5.842
-8.85,59.135,5.774
-8.82,56.573,5.315
-8.79,52.748,4.548
-8.76,47.8,4.193
-8.72,43.764,3.941
-8.69,40.535,3.528
-8.66,36.955,3.082
-8.63,32.954,2.933
-8.59,29.691,2.83
-8.56,26.321,2.612
-8.53,22.672,2.154
-8.5,18.004,1.558
-8.46,14.6,0.745
-8.43,12.213,-0.607
-8.4,10.283,-2.474
-8.37,1.579,-2.898
-8.33,-6.493,-0.985
-8.3,-8.528,0.137
-8.27,-9.37,-0.55
-8.24,-14.249,-1.707
-8.2,-23.724,-0.653
-8.17,-24.953,0.596
-8.14,-22.145,-0.367
-8.11,-24.181,-2.142
-8.07,-29.761,-3.208
-8.04,-34.393,-3.322
-8.01,-36.288,-3.334
-7.97,-38.85,-4.078
-7.94,-44.255,-4.559
-7.91,-48.537,-4.594
-7.88,-50.397,-5.098
-7.84,-53.52,-6.014
-7.81,-58.89,-6.415
-7.78,-62.82,-6.415
-7.75,-64.786,-6.828
-7.71,-67.944,-7.572
-7.68,-72.787,-7.893
-7.65,-76.332,-7.904
-7.62,-78.017,-8.317
-7.58,-80.684,-9.027
-7.55,-85.036,-9.348
-7.52,-88.124,-9.474
-7.49,-89.914,-9.978
-7.45,-92.897,-10.654
-7.42,-97.319,-10.963
-7.39,-100.443,-11.009
-7.36,-101.952,-11.478
-7.32,-104.584,-12.315
-7.29,-109.322,-12.716
-7.26,-112.41,-12.555
-7.23,-113.638,-13.128
-7.19,-116.551,-13.93
-7.16,-120.833,-14.342
-7.13,-123.886,-14.48
-7.1,-125.185,-14.949
-7.06,-127.782,-15.843
-7.03,-132.239,-16.233
-7.0,-135.573,-16.45
-6.97,-136.731,-16.966
-6.93,-139.188,-18.042
-6.9,-143.68,-18.478
-6.87,-146.979,-18.684
-6.84,-148.488,-19.28
-6.8,-150.909,-20.116
-6.77,-154.91,-20.62
-6.74,-157.893,-20.861
-6.71,-159.718,-21.388
-6.67,-161.859,-21.914
-6.64,-164.0,-22.247
-6.61,-166.422,-22.648
-6.58,-168.457,-22.819
-6.54,-169.685,-22.923
-6.51,-171.896,-23.415
-6.48,-175.476,-23.702
-6.44,-177.827,-23.805
-6.41,-179.126,-24.503
-6.38,-182.214,-25.294
-6.35,-186.426,-25.351
-6.31,-189.233,-25.512
-6.28,-190.637,-26.073
-6.25,-192.041,-26.921
-6.22,-195.796,-27.826
-6.18,-199.762,-28.02
-6.15,-200.639,-28.192
-6.12,-201.411,-29.154
-6.09,-204.675,-29.693
-6.05,-207.343,-29.647
-6.02,-208.29,-30.071
-5.99,-209.94,-30.655
-5.96,-212.817,-30.861
-5.92,-215.099,-30.953
-5.89,-216.292,-31.205
-5.86,-217.661,-31.571
-5.83,-220.082,-31.915
-5.79,-222.047,-31.961
-5.76,-222.539,-32.442
-5.73,-224.153,-33.152
-5.7,-226.996,-33.324
-5.66,-228.821,-33.439
-5.63,-229.768,-34.057
-5.6,-231.453,-34.493
-5.57,-233.804,-34.836
-5.53,-235.699,-35.077
-5.5,-236.156,-35.409
-5.47,-237.805,-36.085
-5.44,-240.894,-36.268
-5.4,-242.613,-36.245
-5.37,-243.42,-36.784
-5.34,-245.667,-37.276
-5.31,-247.878,-37.185
-5.27,-248.86,-37.505
-5.24,-250.089,-38.193
-5.21,-251.703,-38.594
-5.18,-253.036,-39.041
-5.14,-254.897,-39.625
-5.11,-256.616,-39.854
-5.08,-257.037,-40.152
-5.05,-257.88,-40.747
-5.01,-259.88,-41.057
-4.98,-261.249,-41.24
-4.95,-262.056,-41.664
-4.92,-263.284,-42.065
-4.88,-264.618,-42.351
-4.85,-266.057,-42.764
-4.82,-267.355,-43.199
-4.78,-268.233,-43.714
-4.75,-269.356,-44.218
-4.72,-270.654,-44.631
-4.69,-271.883,-44.94
-4.65,-273.041,-45.318
-4.62,-274.059,-45.742
-4.59,-274.866,-46.189
-4.56,-275.533,-46.498
-4.52,-276.094,-46.83
-4.49,-276.796,-47.071
-4.46,-277.393,-47.151
-4.43,-278.024,-47.392
-4.39,-278.972,-47.644
-4.36,-279.358,-47.758
-4.33,-279.042,-48.159
-4.3,-279.147,-48.468
-4.26,-280.025,-48.64
-4.23,-280.692,-48.446
-4.2,-279.955,-48.468
-4.17,-280.446,-48.938
-4.13,-281.464,-48.812
-4.1,-281.393,-48.824
-4.07,-280.727,-48.915
-4.04,-280.516,-48.869
-4.0,-280.797,-48.778
-3.97,-280.902,-48.468
-3.94,-280.13,-48.251
-3.91,-279.814,-48.297
-3.87,-280.341,-48.193
-3.84,-279.99,-47.953
-3.81,-278.691,-47.964
-3.78,-278.516,-47.93
-3.74,-278.796,-47.518
-3.71,-277.989,-47.082
-3.68,-276.55,-46.888
-3.65,-276.27,-46.704
-3.61,-276.059,-46.303
-3.58,-275.111,-45.857
-3.55,-273.708,-45.57
-3.52,-272.9,-45.204
-3.48,-271.988,-44.585
-3.45,-270.479,-44.035
-3.42,-269.391,-43.531
-3.39,-268.759,-42.924
-3.35,-267.566,-42.34
-3.32,-265.916,-41.904
-3.29,-264.583,-41.446
-3.26,-263.319,-40.782
-3.22,-261.67,-40.152
-3.19,-260.02,-39.613
-3.16,-258.652,-39.018
-3.12,-257.283,-38.376
-3.09,-255.704,-37.838
-3.06,-253.949,-37.311
-3.03,-252.299,-36.772
-2.99,-250.861,-36.222
-2.96,-249.246,-35.512
-2.93,-247.035,-34.928
-2.9,-245.245,-34.687
-2.86,-244.333,-34.252
-2.83,-242.578,-33.427
-2.8,-240.227,-33.129
-2.77,-239.279,-33.026
-2.73,-237.7,-32.316
-2.7,-234.682,-31.858
-2.67,-233.102,-31.858
-2.64,-232.541,-31.228
-2.6,-230.225,-30.46
-2.57,-227.347,-30.254
-2.54,-225.662,-30.071
-2.51,-224.644,-29.59
-2.47,-222.328,-28.937
-2.44,-219.135,-28.673
-2.41,-217.696,-28.501
-2.38,-216.643,-27.803
-2.34,-213.765,-27.184
-2.31,-210.852,-27.115
-2.28,-209.659,-26.829
-2.25,-208.115,-26.233
-2.21,-205.553,-25.947
-2.18,-202.815,-25.66
-2.15,-200.674,-25.42
-2.12,-199.446,-25.202
-2.08,-197.305,-24.71
-2.05,-194.182,-24.595
-2.02,-192.743,-24.813
-1.99,-191.515,-24.343
-1.95,-188.637,-23.908
-1.92,-185.794,-24.011
-1.89,-183.934,-23.702
-1.86,-181.548,-23.301
-1.82,-179.126,-23.232
-1.79,-177.126,-22.911
-1.76,-174.564,-22.567
-1.73,-172.107,-22.51
-1.69,-169.861,-22.178
-1.66,-167.439,-21.766
-1.63,-164.702,-21.445
-1.59,-162.14,-21.147
-1.56,-160.034,-20.803
-1.53,-157.683,-20.357
-1.5,-154.63,-19.99
-1.46,-151.752,-19.726
-1.43,-149.295,-19.314
-1.4,-146.031,-18.627
-1.37,-142.978,-18.272
-1.33,-140.732,-17.47
-1.3,-137.854,-16.599
-1.27,-134.204,-16.026
-1.24,-130.905,-15.66
-1.2,-128.554,-15.11
-1.17,-125.711,-14.297
-1.14,-121.675,-13.655
-1.11,-117.744,-13.288
-1.07,-115.288,-12.75
-1.04,-112.796,-11.925
-1.01,-109.286,-11.272
-0.98,-105.637,-10.86
-0.94,-102.618,-10.47
-0.91,-99.846,-9.966
-0.88,-96.336,-9.359
-0.85,-92.406,-8.832
-0.81,-89.177,-8.385
-0.78,-86.264,-7.79
-0.75,-82.965,-7.045
-0.72,-79.14,-6.507
-0.68,-75.876,-6.163
-0.65,-72.787,-5.648
-0.62,-69.032,-5.212
-0.59,-65.628,-4.903
-0.55,-62.364,-4.445
-0.52,-58.925,-3.975
-0.49,-55.486,-3.563
-0.46,-52.187,-3.059
-0.42,-48.607,-2.726
-0.39,-44.957,-2.509
-0.36,-41.132,-2.211
-0.33,-37.236,-1.776
-0.29,-33.972,-1.638
-0.26,-31.656,-1.317
-0.23,-28.076,-0.871
-0.2,-23.514,-0.47
-0.16,-18.6,-0.069
-0.13,-15.723,0.722
-0.1,-12.915,2.234
-0.07,-11.125,4.078
-0.03,-4.668,5.247
0.0,6.001,3.345
0.03,8.704,1.489
0.07,9.651,1.982
0.1,13.336,3.574
0.13,22.391,3.586
0.16,26.883,2.131
0.2,24.391,2.486
0.23,24.04,4.227
0.26,28.813,5.648
0.29,35.025,5.808
0.33,37.411,5.476
0.36,38.254,5.98
0.39,42.606,6.621
0.42,48.291,6.404
0.46,50.923,6.358
0.49,52.643,7.022
0.52,56.573,7.755
0.55,61.662,8.053
0.59,65.102,8.133
0.62,67.418,8.511
0.65,71.173,8.981
0.68,75.56,9.073
0.72,78.122,9.187
0.75,79.982,9.76
0.78,83.878,10.333
0.81,87.808,10.493
0.85,90.195,10.791
0.88,92.722,11.318
0.91,96.477,11.776
0.94,100.197,11.971
0.98,102.969,12.223
1.01,105.145,12.761
1.04,107.391,13.666
1.07,111.743,14.216
1.11,115.955,14.205
1.14,118.271,14.285
1.17,120.096,14.812
1.2,123.711,15.408
1.24,127.676,15.602
1.27,129.782,15.923
1.3,131.712,16.633
1.33,135.152,17.298
1.37,139.188,17.722
1.4,141.96,17.79
1.43,143.399,18.226
1.46,146.207,18.89
1.5,149.927,19.177
1.53,152.348,19.257
1.56,153.787,19.772
1.59,156.841,20.483
1.63,160.771,20.757
1.66,163.158,21.044
1.69,165.544,21.628
1.73,168.913,21.96
1.76,171.616,22.247
1.79,173.405,22.739
1.82,175.02,23.564
1.86,178.249,24.274
1.89,182.039,24.366
1.92,183.548,24.561
1.95,184.531,25.408
1.99,187.97,25.809
2.02,191.129,25.683
2.05,193.585,26.256
2.08,195.656,26.588
2.12,197.13,26.921
2.15,199.867,27.596
2.18,203.061,27.883
2.21,204.079,27.86
2.25,204.745,28.49
2.28,208.08,28.822
2.31,210.852,28.582
2.34,211.554,28.857
2.38,212.712,29.475
2.41,215.625,29.807
2.44,218.503,29.991
2.47,219.556,30.117
2.51,219.836,30.495
2.54,222.469,31.148
2.57,225.662,31.079
2.6,226.083,31.171
2.64,226.855,31.972
2.67,230.295,32.328
2.7,233.875,32.041
2.73,234.752,32.018
2.77,234.717,32.465
2.8,236.507,33.095
2.83,239.349,33.542
2.86,240.964,33.576
2.9,241.56,33.92
2.93,243.631,34.584
2.96,246.263,34.664
2.99,246.895,34.848
3.03,247.667,35.547
3.06,249.983,35.925
3.09,252.089,36.085
3.12,253.247,36.566
3.16,254.16,37.162
3.19,255.879,37.723
3.22,258.16,38.136
3.26,259.143,38.33
3.29,259.143,38.72
3.32,260.898,39.293
3.35,263.425,39.247
3.39,263.881,39.293
3.42,264.442,40.14
3.45,266.408,40.484
3.48,267.741,40.702
3.52,268.724,41.297
3.55,269.987,41.721
3.58,271.075,41.985
3.61,271.918,42.454
3.65,273.006,42.924
3.68,273.988,43.371
3.71,275.006,43.932
3.74,276.27,44.207
3.78,276.831,44.436
3.81,277.322,44.894
3.84,277.919,45.146
3.87,278.41,45.261
3.91,279.218,45.41
3.94,280.165,45.582
3.97,280.656,45.639
4.0,280.621,45.937
4.04,280.762,46.131
4.07,281.323,46.292
4.1,281.99,46.212
4.13,281.534,46.04
4.17,281.92,46.67
4.2,283.253,46.83
4.23,282.797,46.704
4.26,282.06,46.922
4.3,282.762,47.048
4.33,282.938,46.681
4.36,281.92,46.59
4.39,281.253,46.636
4.43,281.639,46.578
4.46,281.99,46.452
4.49,281.393,46.441
4.52,280.411,46.452
4.56,279.884,46.452
4.59,279.99,46.372
4.62,280.025,46.04
4.65,278.34,45.41
4.69,276.831,45.398
4.72,277.252,45.307
4.75,276.831,44.734
4.78,274.55,44.333
4.82,273.357,44.184
4.85,273.076,43.462
4.88,271.812,42.775
4.92,269.812,42.202
4.95,268.373,41.79
4.98,268.127,41.263
5.01,267.461,40.415
5.05,265.039,39.785
5.08,262.898,39.659
5.11,262.582,39.212
5.14,261.53,38.525
5.18,259.178,38.193
5.21,257.529,38.044
5.24,256.897,37.586
5.27,255.844,36.979
5.31,253.633,36.429
5.34,251.212,36.131
5.37,250.124,35.867
5.4,248.965,35.169
5.44,246.474,34.642
5.47,244.614,34.447
5.5,243.491,34.069
5.53,242.157,33.553
5.57,239.981,33.084
5.6,237.875,32.625
5.63,236.05,32.041
5.66,234.05,31.709
5.7,231.979,31.182
5.73,229.628,30.758
5.76,228.014,30.506
5.79,226.224,30.014
5.83,224.539,29.578
5.86,222.855,29.189
5.89,219.872,28.879
5.92,217.239,28.845
5.96,216.257,28.662
5.99,214.607,27.997
6.02,211.554,27.619
6.05,209.518,27.654
6.09,208.22,27.081
6.12,205.412,26.531
6.15,202.71,26.634
6.18,200.92,26.233
6.22,198.534,25.729
6.25,196.744,25.809
6.28,194.919,25.351
6.31,191.936,25.122
6.35,190.251,25.385
6.38,188.918,24.79
6.41,185.408,24.366
6.44,182.881,24.664
6.48,181.477,24.183
6.51,178.775,23.805
6.54,176.353,23.896
6.58,174.248,23.507
6.61,172.142,22.968
6.64,169.51,22.682
6.67,166.035,22.327
6.71,163.228,22.121
6.74,161.789,21.754
6.77,159.332,20.929
6.8,155.261,20.46
6.84,153.05,20.402
6.87,151.541,19.738
6.9,148.488,19.119
6.93,145.329,18.902
6.97,142.662,18.283
7.0,140.17,17.882
7.03,137.187,17.344
7.06,133.713,17.011
7.1,131.151,16.771
7.13,128.624,16.233
7.16,125.325,15.763
7.19,122.096,15.476
7.23,119.183,15.087
7.26,116.341,14.606
7.29,113.428,14.09
7.32,109.883,13.563
7.36,106.444,13.208
7.39,103.706,12.784
7.42,100.513,12.143
7.45,96.617,11.639
7.49,93.669,11.249
7.52,90.897,10.425
7.55,86.615,9.886
7.58,83.421,9.623
7.62,80.894,8.947
7.65,77.385,8.191
7.68,73.454,7.836
7.71,70.541,7.515
7.75,67.488,6.805
7.78,63.663,6.301
7.81,60.118,5.854
7.84,56.293,5.235
7.88,52.187,4.949
7.91,49.414,4.536
7.94,45.799,3.723
7.97,40.289,3.563
8.01,36.183,3.769
8.04,33.832,3.712
8.07,31.691,3.356
8.11,27.76,3.082
8.14,23.373,2.887
8.17,19.267,2.36
8.2,16.214,1.466
8.24,13.336,-0.034
8.27,11.23,-1.718
8.3,7.195,-3.368
8.33,-3.72,-2.36
8.37,-8.739,-0.229
8.4,-9.932,-0.069
8.43,-12.318,-1.604
8.46,-21.338,-1.844
8.5,-27.515,-0.309
8.53,-24.707,-0.561
8.56,-24.426,-2.429
8.59,-30.673,-3.505
8.63,-36.78,-3.23
8.66,-37.376,-3.139
8.69,-37.727,-4.044
8.72,-42.746,-4.72
8.76,-48.712,-4.445
8.79,-50.677,-4.33
8.82,-51.765,-5.144
8.85,-55.942,-6.003
8.89,-61.206,-6.255
8.92,-64.365,-6.381
8.95,-66.154,-6.954
8.98,-69.91,-7.698
9.02,-75.139,-7.985
9.05,-78.508,-8.007
9.08,-79.947,-8.557
9.11,-83.0,-9.52
9.15,-88.335,-9.909
9.18,-91.774,-9.726
9.21,-92.651,-10.207
9.24,-95.494,-11.135
9.28,-100.583,-11.375
9.31,-103.987,-11.181
9.34,-105.11,-11.673
9.37,-107.426,-12.555
9.41,-111.638,-13.117
9.44,-115.358,-13.414
9.47,-117.323,-13.896
9.5,-119.534,-14.697
9.54,-123.64,-15.408
9.57,-127.641,-15.499
9.6,-129.256,-15.706
9.63,-131.081,-16.599
9.67,-135.783,-17.195
9.7,-139.293,-16.931
9.73,-140.556,-17.561
9.77,-142.592,-18.317
9.8,-145.996,-18.913
9.83,-149.576,-19.199
9.86,-151.331,-19.44
9.9,-152.875,-20.047
9.93,-156.349,-20.78
9.96,-160.701,-21.113
9.99,-162.386,-21.009
10.03,-162.947,-21.766
10.06,-166.457,-22.682
10.09,-170.598,-22.579
10.12,-171.44,-22.499
10.16,-172.458,-23.576
10.19,-176.248,-24.217
10.22,-180.179,-24.629
10.25,-182.6,-25.248
10.29,-184.18,-25.809
10.32,-186.496,-26.611
10.35,-190.111,-27.436
10.38,-192.567,-27.482
10.42,-193.304,-28.009
10.45,-196.112,-29.051
10.48,-199.622,-29.154
10.51,-200.78,-29.349
10.55,-202.148,-30.185
10.58,-204.816,-30.334
10.61,-206.921,-30.243
10.64,-209.308,-30.346
10.68,-211.238,-30.094
10.71,-212.396,-30.231
10.74,-214.432,-30.793
10.77,-216.783,-30.964
10.81,-218.187,-31.079
10.84,-219.485,-31.549
10.87,-221.521,-31.789
10.9,-223.206,-32.041
10.94,-224.96,-32.534
10.97,-226.82,-32.66
11.0,-228.294,-33.015
11.03,-230.576,-33.656
11.07,-232.681,-33.863
11.1,-233.734,-34.321
11.13,-235.664,-34.951
11.16,-237.665,-35.146
11.2,-238.858,-35.558
11.23,-240.543,-36.188
11.26,-242.438,-36.383
11.29,-243.842,-36.761
11.33,-245.667,-37.231
11.36,-246.93,-37.322
11.39,-247.737,-37.757
11.43,-249.808,-38.33
11.46,-251.913,-38.433
11.49,-252.615,-38.823
11.52,-253.809,-39.613
11.56,-255.949,-39.934
11.59,-257.423,-40.094
11.62,-258.371,-40.472
11.65,-259.669,-40.77
11.69,-261.073,-40.976
11.72,-262.407,-41.32
11.75,-263.319,-41.71
11.78,-264.407,-42.156
11.82,-265.811,-42.615
11.85,-267.18,-43.038
11.88,-268.092,-43.554
11.91,-269.286,-44.069
11.95,-270.514,-44.402
11.98,-271.532,-44.894
12.01,-272.83,-45.364
12.04,-273.848,-45.776
12.08,-274.796,-46.189
12.11,-275.533,-46.521
12.14,-276.27,-46.876
12.17,-277.112,-47.094
12.21,-277.673,-47.254
12.24,-278.481,-47.541
12.27,-279.358,-47.747
12.3,-279.674,-47.919
12.34,-279.814,-48.193
12.37,-280.341,-48.297
12.4,-280.692,-48.251
12.43,-280.656,-48.262
12.47,-280.586,-48.377
12.5,-281.253,-48.698
12.53,-282.025,-48.594
12.56,-280.937,-48.388
12.6,-280.411,-48.617
12.63,-281.183,-48.606
12.66,-281.253,-48.423
12.69,-279.533,-47.999
12.73,-278.621,-48.262
12.76,-280.516,-48.251
12.79,-280.727,-47.689
12.82,-278.34,-47.678
12.86,-277.638,-48.056
12.89,-279.007,-47.689
12.92,-278.621,-47.094
12.95,-276.585,-46.933
12.99,-275.568,-46.865
13.02,-276.199,-46.498
13.05,-276.059,-45.983
13.09,-274.234,-45.639
13.12,-272.585,-45.582
13.15,-272.62,-45.215
13.18,-272.058,-44.528
13.22,-270.444,-44.012
13.25,-268.97,-43.623
13.28,-268.092,-43.176
13.31,-267.531,-42.695
13.35,-266.338,-42.111
13.38,-264.267,-41.721
13.41,-262.828,-41.377
13.44,-261.916,-40.793
13.48,-260.687,-40.083
13.51,-258.722,-39.476
13.54,-257.318,-39.144
13.57,-256.511,-38.605
13.61,-254.721,-37.918
13.64,-252.58,-37.666
13.67,-251.598,-37.253
13.7,-249.738,-36.222
13.74,-247.421,-35.799
13.77,-246.825,-35.466
13.8,-245.316,-34.367
13.83,-241.982,-33.886
13.87,-240.894,-34.069
13.9,-240.472,-33.278
13.93,-237.384,-32.591
13.96,-234.857,-32.625
14.0,-233.945,-32.018
14.03,-232.155,-31.228
14.06,-229.663,-30.884
14.09,-227.066,-30.426
14.13,-225.311,-30.162
14.16,-224.574,-29.727
14.19,-222.328,-28.914
14.22,-218.889,-28.616
14.26,-216.924,-28.536
14.29,-215.976,-28.1
14.32,-213.87,-27.665
14.35,-211.554,-27.585
14.39,-209.624,-27.253
14.42,-208.009,-27.104
14.45,-206.641,-26.875
14.48,-203.482,-26.279
14.52,-200.499,-26.382
14.55,-200.148,-26.382
14.58,-198.463,-25.512
14.62,-194.849,-25.42
14.65,-193.585,-25.741
14.68,-192.427,-25.076
14.71,-189.304,-24.687
14.75,-186.707,-24.698
14.78,-184.601,-24.148
14.81,-182.144,-23.69
14.84,-179.863,-23.404
14.88,-177.02,-22.991
14.91,-174.142,-22.854
14.94,-172.212,-22.682
14.97,-170.001,-22.063
15.01,-166.948,-21.674
15.04,-163.965,-21.33
15.07,-161.122,-20.792
15.1,-158.701,-20.437
15.14,-156.77,-19.978
15.17,-153.682,-19.326
15.2,-150.453,-19.108
15.23,-148.102,-18.695
15.27,-145.575,-18.1
15.3,-142.451,-17.676
15.33,-138.977,-17.092
15.36,-136.099,-16.771
15.4,-133.748,-16.255
15.43,-130.73,-15.614
15.46,-127.15,-15.121
15.49,-124.132,-14.789
15.53,-121.675,-14.159
15.56,-118.481,-13.506
15.59,-115.077,-13.025
15.62,-111.919,-12.532
15.66,-109.006,-11.983
15.69,-106.198,-11.33
15.72,-102.864,-10.665
15.75,-99.039,-10.184
15.79,-95.705,-9.852
15.82,-93.073,-9.256
15.85,-89.703,-8.534
15.88,-85.843,-7.962
15.92,-82.333,-7.526
15.95,-79.21,-6.988
15.98,-75.981,-6.369
16.01,-72.647,-5.9
16.05,-69.208,-5.441
16.08,-65.593,-4.949
16.11,-62.329,-4.72
16.14,-59.521,-4.204
16.18,-55.415,-3.643
16.21,-51.204,-3.608
16.24,-48.782,-3.276
16.28,-45.589,-2.451
16.31,-41.132,-2.096
16.34,-37.131,-1.879
16.37,-34.218,-1.684
16.41,-31.972,-1.581
16.44,-29.094,-1.306
16.47,-24.812,-1.031
16.5,-20.039,-0.424
16.54,-15.793,0.286
16.57,-13.161,1.81
16.6,-9.721,3.62
16.63,-8.037,5.842
16.67,2.913,6.255
16.7,14.529,3.024
16.73,15.266,1.191
16.76,14.951,2.417
16.8,19.127,3.826
16.83,26.883,3.414
16.86,27.655,2.887
16.89,25.023,4.067
16.93,27.444,5.751
16.96,34.464,5.968
16.99,37.938,5.281
17.02,37.973,5.556
17.06,41.342,6.392
17.09,47.87,6.507
17.12,51.625,6.163
17.15,52.362,6.724
17.19,55.872,7.87
17.22,61.768,8.156
17.25,65.382,8.099
17.28,67.418,8.477
17.32,70.892,9.119
17.35,75.56,9.359
17.38,78.859,9.302
17.41,80.544,9.794
17.45,83.878,10.573
17.48,88.51,10.654
17.51,91.388,10.665
17.54,93.143,11.204
17.58,95.81,11.811
17.61,100.162,12.154
17.64,104.303,12.063
17.67,105.917,12.086
17.71,107.883,12.819
17.74,112.375,13.38
17.77,115.99,13.346
17.8,117.464,13.678
17.84,119.745,14.503
17.87,123.746,14.858
17.9,127.15,14.995
17.94,129.431,15.408
17.97,131.747,15.969
18.0,135.117,16.485
18.03,139.188,17.023
18.07,141.995,17.172
18.1,142.873,17.687
18.13,146.101,18.764
18.16,150.839,18.867
18.2,152.91,18.913
18.23,154.103,19.681
18.26,157.297,20.586
18.29,161.438,20.872
18.33,163.824,21.181
18.36,165.474,21.846
18.39,167.966,22.235
18.42,171.475,22.671
18.46,174.879,22.991
18.49,176.143,23.255
18.52,177.547,24.08
18.55,181.618,24.733
18.59,185.022,24.801
18.62,185.654,25.168
18.65,187.093,25.958
18.68,190.953,26.153
18.72,195.2,26.119
18.75,196.849,26.13
18.78,196.814,26.565
18.81,198.744,27.367
18.85,202.956,27.894
18.88,205.482,27.551
18.91,204.781,27.688
18.94,206.5,28.605
18.98,211.028,28.685
19.01,212.607,28.444
19.04,212.256,29.189
19.07,214.572,29.933
19.11,218.503,29.899
19.14,220.152,29.75
19.17,220.328,30.311
19.2,222.223,30.861
19.24,225.346,31.045
19.27,227.136,31.148
19.3,227.803,31.537
19.33,229.839,32.293
19.37,232.541,32.476
19.4,233.699,32.476
19.43,234.647,33.049
19.47,236.963,33.507
19.5,238.893,33.542
19.53,239.876,34.023
19.56,241.701,34.435
19.6,243.28,34.722
19.63,245.105,35.524
19.66,247.702,35.604
19.69,248.685,35.421
19.73,249.738,36.131
19.76,252.475,36.406
19.79,253.738,36.268
19.82,254.265,37.001
19.86,256.16,37.654
19.89,257.599,37.906
19.92,258.371,38.433
19.95,259.634,38.914
19.99,261.143,39.144
20.02,262.302,39.499
20.05,263.425,39.934
20.08,264.478,40.301
20.12,265.846,40.747
20.15,267.32,41.286
20.18,268.549,41.721
20.21,269.496,42.088
20.25,270.83,42.477
20.28,272.128,42.706
20.31,272.83,43.119
20.34,274.023,43.714
20.38,275.357,44.035
20.41,276.059,44.367
20.44,276.585,44.906
20.47,277.533,45.192
20.51,278.235,45.284
20.54,278.972,45.41
20.57,279.604,45.501
20.6,279.99,45.776
20.64,280.621,45.994
20.67,281.007,46.063
20.7,281.113,46.257
20.73,281.499,46.51
20.77,281.709,46.452
20.8,281.323,46.567
20.83,281.955,46.83
20.86,283.008,46.956
20.9,282.867,46.796
20.93,281.604,46.979
20.96,281.92,47.288
20.99,282.587,46.945
21.03,282.13,46.727
21.06,281.534,46.681
21.09,281.323,46.613
21.13,281.709,46.613
21.16,281.569,46.59
21.19,280.376,46.521
21.22,279.604,46.578
21.26,279.849,46.521
21.29,279.955,46.097
21.32,278.059,45.547
21.35,276.515,45.616
21.39,277.322,45.433
21.42,277.147,44.722
21.45,274.234,44.322
21.48,272.514,44.31
21.52,272.69,43.691
21.55,271.672,42.924
21.58,269.461,42.363
21.61,268.303,41.996
21.65,268.268,41.4
21.68,267.145,40.644
21.71,264.688,40.289
21.74,263.495,40.117
21.78,263.039,39.545
21.81,261.143,39.029
21.84,259.424,38.777
21.87,258.652,38.307
21.91,257.353,37.563
21.94,255.247,37.185
21.97,253.809,36.933
22.0,252.335,36.234
22.04,250.089,35.718
22.07,248.615,35.421
22.1,247.176,34.687
22.13,244.789,34.08
22.17,243.069,33.966
22.2,242.122,33.611
22.23,240.016,32.889
22.26,237.209,32.58
22.3,235.594,32.282
22.33,234.366,31.606
22.36,232.085,31.01
22.39,229.733,30.724
22.43,228.119,30.426
22.46,226.505,29.968
22.49,224.399,29.601
22.52,222.188,29.303
22.56,219.907,29.063
22.59,218.011,28.776
22.62,216.818,28.284
22.65,214.642,27.963
22.69,211.659,27.86
22.72,209.448,27.848
22.75,208.676,27.631
22.79,206.57,26.898
22.82,202.499,26.485
22.85,200.359,26.669
22.88,199.973,26.073
22.92,196.989,25.248
22.95,193.41,25.592
22.98,192.497,25.695
23.01,190.953,24.996
23.05,188.005,24.836
23.08,185.478,24.733
23.11,183.127,24.332
23.14,180.881,24.194
23.18,178.74,23.988
23.21,176.038,23.61
23.24,173.792,23.598
23.27,171.861,23.243
23.31,168.668,22.716
23.34,165.755,22.716
23.37,164.035,22.361
23.4,161.192,21.662
23.44,157.964,21.536
23.47,155.542,21.147
23.5,152.84,20.746
23.53,150.699,20.46
23.57,147.821,19.887
23.6,144.662,19.635
23.63,141.855,19.222
23.66,139.433,18.799
23.7,136.871,18.191
23.73,133.994,17.63
23.76,130.87,17.0
23.79,127.466,16.714
23.83,124.904,16.359
23.86,122.237,15.683
23.89,118.867,15.156
23.92,115.428,14.789
23.96,113.007,14.239
23.99,110.831,13.552
24.02,107.321,13.048
24.05,103.671,12.681
24.09,100.688,12.292
24.12,97.635,11.799
24.15,94.02,11.181
24.18,90.089,10.677
24.22,87.036,10.31
24.25,84.264,9.531
24.28,80.473,8.786
24.32,76.788,8.477
24.35,73.524,7.881
24.38,69.594,7.354
24.41,66.26,7.148
24.45,63.031,6.564
24.48,59.03,5.968
24.51,55.24,5.854
24.54,52.292,5.407
24.58,48.466,4.823
24.61,44.711,4.605
24.64,41.658,4.078
24.67,37.411,3.505
24.71,34.007,3.723
24.74,32.533,3.517
24.77,29.796,2.99
24.8,24.461,2.623
24.84,19.197,2.589
24.87,16.811,1.97
24.9,14.143,0.298
24.93,11.23,-1.695
24.97,4.984,-3.162
25.0,-5.44,-1.925
25.03,-9.546,-0.092
25.06,-10.529,-0.183
25.1,-13.371,-1.695
25.13,-23.022,-1.34
25.16,-26.953,0.218
25.19,-23.584,-0.481
25.23,-24.391,-2.36
25.26,-30.779,-3.242
25.29,-35.762,-3.013
25.32,-36.288,-3.047
25.36,-37.762,-3.861
25.39,-43.202,-4.353
25.42,-48.326,-4.101
25.45,-50.011,-4.181
25.49,-51.906,-5.155
25.52,-56.573,-5.911
25.55,-61.662,-6.026
25.58,-64.365,-6.197
25.62,-66.541,-6.919
25.65,-70.892,-7.526
25.68,-75.139,-7.687
25.71,-77.49,-8.03
25.75,-79.912,-8.729
25.78,-83.456,-9.348
25.81,-87.422,-9.691
25.84,-90.44,-9.966
25.88,-93.002,-10.379
25.91,-96.196,-10.883
25.94,-100.162,-11.181
25.98,-103.04,-11.307
26.01,-104.865,-11.925
26.04,-107.953,-12.716
26.07,-111.884,-13.105
26.11,-114.972,-13.346
26.14,-117.323,-13.85
26.17,-119.885,-14.468
26.2,-123.36,-15.053
26.24,-126.553,-15.431
26.27,-128.764,-15.923
26.3,-131.396,-16.507
26.33,-135.257,-17.149
26.37,-138.38,-17.218
26.4,-139.854,-17.813
26.43,-142.416,-18.535
26.46,-146.207,-19.108
26.5,-149.4,-19.406
26.53,-150.313,-19.726
26.56,-152.419,-20.7
26.59,-157.086,-21.296
26.63,-160.982,-21.33
26.66,-162.35,-21.479
26.69,-164.035,-22.27
26.72,-167.685,-22.888
26.76,-171.124,-23.209
26.79,-172.493,-23.381
26.82,-173.897,-24.183
26.85,-177.968,-24.916
26.89,-181.863,-25.076
26.92,-182.881,-25.397
26.95,-184.285,-26.485
26.98,-188.075,-26.989
27.02,-190.848,-26.921
27.05,-192.287,-27.402
27.08,-194.217,-27.883
27.11,-196.007,-28.146
27.15,-198.358,-28.857
27.18,-201.201,-29.2
27.21,-202.605,-29.338
27.24,-204.675,-30.059
27.28,-207.799,-30.277
27.31,-209.448,-30.38
27.34,-210.712,-31.193
27.37,-213.554,-31.663
27.41,-215.976,-31.743
27.44,-217.801,-32.293
27.47,-219.801,-32.797
27.5,-221.626,-33.255
27.54,-224.013,-33.989
27.57,-226.259,-34.47
27.6,-227.979,-34.882
27.64,-230.856,-35.432
27.67,-233.734,-35.432
27.7,-234.612,-35.73
27.73,-236.296,-36.681
27.77,-238.928,-36.944
27.8,-240.227,-37.139
27.83,-241.841,-38.044
27.86,-243.842,-38.239
27.9,-244.228,-38.353
27.93,-245.912,-39.144
27.96,-248.474,-39.063
27.99,-248.474,-38.869
28.03,-249.106,-39.533
28.06,-251.808,-39.636
28.09,-253.282,-39.441
28.12,-253.528,-39.911
28.16,-254.721,-40.427
28.19,-256.476,-40.61
28.22,-258.02,-40.873
28.25,-259.389,-41.206
28.29,-260.371,-41.377
28.32,-261.565,-41.744
28.35,-263.249,-42.053
28.38,-264.442,-42.294
28.42,-265.706,-42.786
28.45,-267.285,-43.199
28.48,-268.408,-43.634
28.51,-269.145,-44.218
28.55,-270.268,-44.654
28.58,-271.532,-44.894
28.61,-272.83,-45.284
28.64,-274.129,-45.685
28.68,-274.831,-46.212
28.71,-275.778,-46.762
28.74,-276.796,-47.059
28.77,-277.252,-47.311
28.81,-277.849,-47.644
28.84,-278.902,-47.781
28.87,-279.533,-47.907
28.9,-279.779,-48.319
28.94,-280.656,-48.652
28.97,-281.429,-48.629
29.0,-281.499,-48.594
29.03,-281.288,-48.709
29.07,-281.534,-48.812
29.1,-281.709,-48.629
29.13,-281.569,-48.537
29.16,-281.885,-48.617
29.2,-282.516,-48.514
29.23,-282.376,-48.446
29.26,-281.99,-48.423
29.3,-281.464,-48.342
29.33,-281.569,-48.193
29.36,-281.464,-47.781
29.39,-280.621,-47.529
29.43,-280.27,-47.483
29.46,-280.446,-47.346
29.49,-280.025,-47.048
29.52,-279.218,-46.83
29.56,-278.656,-46.613
29.59,-278.656,-46.372
29.62,-276.305,-44.837
29.65,-267.952,-41.847
29.69,-262.267,-40.358
29.72,-265.952,-38.72
29.75,-266.934,-35.214
29.78,-258.687,-33.084
29.82,-253.844,-33.381
29.85,-257.915,-32.9
29.88,-260.442,-31.193
29.91,-256.335,-30.804
29.95,-253.493,-32.064
29.98,-256.581,-32.832
30.01,-258.897,-32.568
30.04,-256.441,-32.969
30.08,-253.914,-34.286
30.11,-254.791,-34.962
30.14,-255.563,-34.779
30.17,-253.914,-34.871
30.21,-251.984,-35.272
30.24,-251.598,-35.466
30.27,-251.913,-35.478
30.3,-250.615,-35.295
30.34,-247.737,-35.352
30.37,-246.754,-35.638
30.4,-246.86,-35.226
30.43,-244.579,-34.664
30.47,-242.122,-34.951
30.5,-241.701,-34.905
30.53,-240.402,-34.275
30.56,-238.472,-34.286
30.6,-237.384,-34.115
30.63,-235.384,-33.553
30.66,-233.594,-33.553
30.69,-232.892,-33.324
30.73,-231.277,-32.706
30.76,-228.786,-32.511
30.79,-227.101,-32.499
30.83,-225.697,-32.202
30.86,-223.978,-31.824
30.89,-221.486,-31.377
30.92,-218.678,-31.148
30.96,-217.52,-30.964
30.99,-216.116,-30.208
31.02,-212.852,-29.716
31.05,-210.922,-29.819
31.09,-209.975,-29.189
31.12,-207.132,-28.478
31.15,-204.184,-28.547
31.18,-202.394,-28.135
31.22,-200.113,-27.585
31.25,-198.253,-27.619
31.28,-196.498,-27.058
31.31,-193.304,-26.577
31.35,-191.339,-26.863
31.38,-190.005,-26.302
31.41,-186.707,-25.695
31.44,-184.145,-25.89
31.48,-182.776,-25.431
31.51,-180.003,-24.904
31.54,-177.757,-24.996
31.57,-175.932,-24.481
31.61,-172.633,-24.08
31.64,-170.282,-24.068
31.67,-168.703,-23.381
31.7,-165.509,-22.602
31.74,-162.315,-22.361
31.77,-159.824,-21.903
31.8,-157.402,-21.468
31.83,-154.875,-20.941
31.87,-151.892,-20.242
31.9,-148.804,-19.749
31.93,-146.136,-19.199
31.96,-142.978,-18.398
32.0,-139.258,-17.848
32.03,-136.345,-17.39
32.06,-133.643,-16.691
32.09,-130.589,-16.061
32.13,-127.466,-15.58
32.16,-124.377,-15.041
32.19,-121.254,-14.514
32.22,-118.06,-13.953
32.26,-115.077,-13.357
32.29,-112.199,-12.853
32.32,-109.251,-12.315
32.35,-106.058,-11.822
32.39,-102.899,-11.513
32.42,-99.811,-11.032
32.45,-96.336,-10.447
32.49,-92.827,-9.978
32.52,-89.844,-9.394
32.55,-86.65,-8.66
32.58,-82.86,-8.133
32.62,-79.42,-7.687
32.65,-76.613,-7.114
32.68,-73.63,-6.369
32.71,-69.629,-5.728
32.75,-65.312,-5.327
32.78,-62.083,-4.995
32.81,-59.346,-4.456
32.84,-55.591,-3.826
32.88,-51.379,-3.414
32.91,-47.975,-3.208
32.94,-45.483,-2.692
32.97,-41.763,-2.142
33.01,-37.411,-1.879
33.04,-34.674,-1.902
33.07,-32.954,-1.73
33.1,-29.62,-1.535
33.14,-25.093,-1.512
33.17,-20.847,-1.111
33.2,-17.372,-0.183
33.23,-13.617,1.306
33.27,-10.88,3.047
33.3,-6.493,4.903
33.33,4.668,4.147
33.36,10.564,2.085
33.4,12.038,1.787
33.43,14.108,3.07
33.46,20.355,3.631
33.49,26.111,2.6
33.53,25.479,2.646
33.56,24.777,4.09
33.59,28.497,5.579
33.62,34.323,6.037
33.66,37.762,5.842
33.69,39.482,6.014
33.72,43.132,6.495
33.75,48.08,6.53
33.79,51.45,6.518
33.82,53.239,6.999
33.85,56.328,7.687
33.88,61.452,7.847
33.92,65.312,7.755
33.95,66.997,7.973
33.98,69.453,8.706
34.01,74.542,9.13
34.05,78.789,8.97
34.08,80.228,9.187
34.11,82.649,10.047
34.15,87.457,10.619
34.18,91.353,10.699
34.21,93.108,10.871
34.24,95.178,11.582
34.28,99.6,12.017
34.31,103.355,11.937
34.34,104.97,12.235
34.37,107.146,12.933
34.41,111.427,13.506
34.44,115.709,13.609
34.47,117.464,13.827
34.5,118.867,14.526
34.54,123.219,15.156
34.57,127.361,15.121
34.6,127.957,15.305
34.63,129.501,16.233
34.67,135.222,16.656
34.7,139.644,16.175
34.73,139.784,16.507
34.76,141.153,17.699
34.8,146.487,18.363
34.83,151.085,18.283
34.86,151.892,18.535
34.89,152.945,19.532
34.93,157.507,20.379
34.96,161.859,20.528
34.99,163.087,20.838
35.02,164.281,21.788
35.06,168.282,22.625
35.09,172.247,22.579
35.12,173.581,22.785
35.15,175.441,23.679
35.19,178.986,24.171
35.22,181.969,24.423
35.25,184.145,25.088
35.28,186.11,25.569
35.32,188.602,25.993
35.35,191.515,26.382
35.38,193.41,26.428
35.41,194.498,26.829
35.45,197.06,27.505
35.48,199.902,27.551
35.51,201.341,27.791
35.54,202.885,28.478
35.58,205.412,28.708
35.61,207.027,28.971
35.64,209.448,29.464
35.68,213.063,29.326
35.71,214.748,29.109
35.74,215.625,29.67
35.77,217.976,30.22
35.81,220.468,30.266
35.84,221.346,30.437
35.87,222.433,30.976
35.9,225.417,31.228
35.94,227.873,31.262
35.97,228.996,31.594
36.0,230.049,32.27
36.03,232.12,32.912
36.07,234.752,33.175
36.1,236.086,33.336
36.13,236.752,33.771
36.16,238.858,34.275
36.2,241.525,34.447
36.23,242.754,34.699
36.26,243.666,35.226
36.29,245.561,35.615
36.33,247.421,35.856
36.36,248.79,36.062
36.39,250.089,36.326
36.42,251.527,36.692
36.46,253.001,37.093
36.49,254.51,37.505
36.52,256.265,37.872
36.55,257.845,38.216
36.59,258.862,38.525
36.62,259.178,38.972
36.65,260.617,39.545
36.68,263.284,39.59
36.72,264.337,39.487
36.75,264.864,40.072
36.78,266.618,40.484
36.81,267.952,40.77
36.85,268.935,41.309
36.88,270.058,41.755
36.91,271.181,42.088
36.94,272.198,42.489
36.98,273.111,42.993
37.01,274.129,43.531
37.04,275.357,43.875
37.07,276.305,44.195
37.11,277.147,44.47
37.14,277.744,44.688
37.17,278.34,44.997
37.2,278.972,45.215
37.24,279.674,45.364
37.27,280.27,45.616
37.3,280.832,45.811
37.34,281.007,45.994
37.37,281.393,46.063
37.4,281.464,45.994
37.43,281.92,46.246
37.47,282.552,46.074
37.5,282.06,46.235
37.53,282.271,46.498
37.56,282.762,46.315
37.6,282.481,46.166
37.63,282.201,46.154
37.66,282.13,46.074
37.69,281.744,45.994
37.73,281.464,45.879
37.76,281.358,45.879
37.79,281.393,45.891
37.82,280.656,45.868
37.86,279.849,45.971
37.89,279.919,45.891
37.92,279.814,45.547
37.95,278.831,45.215
37.99,277.603,45.043
38.02,277.357,44.848
38.05,277.287,44.459
38.08,275.813,44.15
38.12,274.374,43.989
38.15,273.813,43.6
38.18,272.795,43.016
38.21,271.286,42.5
38.25,269.917,42.007
38.28,269.075,41.561
38.31,268.338,41.068
38.34,267.004,40.541
38.38,265.25,40.163
38.41,263.986,39.808
38.44,262.828,39.293
38.47,261.073,38.777
38.51,259.248,38.388
38.54,258.09,38.032
38.57,257.248,37.437
38.6,255.458,36.738
38.64,253.352,36.406
38.67,252.054,36.154
38.7,250.826,35.421
38.73,248.72,34.928
38.77,247.246,34.699
38.8,245.526,34.023
38.83,243.034,33.576
38.86,241.771,33.473
38.9,240.543,32.774
38.93,237.7,32.27
38.96,235.77,32.236
39.0,234.682,31.629
39.03,232.751,31.102
39.06,230.856,30.804
39.09,228.716,30.346
39.13,226.364,30.082
39.16,224.925,29.899
39.19,223.346,29.292
39.22,220.082,28.765
39.26,218.011,28.845
39.29,217.169,28.352
39.32,214.502,27.78
39.35,211.729,27.642
39.39,210.291,27.436
39.42,208.922,27.001
39.45,206.29,26.634
39.48,203.236,26.451
39.52,201.411,26.382
39.55,200.043,25.89
39.58,197.27,25.363
39.61,194.498,25.397
39.65,193.234,25.282
39.68,191.725,24.71
39.71,188.707,24.389
39.74,186.25,24.137
39.78,184.074,23.736
39.81,181.267,23.495
39.84,179.021,23.22
39.87,177.266,22.785
39.91,174.95,22.453
39.94,171.861,22.178
39.97,168.913,22.144
40.0,167.299,21.937
40.04,165.018,21.216
40.07,160.912,20.849
40.1,158.104,20.838
40.13,156.805,20.185
40.17,154.173,19.612
40.2,150.734,19.188
40.23,147.646,18.879
40.26,145.154,18.569
40.3,142.802,17.974
40.33,139.714,17.172
40.36,135.994,16.702
40.39,133.186,16.324
40.43,130.94,15.728
40.46,128.659,14.972
40.49,124.939,14.411
40.53,120.973,14.319
40.56,118.727,14.102
40.59,116.551,13.414
40.62,112.691,12.979
40.66,109.111,12.842
40.69,106.76,12.521
40.72,104.408,11.891
40.75,100.829,11.318
40.79,96.828,10.963
40.82,93.845,10.585
40.85,91.458,9.909
40.88,88.335,9.038
40.92,83.562,8.569
40.95,79.842,8.408
40.98,77.209,7.859
41.01,73.875,7.263
41.05,69.839,6.885
41.08,66.049,6.495
41.11,62.68,6.14
41.14,59.557,5.819
41.18,55.766,5.384
41.21,51.871,5.109
41.24,48.466,4.869
41.27,45.168,4.399
41.31,41.377,3.941
41.34,37.447,3.723
41.37,34.393,3.735
41.4,32.007,3.654
41.44,28.918,3.517
41.47,24.812,3.334
41.5,20.601,2.692
41.53,16.425,1.867
41.57,13.547,0.596
41.6,10.985,-1.1
41.63,8.493,-3.116
41.66,-1.649,-3.104
41.7,-9.441,-0.79
41.73,-11.02,0.057
41.76,-12.389,-1.123
41.79,-18.776,-2.096
41.83,-27.269,-0.974
41.86,-26.497,-0.55
41.89,-24.532,-2.222
41.92,-29.305,-3.643
41.96,-36.464,-3.482
41.99,-38.078,-3.116
42.02,-37.798,-3.906
42.05,-42.079,-4.777
42.09,-48.502,-4.685
42.12,-50.923,-4.502
42.15,-51.555,-5.327
42.19,-56.012,-6.301
42.22,-62.189,-6.266
42.25,-64.821,-6.14
42.28,-66.084,-6.942
42.32,-70.12,-7.881
42.35,-75.56,-8.111
42.38,-78.613,-8.076
42.41,-80.017,-8.672
42.45,-83.562,-9.462
42.48,-88.405,-9.68
42.51,-91.212,-9.749
42.54,-92.441,-10.425
42.58,-95.634,-11.238
42.61,-99.916,-11.57
42.64,-102.969,-11.742
42.67,-105.18,-12.109
42.71,-108.128,-12.716
42.74,-111.848,-13.208
42.77,-114.761,-13.598
42.8,-117.043,-14.216
42.84,-119.955,-14.881
42.87,-123.711,-15.236
42.9,-126.518,-15.499
42.93,-128.694,-16.003
42.97,-131.256,-16.645
43.0,-135.046,-17.367
43.03,-138.24,-17.619
43.06,-140.381,-18.214
43.1,-142.978,-18.753
43.13,-145.575,-19.062
43.16,-148.628,-19.497
43.19,-151.401,-19.841
43.23,-153.963,-20.276
43.26,-156.384,-20.78
43.29,-159.332,-21.559
43.32,-162.491,-22.109
43.36,-164.211,-22.59
43.39,-166.141,-23.381
43.42,-169.72,-23.896
43.45,-172.668,-23.999
43.49,-174.213,-24.481
43.52,-176.775,-25.385
43.55,-180.249,-25.855
43.58,-182.214,-26.21
43.62,-183.513,-27.024
43.65,-186.812,-27.482
43.68,-190.602,-27.276
43.71,-192.462,-27.39
43.75,-193.761,-28.238
43.78,-196.954,-29.235
43.81,-200.78,-29.693
43.85,-202.675,-30.014
43.88,-203.447,-30.793
43.91,-206.009,-31.4
43.94,-209.167,-31.411
43.98,-210.045,-31.274
44.01,-210.501,-31.755
44.04,-213.344,-32.121
44.07,-216.151,-31.972
44.11,-216.432,-31.972
44.14,-217.204,-32.637
44.17,-220.363,-32.923
44.2,-222.714,-32.625
44.24,-222.714,-32.706
44.27,-223.732,-33.336
44.3,-226.575,-33.439
44.33,-228.259,-33.416
44.37,-229.102,-33.805
44.4,-230.786,-34.08
44.43,-232.33,-34.057
44.46,-233.734,-34.561
44.5,-235.699,-34.882
44.53,-237.068,-35.077
44.56,-238.507,-35.604
44.59,-240.543,-35.982
44.63,-242.683,-36.28
44.66,-245.035,-36.578
44.69,-246.544,-36.692
44.72,-247.386,-37.15
44.76,-249.106,-37.803
44.79,-251.247,-38.158
44.82,-252.545,-38.491
44.85,-253.738,-39.063
44.89,-255.247,-39.648
44.92,-256.616,-40.152
44.95,-257.845,-40.61
44.98,-259.354,-40.999
45.02,-260.863,-41.263
45.05,-261.986,-41.618
45.08,-263.109,-42.007
45.11,-264.232,-42.454
45.15,-265.671,-42.924
45.18,-267.32,-43.325
45.21,-268.549,-43.772
45.24,-269.496,-44.402
45.28,-270.689,-44.848
45.31,-271.602,-45.261
45.34,-272.655,-45.753
45.37,-273.953,-46.166
45.41,-275.146,-46.406
45.44,-275.848,-46.773
45.47,-276.936,-47.117
45.51,-277.603,-47.288
45.54,-277.849,-47.621
45.57,-278.445,-47.941
45.6,-279.182,-48.171
45.64,-279.744,-48.354
45.67,-279.779,-48.606
45.7,-279.849,-48.938
45.73,-280.411,-49.087
45.77,-280.762,-48.961
45.8,-280.656,-48.95
45.83,-281.007,-49.202
45.86,-281.288,-49.064
45.9,-280.972,-49.247
45.93,-281.113,-49.19
45.96,-281.007,-48.938
45.99,-280.902,-48.824
46.03,-280.621,-48.594
46.06,-279.814,-48.331
46.09,-279.323,-48.251
46.12,-279.849,-48.045
46.16,-279.463,-47.701
46.19,-278.094,-47.495
46.22,-277.007,-47.128
46.25,-276.234,-46.418
46.29,-275.182,-45.742
46.32,-274.339,-45.1
46.35,-273.322,-44.482
46.38,-272.725,-44.069
46.42,-272.269,-43.703
46.45,-271.497,-43.417
46.48,-270.549,-43.325
46.51,-270.233,-43.245
46.55,-269.847,-42.958
46.58,-268.759,-42.809
46.61,-268.092,-42.844
46.64,-267.987,-42.695
46.68,-267.11,-42.386
46.71,-265.636,-42.225
46.74,-264.618,-41.996
46.77,-263.565,-41.526
46.81,-261.916,-41.137
46.84,-260.301,-40.816
46.87,-259.178,-40.369
46.9,-258.125,-39.785
46.94,-256.195,-39.189
46.97,-253.879,-38.697
47.0,-252.545,-38.136
47.04,-251.387,-37.265
47.07,-248.895,-36.394
47.1,-246.439,-35.993
47.13,-245.245,-35.489
47.17,-243.491,-34.607
47.2,-241.069,-34.138
47.23,-239.665,-33.817
47.26,-237.875,-33.015
47.3,-235.419,-32.545
47.33,-234.05,-32.236
47.36,-232.716,-31.445
47.39,-230.225,-30.919
47.43,-227.873,-30.735
47.46,-226.048,-30.38
47.49,-224.329,-29.991
47.52,-222.504,-29.544
47.56,-220.187,-29.017
47.59,-218.011,-28.639
47.62,-216.011,-28.318
47.65,-213.8,-27.963
47.69,-211.694,-27.7
47.72,-209.869,-27.39
47.75,-207.939,-26.955
47.78,-205.763,-26.669
47.82,-203.622,-26.256
47.85,-200.99,-25.764
47.88,-199.271,-25.867
47.91,-198.007,-25.5
47.95,-195.2,-25.076
47.98,-192.848,-25.248
48.01,-191.69,-24.996
48.04,-189.163,-24.469
48.08,-186.18,-24.423
48.11,-184.145,-24.148
48.14,-181.828,-23.621
48.17,-179.126,-23.427
48.21,-176.845,-23.129
48.24,-174.178,-22.625
48.27,-171.931,-22.43
48.3,-169.861,-21.949
48.34,-166.808,-21.456
48.37,-163.474,-21.193
48.4,-161.368,-21.044
48.43,-159.753,-20.528
48.47,-157.016,-20.127
48.5,-153.577,-19.852
48.53,-150.804,-19.704
48.56,-149.084,-19.337
48.6,-146.698,-18.421
48.63,-142.978,-17.997
48.66,-139.784,-17.504
48.7,-137.257,-16.943
48.73,-134.66,-16.301
48.76,-131.081,-15.74
48.79,-127.711,-15.339
48.83,-124.974,-14.789
48.86,-122.166,-14.067
48.89,-118.622,-13.346
48.92,-114.902,-12.83
48.96,-112.094,-12.292
48.99,-109.286,-11.65
49.02,-105.672,-11.066
49.05,-102.022,-10.722
49.09,-99.39,-10.23
49.12,-96.512,-9.474
49.15,-92.511,-8.832
49.18,-88.721,-8.466
49.22,-86.124,-7.927
49.25,-83.07,-7.16
49.28,-79.175,-6.621
49.31,-75.49,-6.197
49.35,-72.191,-5.693
49.38,-69.102,-5.247
49.41,-65.804,-4.788
49.44,-61.768,-4.399
49.48,-58.118,-4.181
49.51,-55.24,-3.815
49.54,-51.836,-3.219
49.57,-47.8,-2.933
49.61,-44.641,-2.577
49.64,-41.307,-1.947
49.67,-37.447,-1.443
49.7,-33.762,-1.512
49.74,-31.2,-1.524
49.77,-28.181,-1.283
49.8,-24.461,-0.813
49.83,-19.408,-0.172
49.87,-15.512,0.676
49.9,-12.143,2.119
49.93,-10.423,4.101
49.96,-3.51,5.567
50.0,8.388,3.735
50.03,11.827,1.569
50.06,12.003,1.821
50.09,14.459,3.517
50.13,22.636,3.551
50.16,26.778,2.314
50.19,24.356,2.497
50.22,23.514,4.124
50.26,28.392,5.544
50.29,34.709,5.464
50.32,36.78,5.063
50.36,37.306,5.636
50.39,41.728,6.312
50.42,47.659,6.209
50.45,50.713,6.129
50.49,52.467,6.61
50.52,56.293,7.332
50.55,61.241,7.767
50.58,64.751,7.996
50.62,67.102,8.454
50.65,70.261,9.187
50.68,75.314,9.508
50.71,79.07,9.394
50.75,80.473,9.714
50.78,83.246,10.493
50.81,88.229,10.768
50.84,91.634,10.585
50.88,92.932,10.986
50.91,95.67,11.742
50.94,99.741,12.154
50.97,103.11,12.338
51.01,105.075,12.796
51.04,107.848,13.414
51.07,111.919,13.815
51.1,115.323,14.079
51.14,117.674,14.4
51.17,120.271,14.995
51.2,123.921,15.476
51.23,127.15,15.717
51.27,129.396,16.175
51.3,132.344,16.954
51.33,136.029,17.275
51.36,139.644,17.745
51.4,142.451,18.157
51.43,143.996,18.615
51.46,146.944,19.452
51.49,151.19,19.726
51.53,153.893,19.818
51.56,154.7,20.345
51.59,157.507,21.422
51.62,162.561,21.617
51.66,165.053,21.514
51.69,166.141,22.109
51.72,169.37,22.648
51.75,173.23,22.625
51.79,175.195,22.762
51.82,176.213,23.346
51.85,178.635,24.16
51.89,182.6,24.515
51.92,185.127,24.618
51.95,185.724,25.168
51.98,187.654,26.027
52.02,191.69,26.256
52.05,194.041,26.13
52.08,194.498,26.554
52.11,196.568,27.23
52.15,200.183,27.379
52.18,202.394,27.344
52.21,203.131,27.791
52.24,204.71,28.421
52.28,207.518,28.65
52.31,209.869,28.811
52.34,211.624,29.063
52.37,213.309,29.338
52.41,215.45,29.784
52.44,217.906,30.197
52.47,219.591,30.266
52.5,220.538,30.495
52.54,222.433,30.941
52.57,224.925,31.056
52.6,226.154,31.216
52.63,226.996,31.961
52.67,229.768,32.362
52.7,232.997,32.133
52.73,234.366,32.121
52.76,235.033,32.431
52.8,237.138,32.843
52.83,239.349,33.038
52.86,240.016,33.45
52.89,241.28,34.229
52.93,243.806,34.619
52.96,245.877,34.642
52.99,247.0,35.065
53.02,248.193,35.478
53.06,249.632,35.776
53.09,251.633,36.268
53.12,253.493,36.578
53.15,254.265,37.001
53.19,255.774,37.723
53.22,258.301,38.113
53.25,259.354,38.273
53.28,259.459,38.766
53.32,261.214,39.304
53.35,263.39,39.338
53.38,263.986,39.579
53.41,264.828,40.335
53.45,266.583,40.667
53.48,267.917,41.011
53.51,269.286,41.503
53.55,270.198,41.824
53.58,271.04,42.26
53.61,272.058,42.752
53.64,273.146,43.21
53.68,274.339,43.554
53.71,275.673,43.921
53.74,276.726,44.138
53.77,277.007,44.505
53.81,277.287,45.032
53.84,278.094,45.284
53.87,278.726,45.307
53.9,279.112,45.547
53.94,279.849,45.891
53.97,280.621,45.983
54.0,280.902,46.063
54.03,281.007,46.235
54.07,281.429,46.406
54.1,282.341,46.452
54.13,282.376,46.338
54.16,282.13,46.762
54.2,282.797,47.014
54.23,282.867,46.67
54.26,282.306,46.681
54.29,282.657,46.681
54.33,282.727,46.338
54.36,281.393,46.212
54.39,280.902,46.372
54.42,281.744,46.292
54.46,281.744,46.028
54.49,280.692,46.097
54.52,280.2,46.189
54.55,280.095,45.994
54.59,279.779,45.696
54.62,279.112,45.375
54.65,278.235,45.02
54.68,277.112,44.883
54.72,276.761,44.768
54.75,276.375,44.333
54.78,274.796,43.943
54.81,272.9,43.795
54.85,272.304,43.428
54.88,271.707,42.741
54.91,270.268,42.065
54.94,268.759,41.618
54.98,267.952,41.206
55.01,267.18,40.621
55.04,265.46,40.129
55.07,263.986,39.739
55.11,262.723,39.281
55.14,261.284,38.8
55.17,259.564,38.319
55.21,258.09,37.964
55.24,256.721,37.528
55.27,254.967,36.99
55.3,253.317,36.566
55.34,251.984,36.074
55.37,250.229,35.375
55.4,247.983,34.871
55.43,246.333,34.584
55.47,245.14,33.966
55.5,242.789,33.393
55.53,240.858,33.37
55.56,239.806,32.958
55.6,237.84,32.259
55.63,236.05,31.801
55.66,234.541,31.319
55.69,232.19,30.896
55.73,229.593,30.77
55.76,228.189,30.621
55.79,226.855,30.128
55.82,224.68,29.739
55.86,222.539,29.349
55.89,220.573,28.857
55.92,218.503,28.536
55.95,216.573,28.146
55.99,214.011,27.711
56.02,211.87,27.631
56.05,209.94,27.104
56.08,206.816,26.634
56.12,205.061,26.806
56.15,203.412,26.119
56.18,200.218,25.695
56.21,198.463,25.912
56.25,197.551,25.569
56.28,194.427,25.042
56.31,191.69,25.454
56.34,191.164,25.454
56.38,188.882,24.721
56.41,185.197,24.836
56.44,183.443,24.881
56.47,181.723,24.263
56.51,179.021,24.057
56.54,176.529,23.942
56.57,173.932,23.61
56.6,171.896,23.427
56.64,170.247,22.693
56.67,166.386,22.086
56.7,162.947,22.144
56.74,161.859,21.594
56.77,159.929,20.631
56.8,155.331,20.265
56.83,151.857,20.379
56.87,150.488,20.07
56.9,148.944,19.417
56.93,145.575,18.535
56.96,140.942,18.329
57.0,138.696,18.214
57.03,137.012,17.47
57.06,133.853,16.782
57.09,130.238,16.404
57.13,127.22,16.106
57.16,124.693,15.74
57.19,121.956,15.224
57.22,118.517,14.709
57.26,115.182,14.423
57.29,112.656,14.056
57.32,109.953,13.483
57.35,106.795,13.025
57.39,103.531,12.635
57.42,100.056,12.189
57.45,96.758,11.834
57.48,93.564,11.352
57.52,89.738,10.78
57.55,86.545,10.39
57.58,83.842,9.84
57.61,80.368,9.004
57.65,76.262,8.557
57.68,73.279,8.351
57.71,70.261,7.675
57.74,66.014,7.171
57.78,62.364,7.022
57.81,60.294,6.301
57.84,57.135,5.384
57.87,53.239,4.995
57.91,49.379,4.548
57.94,44.676,4.387
57.97,41.202,4.559
58.0,37.973,4.193
58.04,34.534,4.021
58.07,31.831,4.009
58.1,29.059,3.735
58.13,25.163,3.196
58.17,19.899,2.497
58.2,15.863,1.821
58.23,13.301,0.389
58.26,11.266,-1.558
58.3,6.668,-3.517
58.33,-4.843,-2.555
58.36,-10.353,-0.263
58.4,-11.23,-0.034
58.43,-13.091,-1.478
58.46,-21.303,-1.81
58.49,-27.444,-0.332
58.53,-24.742,-0.573
58.56,-24.426,-2.348
58.59,-29.971,-3.379
58.62,-35.516,-3.276
58.66,-37.025,-3.116
58.69,-37.833,-3.666
58.72,-41.588,-4.513
58.75,-47.238,-4.743
58.79,-50.713,-4.559
58.82,-52.046,-5.132
58.85,-55.626,-6.106
58.88,-61.206,-6.415
58.92,-64.926,-6.427
58.95,-67.067,-6.885
58.98,-70.261,-7.675
59.01,-75.069,-8.202
59.05,-78.964,-8.294
59.08,-80.754,-8.752
59.11,-83.421,-9.634
59.14,-87.984,-10.081
59.18,-91.774,-10.047
59.21,-93.704,-10.379
59.24,-96.371,-10.997
59.27,-100.513,-11.272
59.31,-103.601,-11.467
59.34,-105.321,-12.051
59.37,-108.163,-12.796
59.4,-112.129,-13.288
59.44,-115.147,-13.644
59.47,-117.393,-14.148
59.5,-120.692,-14.72
59.53,-124.167,-15.11
59.57,-126.308,-15.431
59.6,-128.413,-16.175
59.63,-131.818,-16.782
59.66,-135.783,-17.115
59.7,-138.661,-17.195
59.73,-140.732,-17.813
59.76,-143.504,-18.34
59.79,-146.031,-18.65
59.83,-148.979,-19.211
59.86,-151.682,-19.555
59.89,-154.208,-20.001
59.92,-156.876,-20.54
59.96,-159.964,-21.113
59.99,-162.877,-21.582
60.02,-165.369,-22.121
60.06,-167.72,-22.556
60.09,-169.931,-23.037
60.12,-172.493,-23.667
60.15,-174.844,-24.125
60.19,-176.915,-24.744
60.22,-180.144,-25.615
60.25,-183.302,-25.706
60.28,-184.601,-25.924
60.32,-186.707,-26.955
60.35,-190.497,-27.299
60.38,-191.971,-27.047
60.41,-193.41,-28.055
60.45,-197.411,-28.662
60.48,-199.867,-28.536
60.51,-200.218,-29.246
60.54,-202.254,-29.991
60.58,-204.956,-29.819
60.61,-207.132,-30.105
60.64,-208.571,-30.151
60.67,-209.483,-30.254
60.71,-212.431,-30.689
60.74,-215.414,-30.655
60.77,-215.871,-30.667
60.8,-216.713,-31.319
60.84,-219.591,-31.503
60.87,-221.907,-31.251
60.9,-222.82,-31.549
60.93,-224.083,-32.098
60.97,-226.329,-32.408
61.0,-228.996,-32.832
61.03,-230.856,-33.107
61.06,-231.242,-33.519
61.1,-232.857,-34.298
61.13,-235.559,-34.584
61.16,-237.314,-34.871
61.19,-238.718,-35.524
61.23,-240.051,-35.867
61.26,-241.771,-36.36
61.29,-244.543,-37.013
61.32,-245.982,-37.001
61.36,-245.947,-37.414
61.39,-248.123,-38.25
61.42,-250.966,-38.17
61.45,-251.212,-38.296
61.49,-252.019,-39.235
61.52,-254.756,-39.671
61.55,-256.265,-39.797
61.58,-257.002,-40.358
61.62,-258.16,-40.816
61.65,-259.775,-40.999
61.68,-261.179,-41.286
61.72,-262.372,-41.595
61.75,-263.284,-41.881
61.78,-264.548,-42.351
61.81,-266.267,-42.649
61.85,-267.32,-43.073
61.88,-268.268,-43.714
61.91,-269.531,-44.161
61.94,-270.549,-44.482
61.98,-271.637,-44.94
62.01,-272.9,-45.33
62.04,-273.883,-45.719
62.07,-274.585,-46.257
62.11,-275.568,-46.624
62.14,-276.515,-46.784
62.17,-277.182,-47.002
62.2,-277.673,-47.231
62.24,-278.2,-47.495
62.27,-278.796,-47.781
62.3,-279.288,-47.964
62.33,-279.744,-48.113
62.37,-280.341,-48.148
62.4,-280.692,-48.216
62.43,-280.762,-48.262
62.46,-280.341,-48.251
62.5,-280.656,-48.434
62.53,-281.358,-48.205
62.56,-281.393,-48.171
62.59,-281.078,-48.113
62.63,-280.376,-47.999
62.66,-280.2,-48.079
62.69,-280.586,-47.873
62.72,-279.814,-47.506
62.76,-278.726,-47.541
62.79,-279.147,-47.621
62.82,-279.533,-47.369
62.85,-278.726,-47.117
62.89,-277.568,-47.071
62.92,-277.322,-46.727
62.95,-276.866,-46.223
62.98,-276.094,-45.857
63.02,-275.287,-45.719
63.05,-275.076,-45.479
63.08,-274.796,-45.112
63.11,-273.743,-44.871
63.15,-272.585,-44.642
63.18,-271.707,-44.379
63.21,-270.97,-44.081
63.25,-269.952,-43.669
63.28,-268.759,-43.325
63.31,-267.917,-42.993
63.34,-266.864,-42.534
63.38,-265.39,-42.042
63.41,-263.846,-41.572
63.44,-262.547,-41.034
63.47,-261.073,-40.45
63.51,-259.634,-39.842
63.54,-258.301,-39.224
63.57,-256.721,-38.502
63.6,-254.616,-37.975
63.64,-253.423,-37.586
63.67,-252.264,-36.658
63.7,-249.667,-35.799
63.73,-247.667,-35.615
63.77,-246.649,-34.813
63.8,-244.052,-33.886
63.83,-242.403,-33.931
63.86,-242.122,-33.244
63.9,-239.244,-32.293
63.93,-236.507,-32.465
63.96,-236.05,-32.121
63.99,-234.12,-31.228
64.03,-231.348,-31.09
64.06,-229.944,-30.815
64.09,-228.294,-30.082
64.12,-226.189,-29.773
64.16,-224.434,-29.383
64.19,-221.872,-28.845
64.22,-219.626,-28.765
64.25,-218.117,-28.33
64.29,-215.941,-27.734
64.32,-213.87,-27.585
64.35,-211.94,-27.092
64.38,-209.378,-26.703
64.42,-207.974,-26.726
64.45,-206.255,-26.038
64.48,-202.71,-25.523
64.51,-200.534,-25.786
64.55,-199.902,-25.351
64.58,-197.06,-24.641
64.61,-194.217,-25.019
64.64,-192.989,-24.847
64.68,-190.988,-24.377
64.71,-189.128,-24.458
64.74,-186.987,-23.931
64.77,-183.548,-23.553
64.81,-181.688,-23.69
64.84,-180.354,-23.094
64.87,-177.02,-22.59
64.91,-173.686,-22.716
64.94,-172.142,-22.453
64.97,-170.247,-21.788
65.0,-167.404,-21.422
65.04,-163.93,-20.861
65.07,-161.298,-20.723
65.1,-160.034,-20.345
65.13,-157.332,-19.6
65.17,-153.612,-19.337
65.2,-151.085,-19.291
65.23,-149.225,-18.65
65.26,-145.926,-17.939
65.3,-142.381,-17.745
65.33,-139.749,-17.126
65.36,-137.012,-16.576
65.39,-134.099,-16.049
65.43,-130.94,-15.476
65.46,-127.747,-15.087
65.49,-124.974,-14.491
65.52,-121.745,-13.792
65.56,-118.271,-13.277
65.59,-115.147,-12.75
65.62,-112.305,-12.074
65.65,-109.216,-11.467
65.69,-105.812,-10.94
65.72,-102.443,-10.47
65.75,-99.425,-10.047
65.78,-96.477,-9.416
65.82,-92.862,-8.752
65.85,-89.247,-8.271
65.88,-86.018,-7.732
65.91,-82.509,-7.137
65.95,-78.999,-6.61
65.98,-75.771,-6.209
66.01,-72.366,-5.751
66.04,-68.927,-5.27
66.08,-65.628,-4.869
66.11,-62.294,-4.445
66.14,-58.539,-3.929
66.17,-54.924,-3.631
66.21,-51.871,-3.219
66.24,-48.326,-2.612
66.27,-44.29,-2.234
66.3,-40.535,-1.97
66.34,-36.92,-1.455
66.37,-33.2,-1.317
66.4,-30.603,-1.226
66.43,-27.409,-0.951
66.47,-23.479,-0.607
66.5,-18.495,0.0
66.53,-15.196,0.802
66.57,-12.459,2.303
66.6,-10.634,4.365
66.63,-2.281,5.396
66.66,8.423,3.219
66.7,10.599,1.432
66.73,10.809,1.925
66.76,13.968,3.528
66.79,22.987,3.276
66.83,25.97,1.776
66.86,22.742,2.268
66.89,23.022,4.09
66.92,29.164,5.315
66.96,34.639,5.281
66.99,35.727,5.373
67.02,37.517,6.255
67.05,43.799,6.759
67.09,49.625,6.346
67.12,50.467,6.232
67.15,51.73,7.343
67.18,57.977,7.996
67.22,63.206,7.549
67.25,64.259,7.595
67.28,66.225,8.42
67.31,71.384,8.901
67.35,75.56,8.821
67.38,77.209,9.073
67.41,79.807,9.794
67.44,84.369,10.184
67.48,88.159,10.207
67.51,90.475,10.573
67.54,93.108,11.078
67.57,96.477,11.536
67.61,100.232,11.937
67.64,103.04,12.154
67.67,105.566,12.532
67.7,109.216,13.128
67.74,112.726,13.346
67.77,115.077,13.632
67.8,117.885,14.445
67.83,121.078,14.995
67.87,123.36,15.385
67.9,126.448,16.061
67.93,130.028,16.393
67.96,132.625,16.588
68.0,134.695,17.195
68.03,137.889,18.088
68.06,141.82,18.317
68.1,143.925,18.489
68.13,145.926,19.268
68.16,149.225,19.658
68.19,152.664,20.07
68.23,155.331,20.299
68.26,157.121,20.883
68.29,160.35,21.628
68.32,163.965,22.006
68.36,166.211,22.212
68.39,167.966,22.819
68.42,171.23,23.415
68.45,174.493,23.381
68.49,175.967,23.747
68.52,178.424,24.664
68.55,181.793,24.904
68.58,183.864,25.168
68.62,185.092,26.119
68.65,187.479,26.726
68.68,191.409,26.623
68.71,194.743,26.451
68.75,195.691,26.451
68.78,196.182,27.001
68.81,199.306,27.871
68.84,203.377,27.837
68.88,204.219,27.574
68.91,204.008,28.352
68.94,206.851,29.017
68.97,210.466,28.868
69.01,211.87,28.994
69.04,212.572,29.544
69.07,214.818,30.002
69.1,218.468,30.288
69.14,220.258,30.185
69.17,219.872,30.426
69.2,221.732,31.216
69.23,225.452,31.331
69.27,227.066,31.148
69.3,227.101,31.652
69.33,229.277,32.328
69.36,232.787,32.591
69.4,234.506,32.602
69.43,234.296,33.107
69.46,235.91,33.897
69.49,239.56,34.172
69.53,241.245,34.069
69.56,240.894,34.401
69.59,242.613,35.272
69.62,246.228,35.524
69.66,247.772,35.18
69.69,248.018,35.524
69.72,249.843,36.074
69.76,251.984,36.211
69.79,253.177,36.555
69.82,254.546,37.093
69.85,255.669,37.62
69.89,257.599,38.227
69.92,259.564,38.456
69.95,259.81,38.674
69.98,260.582,39.304
70.02,262.898,39.625
70.05,264.162,39.613
70.08,264.828,40.14
70.11,266.338,40.679
70.15,267.706,41.034
70.18,268.829,41.503
70.21,269.917,41.893
70.24,270.865,42.34
70.28,272.058,42.672
70.31,272.935,43.027
70.34,273.953,43.577
70.37,275.182,43.989
70.41,276.234,44.264
70.44,276.656,44.654
70.47,277.252,45.112
70.5,278.165,45.272
70.54,278.656,45.398
70.57,279.182,45.639
70.6,279.814,45.902
70.63,280.656,46.017
70.67,281.148,46.04
70.7,281.393,46.2
70.73,281.534,46.544
70.76,282.13,46.75
70.8,281.744,46.532
70.83,281.85,46.933
70.86,283.148,46.888
70.89,282.832,46.716
70.93,281.639,46.933
70.96,281.779,47.082
70.99,282.692,46.933
71.02,282.341,46.567
71.06,280.972,46.487
71.09,281.042,46.613
71.12,282.095,46.441
71.15,281.534,46.086
71.19,280.06,46.143
71.22,279.919,46.166
71.25,279.919,45.776
71.28,278.902,45.513
71.32,277.849,45.387
71.35,277.357,45.135
71.38,276.901,44.871
71.42,276.024,44.551
71.45,274.515,44.195
71.48,273.392,43.898
71.51,272.69,43.428
71.55,271.426,42.809
71.58,270.198,42.214
71.61,268.935,41.733
71.64,267.882,41.297
71.68,266.759,40.713
71.71,265.179,40.243
71.74,264.056,39.762
71.77,262.512,39.201
71.81,260.547,38.834
71.84,259.424,38.514
71.87,258.441,37.872
71.9,256.616,37.357
71.94,255.177,37.047
71.97,253.738,36.348
72.0,251.703,35.753
72.03,250.229,35.478
72.07,248.79,34.687
72.1,246.158,34.115
72.13,244.894,34.023
72.16,244.157,33.278
72.2,241.525,32.717
72.23,239.525,32.728
72.26,238.437,32.27
72.29,236.086,31.663
72.33,233.91,31.583
72.36,232.611,31.171
72.39,230.4,30.54
72.42,228.119,30.346
72.46,226.61,29.933
72.49,224.574,29.532
72.52,222.293,29.315
72.55,219.942,28.994
72.59,217.906,28.673
72.62,216.397,28.364
72.65,214.221,27.86
72.68,211.343,27.574
72.72,209.659,27.562
72.75,208.29,27.058
72.78,205.307,26.485
72.81,202.499,26.52
72.85,201.657,26.245
72.88,199.551,25.225
72.91,196.323,25.259
72.95,195.235,25.351
72.98,193.761,24.698
73.01,190.778,24.366
73.04,188.216,24.435
73.08,186.25,24.194
73.11,184.46,23.908
73.14,181.477,23.369
73.17,178.073,23.301
73.21,176.564,23.369
73.24,175.125,22.9
73.27,171.826,22.384
73.3,168.597,22.384
73.34,167.123,22.224
73.37,164.772,21.502
73.4,160.806,21.158
73.43,158.209,21.113
73.47,156.384,20.494
73.5,153.857,19.978
73.53,150.804,19.578
73.56,147.575,19.291
73.6,144.908,19.051
73.63,142.451,18.535
73.66,139.223,17.894
73.69,135.994,17.458
73.73,133.607,16.954
73.76,131.151,16.267
73.79,127.571,15.877
73.82,124.869,15.476
73.86,122.377,14.846
73.89,118.797,14.445
73.92,115.147,14.171
73.95,112.129,13.976
73.99,109.988,13.644
74.02,107.462,12.887
74.05,103.18,12.418
74.08,99.776,12.338
74.12,97.389,11.845
74.15,94.371,11.158
74.18,90.405,10.654
74.21,86.861,10.15
74.25,83.597,9.497
74.28,80.368,8.993
74.31,76.929,8.397
74.34,72.787,7.813
74.38,69.383,7.572
74.41,66.891,7.091
74.44,62.926,6.289
74.47,58.749,6.129
74.51,56.012,5.877
74.54,52.713,5.132
74.57,48.537,4.834
74.61,44.957,4.708
74.64,41.553,4.204
74.67,37.692,3.941
74.7,34.85,4.021
74.74,32.568,3.746
74.77,29.059,3.494
74.8,24.953,3.219
74.83,21.162,2.6
74.87,17.267,1.409
74.9,12.599,0.046
74.93,10.283,-1.638
74.96,5.194,-3.345
75.0,-5.966,-2.291
75.03,-10.844,-0.286
75.06,-11.827,-0.126
75.09,-13.371,-1.375
75.13,-21.689,-1.432
75.16,-26.637,-0.046
75.19,-23.9,-0.344
75.22,-24.11,-2.085
75.26,-30.042,-3.093
75.29,-35.481,-2.99
75.32,-36.464,-3.059
75.35,-38.078,-3.872
75.39,-43.378,-4.307
75.42,-48.01,-4.124
75.45,-49.765,-4.41
75.48,-52.116,-5.235
75.52,-56.679,-5.785
75.55,-61.311,-5.968
75.58,-63.908,-6.255
75.61,-66.365,-6.965
75.65,-70.857,-7.515
75.68,-75.314,-7.698
75.71,-78.017,-7.927
75.74,-80.017,-8.58
75.78,-83.386,-9.394
75.81,-88.264,-9.726
75.84,-91.283,-9.691
75.87,-92.651,-10.195
75.91,-96.301,-10.929
75.94,-100.829,-11.1
75.97,-102.899,-11.295
76.0,-104.549,-12.189
76.04,-108.409,-12.933
76.07,-112.55,-13.105
76.1,-114.972,-13.483
76.13,-116.937,-14.136
76.17,-120.026,-14.801
76.2,-124.062,-15.247
76.23,-126.869,-15.408
76.27,-128.589,-15.877
76.3,-131.607,-16.553
76.33,-135.748,-17.057
76.36,-138.205,-17.172
76.4,-139.784,-18.02
76.43,-142.943,-18.684
76.46,-145.926,-18.867
76.49,-148.453,-19.383
76.53,-151.12,-19.818
76.56,-153.893,-20.242
76.59,-156.419,-20.746
76.62,-159.543,-21.456
76.66,-163.123,-21.823
76.69,-165.685,-22.029
76.72,-167.229,-22.625
76.75,-169.089,-23.576
76.79,-172.668,-24.011
76.82,-175.932,-24.137
76.85,-177.827,-24.641
76.88,-179.898,-25.248
76.92,-183.057,-25.764
76.95,-186.04,-26.119
76.98,-187.689,-26.52
77.01,-189.233,-27.115
77.05,-191.76,-27.459
77.08,-194.217,-27.631
77.11,-196.323,-28.146
77.14,-198.779,-28.524
77.18,-200.323,-28.524
77.21,-201.938,-29.063
77.24,-204.675,-29.464
77.27,-206.184,-29.383
77.31,-206.992,-29.888
77.34,-209.975,-30.437
77.37,-212.431,-30.288
77.4,-213.168,-30.701
77.44,-214.853,-31.457
77.47,-217.345,-31.594
77.5,-219.064,-31.732
77.53,-220.573,-32.11
77.57,-222.258,-32.408
77.6,-224.258,-32.751
77.63,-226.715,-33.061
77.66,-228.645,-33.175
77.7,-230.646,-33.507
77.73,-232.787,-33.84
77.76,-234.015,-34.012
77.79,-235.454,-34.699
77.83,-238.156,-35.18
77.86,-239.595,-35.146
77.89,-240.437,-35.867
77.93,-242.859,-36.555
77.96,-244.438,-36.612
77.99,-245.316,-37.253
78.02,-247.281,-37.757
78.06,-248.65,-37.78
78.09,-249.808,-38.284
78.12,-252.054,-38.662
78.15,-253.352,-38.72
78.19,-254.124,-39.338
78.22,-256.265,-39.934
78.25,-257.845,-39.968
78.28,-258.055,-40.369
78.32,-259.213,-40.999
78.35,-261.214,-41.183
78.38,-262.337,-41.4
78.41,-263.249,-41.881
78.45,-264.583,-42.248
78.48,-265.881,-42.569
78.51,-267.25,-43.038
78.54,-268.478,-43.405
78.58,-269.496,-43.806
78.61,-270.374,-44.322
78.64,-271.497,-44.826
78.67,-272.69,-45.249
78.71,-273.813,-45.708
78.74,-274.796,-46.074
78.77,-275.497,-46.441
78.8,-276.234,-46.75
78.84,-276.936,-46.968
78.87,-277.498,-47.094
78.9,-278.235,-47.311
78.93,-279.007,-47.506
78.97,-279.463,-47.655
79.0,-279.568,-47.964
79.03,-280.165,-48.148
79.06,-280.586,-48.159
79.1,-280.762,-48.136
79.13,-280.656,-48.125
79.16,-280.867,-48.171
79.19,-281.078,-48.09
79.23,-281.218,-48.251
79.26,-281.253,-47.987
79.29,-280.551,-47.815
79.32,-280.376,-47.838
79.36,-280.656,-47.563
79.39,-279.884,-47.208
79.42,-279.182,-47.277
79.46,-279.884,-47.22
79.49,-280.095,-46.865
79.52,-279.147,-46.693
79.55,-278.235,-46.624
79.59,-277.849,-46.384
79.62,-277.498,-46.154
79.65,-276.901,-45.902
79.68,-276.199,-45.742
79.72,-275.778,-45.513
79.75,-275.182,-45.204
79.78,-274.164,-44.917
79.81,-273.322,-44.608
79.85,-272.304,-44.115
79.88,-270.689,-43.749
79.91,-269.917,-43.382
79.94,-269.461,-42.798
79.98,-268.092,-42.168
80.01,-266.267,-42.007
80.04,-266.338,-42.191
80.07,-266.653,-41.881
80.11,-264.828,-41.664
80.14,-262.793,-41.904
80.17,-262.723,-41.859
80.2,-262.512,-41.343
80.24,-260.652,-40.908
80.27,-258.266,-40.621
80.3,-256.686,-40.186
80.33,-255.634,-39.533
80.37,-253.844,-38.731
80.4,-251.106,-38.101
80.43,-249.352,-37.677
80.46,-248.579,-36.887
80.5,-246.439,-35.833
80.53,-243.596,-35.375
80.56,-241.911,-34.871
80.59,-239.841,-33.989
80.63,-237.665,-33.53
80.66,-236.823,-33.107
80.69,-234.962,-32.087
80.72,-231.734,-31.606
80.76,-230.4,-31.491
80.79,-229.453,-30.724
80.82,-226.575,-30.14
80.85,-224.013,-29.991
80.89,-222.469,-29.441
80.92,-220.468,-28.834
80.95,-218.117,-28.421
80.98,-215.625,-27.826
81.02,-213.309,-27.539
81.05,-211.765,-27.241
81.08,-209.203,-26.462
81.12,-206.325,-26.245
81.15,-205.096,-26.016
81.18,-202.605,-25.088
81.21,-199.341,-24.985
81.25,-198.042,-25.019
81.28,-196.393,-24.16
81.31,-193.304,-23.942
81.34,-191.269,-23.942
81.38,-188.777,-23.243
81.41,-185.97,-23.209
81.44,-184.496,-23.071
81.47,-181.793,-22.224
81.51,-178.459,-22.189
81.54,-177.336,-22.247
81.57,-175.441,-21.422
81.6,-171.44,-21.239
81.64,-169.229,-21.284
81.67,-167.896,-20.62
81.7,-164.877,-20.07
81.73,-161.263,-19.681
81.77,-158.315,-19.429
81.8,-156.981,-19.188
81.83,-154.77,-18.375
81.86,-150.243,-17.813
81.9,-147.189,-17.882
81.93,-146.312,-17.355
81.96,-143.539,-16.519
81.99,-138.977,-16.198
82.03,-135.713,-16.038
82.06,-134.309,-15.534
82.09,-131.818,-14.526
82.12,-126.729,-13.85
82.16,-122.658,-13.689
82.19,-120.763,-13.151
82.22,-118.236,-12.109
82.25,-113.849,-11.387
82.29,-110.094,-11.123
82.32,-107.988,-10.665
82.35,-105.391,-9.943
82.38,-101.18,-9.428
82.42,-97.354,-9.073
82.45,-94.827,-8.569
82.48,-91.037,-7.332
82.51,-84.509,-5.957
82.55,-78.543,-4.96
82.58,-75.455,-3.929
82.61,-73.103,-2.944
82.64,-67.979,-1.982
82.68,-62.189,-2.211
82.71,-60.118,-2.738
82.74,-59.416,-2.451
82.78,-55.766,-2.073
82.81,-50.818,-2.337
82.84,-48.502,-2.566
82.87,-47.203,-2.234
82.91,-44.115,-1.982
82.94,-40.149,-1.97
82.97,-37.201,-2.062
83.0,-35.201,-1.913
83.04,-32.674,-1.718
83.07,-29.936,-1.913
83.1,-27.901,-2.016
83.13,-25.76,-1.799
83.17,-21.759,-1.214
83.2,-17.407,-0.447
83.23,-14.038,0.962
83.26,-11.23,2.83
83.3,-7.545,5.018
83.33,4.106,4.823
83.36,12.073,2.394
83.39,13.196,1.512
83.43,14.038,2.658
83.46,19.232,3.757
83.49,26.146,2.91
83.52,25.62,2.257
83.56,22.812,3.265
83.59,25.549,4.639
83.62,32.744,4.903
83.65,36.429,4.319
83.69,36.113,4.685
83.72,39.096,5.819
83.75,46.501,6.129
83.78,50.853,5.831
83.82,51.59,6.358
83.85,54.924,7.503
83.88,61.662,7.95
83.91,66.154,7.755
83.95,67.137,8.179
83.98,69.839,9.29
84.01,76.332,9.691
84.04,80.614,9.153
84.08,80.403,9.382
84.11,82.684,10.436
84.14,88.861,10.665
84.17,92.336,10.15
84.21,92.3,10.516
84.24,94.617,11.57
84.27,100.267,11.788
84.31,103.777,11.467
84.34,104.092,11.879
84.37,106.409,12.784
84.4,111.989,13.14
84.44,115.99,12.899
84.47,116.165,13.22
84.5,117.604,14.377
84.53,123.184,14.938
84.57,127.501,14.56
84.6,127.782,14.686
84.63,129.221,15.751
84.66,134.485,16.359
84.7,139.293,16.152
84.73,140.697,16.313
84.76,142.03,17.218
84.79,145.715,18.157
84.83,150.067,18.569
84.86,152.383,18.661
84.89,153.506,19.268
84.92,156.981,20.093
84.96,161.298,20.242
84.99,163.087,20.437
85.02,164.526,21.296
85.05,168.317,21.857
85.09,171.616,21.88
85.12,173.125,22.281
85.15,174.95,23.026
85.18,177.933,23.587
85.22,181.477,23.999
85.25,183.899,24.309
85.28,185.057,24.755
85.31,187.619,25.603
85.35,191.62,25.809
85.38,193.41,25.706
85.41,194.427,26.416
85.44,197.446,27.024
85.48,200.464,26.921
85.51,201.762,27.299
85.54,203.271,27.906
85.57,205.447,28.078
85.61,207.869,28.295
85.64,210.045,28.57
85.67,212.256,28.639
85.7,214.642,28.731
85.74,216.573,28.948
85.77,218.117,29.361
85.8,220.293,29.704
85.83,221.837,29.853
85.87,223.03,30.243
85.9,225.066,30.712
85.93,227.417,30.861
85.97,228.961,30.964
86.0,230.4,31.342
86.03,232.436,31.72
86.06,234.331,32.007
86.1,235.664,32.431
86.13,237.244,32.866
86.16,239.349,33.233
86.19,241.174,33.599
86.23,242.332,34.012
86.26,243.666,34.584
86.29,246.158,35.146
86.32,248.264,35.214
86.36,248.615,35.432
86.39,249.702,36.28
86.42,252.615,36.578
86.45,254.265,36.566
86.49,254.651,37.219
86.52,256.406,37.906
86.55,258.617,38.055
86.58,259.529,38.262
86.62,259.845,38.708
86.65,261.073,39.178
86.68,263.319,39.35
86.71,264.653,39.247
86.75,265.179,39.774
86.78,266.724,40.255
86.81,267.882,40.541
86.84,268.584,41.091
86.88,270.023,41.538
86.91,271.216,41.698
86.94,271.567,42.065
86.97,272.795,42.603
87.01,274.339,42.993
87.04,275.427,43.325
87.07,275.743,43.737
87.1,276.585,44.207
87.14,277.814,44.459
87.17,278.621,44.619
87.2,278.375,44.722
87.23,278.937,45.284
87.27,280.621,45.364
87.3,280.902,45.307
87.33,280.692,45.731
87.36,281.323,45.994
87.4,281.885,45.994
87.43,281.85,46.063
87.46,281.85,46.109
87.49,282.06,46.189
87.53,282.587,46.143
87.56,282.481,46.005
87.59,282.025,46.005
87.63,281.99,45.96
87.66,281.815,45.776
87.69,281.183,45.627
87.72,280.762,45.616
87.76,280.902,45.605
87.79,281.042,45.513
87.82,280.481,45.536
87.85,280.235,45.639
87.89,279.955,45.49
87.92,279.112,45.433
87.95,278.586,45.364
87.98,278.165,45.055
88.02,277.322,44.894
88.05,276.936,44.734
88.08,276.234,44.322
88.11,274.901,44.001
88.15,273.743,43.726
88.18,272.69,43.256
88.21,271.426,42.672
88.24,269.987,42.202
88.28,268.97,41.71
88.31,268.092,41.16
88.34,266.618,40.633
88.37,265.039,40.209
88.41,263.495,39.865
88.44,262.337,39.419
88.47,261.038,38.857
88.5,259.494,38.376
88.54,258.336,37.952
88.57,256.827,37.448
88.6,255.072,37.013
88.63,254.16,36.658
88.67,253.072,35.936
88.7,250.439,35.283
88.73,248.264,35.203
88.76,247.632,34.882
88.8,246.158,34.012
88.83,243.35,33.668
88.86,241.631,33.576
88.89,240.121,33.026
88.93,238.402,32.614
88.96,236.787,32.121
88.99,234.366,31.514
89.02,232.541,31.308
89.06,231.242,30.896
89.09,228.821,30.323
89.12,226.645,30.288
89.16,225.592,29.979
89.19,223.135,29.338
89.22,220.187,29.143
89.25,218.573,28.96
89.29,216.959,28.41
89.32,214.362,28.055
89.35,212.045,27.745
89.38,210.045,27.321
89.42,208.115,27.012
89.45,205.728,26.531
89.48,202.78,26.21
89.51,200.885,26.164
89.55,199.165,25.729
89.58,196.849,25.259
89.61,194.849,25.156
89.64,193.234,24.755
89.68,190.742,24.4
89.71,188.075,24.412
89.74,186.215,24.183
89.77,184.32,23.793
89.81,181.337,23.346
89.84,179.126,23.129
89.87,177.512,22.842
89.9,174.634,22.636
89.94,171.545,22.315
89.97,169.299,22.27
90.0,167.931,21.674
90.03,164.948,21.021
90.07,161.227,20.998
90.1,158.665,20.78
90.13,156.419,20.46
90.16,154.314,20.047
90.2,151.471,19.474
90.23,148.067,19.051
90.26,145.575,18.535
90.29,142.522,17.905
90.33,138.696,17.447
90.36,135.748,17.195
90.39,133.502,16.691
90.42,130.309,16.141
90.46,126.799,15.877
90.49,124.062,15.568
90.52,121.991,14.972
90.55,119.183,14.274
90.59,115.463,13.827
90.62,112.515,13.598
90.65,110.655,13.151
90.68,107.848,12.521
90.72,103.601,12.303
90.75,100.583,12.097
90.78,98.267,11.41
90.82,94.687,10.757
90.85,90.44,10.344
90.88,87.247,9.863
90.91,84.369,9.268
90.95,81.14,8.592
90.98,77.245,7.859
91.01,73.033,7.572
91.04,70.015,7.435
91.08,67.734,6.77
91.11,63.908,6.152
91.14,59.346,6.037
91.17,56.047,5.865
91.21,53.45,5.407
91.24,49.87,4.937
91.27,45.448,4.628
91.3,41.974,4.399
91.34,38.675,4.044
91.37,35.446,3.861
91.4,32.323,3.838
91.43,29.234,3.643
91.47,24.812,3.23
91.5,19.759,2.325
91.53,14.705,1.306
91.56,11.406,-0.241
91.6,8.318,-2.108
91.63,7.054,-4.433
91.66,-4.282,-4.639
91.69,-15.266,-0.951
91.73,-14.529,0.974
91.76,-12.354,-0.137
91.79,-15.723,-1.959
91.82,-25.76,-1.478
91.86,-27.55,-0.332
91.89,-23.97,-1.306
91.92,-26.111,-3.024
91.95,-34.288,-3.253
91.99,-38.429,-2.577
92.02,-37.903,-3.127
92.05,-40.5,-4.594
92.08,-47.765,-5.098
92.12,-52.608,-4.766
92.15,-53.485,-5.27
92.18,-56.328,-6.507
92.21,-62.54,-6.976
92.25,-67.032,-6.839
92.28,-68.576,-7.263
92.31,-71.208,-8.133
92.34,-76.016,-8.489
92.38,-79.771,-8.351
92.41,-80.824,-8.557
92.44,-82.79,-9.279
92.48,-87.422,-9.783
92.51,-91.318,-9.668
92.54,-92.616,-9.966
92.57,-94.757,-10.86
92.61,-99.355,-11.433
92.64,-103.531,-11.375
92.67,-105.356,-11.559
92.7,-107.216,-12.372
92.74,-111.322,-13.059
92.77,-115.358,-13.334
92.8,-117.639,-13.735
92.83,-119.569,-14.423
92.87,-123.289,-15.156
92.9,-127.571,-15.362
92.93,-129.326,-15.282
92.96,-130.484,-16.129
93.0,-134.134,-17.0
93.03,-138.416,-17.218
93.06,-140.416,-17.378
93.09,-141.855,-18.054
93.13,-145.049,-18.764
93.16,-148.383,-19.142
93.19,-150.699,-19.578
93.22,-152.91,-20.185
93.26,-155.998,-20.803
93.29,-159.613,-21.284
93.32,-162.175,-21.651
93.35,-163.895,-22.27
93.39,-166.386,-23.117
93.42,-170.071,-23.518
93.45,-172.458,-23.679
93.48,-174.213,-24.435
93.52,-177.301,-25.099
93.55,-180.354,-25.431
93.58,-182.635,-26.004
93.61,-184.917,-26.543
93.65,-186.952,-26.921
93.68,-190.041,-27.31
93.71,-193.024,-27.253
93.74,-194.077,-27.356
93.78,-195.761,-28.089
93.81,-198.639,-28.456
93.84,-200.429,-28.547
93.87,-201.552,-29.005
93.91,-203.552,-29.338
93.94,-205.728,-29.452
93.97,-208.08,-29.613
94.01,-209.799,-29.796
94.04,-211.028,-30.22
94.07,-213.344,-30.77
94.1,-215.976,-30.987
94.14,-217.59,-31.148
94.17,-218.889,-31.56
94.2,-220.679,-31.995
94.23,-222.82,-32.373
94.27,-224.855,-32.763
94.3,-226.399,-33.129
94.33,-228.154,-33.611
94.36,-230.4,-34.103
94.4,-232.155,-34.435
94.43,-233.594,-34.974
94.46,-235.313,-35.489
94.49,-237.103,-35.925
94.53,-239.139,-36.394
94.56,-241.315,-36.658
94.59,-242.368,-36.841
94.62,-243.526,-37.505
94.66,-246.404,-37.895
94.69,-248.334,-37.654
94.72,-248.685,-37.998
94.75,-250.053,-38.582
94.79,-252.194,-38.869
94.82,-253.879,-39.144
94.85,-254.756,-39.636
94.88,-256.055,-40.175
94.92,-257.634,-40.472
94.95,-258.757,-40.736
94.98,-259.705,-41.045
95.01,-260.898,-41.435
95.05,-262.231,-41.813
95.08,-263.214,-42.225
95.11,-264.442,-42.626
95.14,-266.092,-42.947
95.18,-267.496,-43.222
95.21,-268.443,-43.634
95.24,-269.356,-44.161
95.27,-270.549,-44.585
95.31,-271.812,-44.86
95.34,-272.795,-45.238
95.37,-273.883,-45.742
95.4,-274.901,-46.086
95.44,-275.533,-46.338
95.47,-275.919,-46.716
95.5,-276.761,-46.968
95.53,-277.393,-47.036
95.57,-277.954,-47.231
95.6,-278.41,-47.575
95.63,-278.831,-47.907
95.67,-279.077,-48.125
95.7,-279.253,-48.365
95.73,-279.814,-48.56
95.76,-280.305,-48.423
95.8,-280.025,-48.411
95.83,-280.165,-48.583
95.86,-280.727,-48.468
95.89,-280.656,-48.285
95.93,-280.481,-48.354
95.96,-280.692,-48.274
95.99,-280.481,-48.125
96.02,-280.025,-47.987
96.06,-279.744,-47.884
96.09,-280.2,-47.747
96.12,-280.025,-47.586
96.15,-279.288,-47.575
96.19,-278.902,-47.575
96.22,-278.972,-47.346
96.25,-278.34,-47.002
96.28,-277.322,-46.807
96.32,-276.62,-46.647
96.35,-276.375,-46.441
96.38,-276.059,-46.154
96.41,-275.146,-45.799
96.45,-273.848,-45.524
96.48,-273.041,-45.227
96.51,-272.163,-44.711
96.54,-270.83,-44.23
96.58,-269.882,-43.909
96.61,-269.601,-43.611
96.64,-269.005,-43.279
96.67,-267.601,-42.981
96.71,-266.092,-42.534
96.74,-264.899,-41.927
96.77,-263.39,-41.24
96.8,-261.53,-40.53
96.84,-259.775,-39.774
96.87,-258.266,-38.983
96.9,-256.581,-38.296
96.93,-254.756,-37.574
96.97,-252.721,-36.944
97.0,-251.352,-36.417
97.03,-249.843,-35.592
97.06,-247.456,-34.836
97.1,-245.702,-34.493
97.13,-244.543,-33.817
97.16,-241.982,-33.026
97.19,-240.157,-32.9
97.23,-239.455,-32.465
97.26,-237.173,-31.697
97.29,-234.05,-31.388
97.33,-232.611,-31.09
97.36,-231.523,-30.369
97.39,-228.961,-29.635
97.42,-226.259,-29.269
97.46,-224.644,-28.902
97.49,-223.381,-28.524
97.52,-221.065,-27.974
97.55,-218.011,-27.631
97.59,-216.537,-27.539
97.62,-215.45,-26.943
97.65,-212.466,-26.394
97.68,-209.869,-26.416
97.72,-208.852,-26.176
97.75,-207.272,-25.638
97.78,-204.64,-25.5
97.81,-202.429,-25.294
97.85,-200.499,-25.099
97.88,-199.13,-25.007
97.91,-197.095,-24.561
97.94,-193.866,-24.469
97.98,-192.111,-24.733
98.01,-191.023,-24.286
98.04,-188.04,-23.828
98.07,-185.513,-23.931
98.11,-184.109,-23.587
98.14,-182.039,-23.037
98.17,-179.126,-22.865
98.2,-176.213,-22.819
98.24,-174.178,-22.762
98.27,-172.774,-22.453
98.3,-170.177,-21.903
98.33,-166.772,-21.754
98.37,-164.597,-21.662
98.4,-162.701,-21.044
98.43,-159.613,-20.414
98.46,-156.384,-20.162
98.5,-154.279,-19.795
98.53,-151.857,-19.165
98.56,-148.523,-18.695
98.59,-145.013,-18.317
98.63,-142.732,-18.054
98.66,-140.556,-17.046
98.69,-136.696,-16.221
98.72,-132.695,-15.854
98.76,-130.203,-15.442
98.79,-127.817,-14.709
98.82,-124.377,-14.045
98.85,-120.833,-13.54
98.89,-117.815,-13.025
98.92,-115.077,-12.406
98.95,-111.638,-11.799
98.99,-108.023,-11.41
99.02,-105.251,-10.929
99.05,-102.548,-10.367
99.08,-99.249,-9.829
99.12,-95.67,-9.336
99.15,-92.16,-8.924
99.18,-89.423,-8.511
99.21,-86.475,-7.847
99.25,-82.614,-7.171
99.28,-78.719,-6.724
99.31,-75.42,-6.255
99.34,-72.472,-5.659
99.38,-69.348,-5.063
99.41,-65.382,-4.513
99.44,-61.241,-4.399
99.47,-58.89,-4.399
99.51,-56.433,-3.849
99.54,-52.432,-3.334
99.57,-48.537,-3.288
99.6,-45.659,-3.047
99.64,-42.676,-2.555
99.67,-38.921,-2.199
99.7,-35.271,-2.165
99.73,-33.376,-2.188
99.77,-30.849,-1.902
99.8,-26.497,-1.615
99.83,-21.303,-0.985
99.86,-17.021,0.137
99.9,-12.634,1.753
99.93,-9.721,3.666
99.96,-3.966,5.567
99.99,8.528,4.261
100.03,13.477,1.856
100.06,13.757,1.707
100.09,14.81,3.059
100.12,21.233,3.482
100.16,26.251,2.497
100.19,24.953,2.52
100.22,23.97,3.987
100.25,28.076,5.556
100.29,34.744,5.854
100.32,37.903,5.59
100.35,38.991,5.968
100.38,42.606,6.644
100.42,48.186,6.828
100.45,51.871,6.747
100.48,53.976,7.148
100.52,57.416,7.881
100.55,62.083,8.317
100.58,65.874,8.454
100.61,68.541,8.786
100.65,71.945,9.21
100.68,75.911,9.439
100.71,78.894,9.577
100.74,81.596,9.726
100.78,84.509,10.195
100.81,88.405,10.425
100.84,90.721,10.642
100.87,92.932,11.364
100.91,96.021,11.914
100.94,99.46,12.326
100.97,102.373,12.67
101.0,105.356,12.991
101.04,109.076,13.105
101.07,112.515,13.392
101.1,115.428,13.621
101.13,117.604,14.079
101.17,120.517,14.652
101.2,123.956,15.041
101.23,126.518,15.213
101.26,128.343,15.717
101.3,131.537,16.427
101.33,135.292,16.576
101.36,138.31,16.931
101.39,140.627,17.332
101.43,142.838,17.836
101.46,145.961,18.432
101.49,149.646,18.81
101.52,152.138,19.131
101.56,153.928,19.898
101.59,157.156,20.677
101.62,160.771,21.113
101.65,163.789,21.514
101.69,166.913,21.834
101.72,169.685,22.006
101.75,171.686,22.453
101.78,174.213,23.037
101.82,176.88,23.484
101.85,179.582,23.942
101.88,182.144,24.377
101.91,184.109,24.859
101.95,186.671,25.363
101.98,189.584,25.683
102.01,191.69,25.878
102.04,193.375,26.21
102.08,195.831,26.669
102.11,198.499,26.886
102.14,200.043,27.012
102.18,201.411,27.528
102.21,203.868,27.963
102.24,206.149,27.963
102.27,207.623,28.135
102.31,209.343,28.57
102.34,211.378,28.857
102.37,213.519,29.086
102.4,215.344,29.418
102.44,217.029,29.67
102.47,218.608,29.945
102.5,220.328,30.288
102.53,222.118,30.506
102.57,223.802,30.644
102.6,225.557,30.953
102.63,227.557,31.148
102.66,229.523,31.423
102.7,232.646,31.755
102.73,234.682,31.686
102.76,235.103,32.053
102.79,236.858,32.832
102.83,239.244,33.129
102.86,240.367,33.427
102.89,241.701,34.057
102.92,243.561,34.332
102.96,245.21,34.71
102.99,246.86,35.226
103.02,247.913,35.478
103.05,249.527,35.948
103.09,251.773,36.383
103.12,253.107,36.532
103.15,253.809,37.07
103.18,255.739,37.757
103.22,257.704,37.987
103.25,258.476,38.33
103.28,259.459,38.892
103.31,261.038,39.224
103.35,262.267,39.487
103.38,263.46,39.842
103.41,264.583,40.163
103.44,265.741,40.576
103.48,267.461,40.999
103.51,268.829,41.309
103.54,269.637,41.79
103.57,270.689,42.328
103.61,271.567,42.821
103.64,272.725,43.336
103.67,274.304,43.657
103.7,275.533,43.966
103.74,276.27,44.344
103.77,276.761,44.7
103.8,277.357,45.02
103.84,277.884,45.261
103.87,278.41,45.444
103.9,279.288,45.57
103.93,280.025,45.765
103.97,280.516,45.948
104.0,280.621,46.166
104.03,280.867,46.303
104.06,281.499,46.578
104.1,281.92,46.441
104.13,281.183,46.361
104.16,281.955,46.922
104.19,283.429,46.796
104.23,282.727,46.624
104.26,281.569,46.899
104.29,282.13,47.036
104.32,282.797,46.773
104.36,281.779,46.487
104.39,280.762,46.521
104.42,281.042,46.487
104.45,281.744,46.257
104.49,281.007,46.086
104.52,279.674,46.212
104.55,279.814,46.235
104.58,280.165,45.879
104.62,278.937,45.582
104.65,277.638,45.524
104.68,277.463,45.364
104.71,277.322,44.952
104.75,276.129,44.551
104.78,274.445,44.253
104.81,273.427,43.898
104.84,273.006,43.302
104.88,271.742,42.603
104.91,269.672,42.088
104.94,268.408,41.744
104.97,267.987,41.24
105.01,267.11,40.53
105.04,265.039,40.026
105.07,263.039,39.877
105.1,262.337,39.556
105.14,261.284,38.937
105.17,259.494,38.514
105.2,257.915,38.262
105.23,256.792,37.792
105.27,255.247,37.242
105.3,253.458,36.864
105.33,251.738,36.314
105.37,249.457,35.684
105.4,247.632,35.363
105.43,246.719,34.813
105.46,244.754,33.954
105.5,242.052,33.645
105.53,240.964,33.485
105.56,240.086,32.9
105.59,238.051,32.316
105.63,235.735,31.938
105.66,233.839,31.652
105.69,232.436,31.365
105.72,230.47,30.861
105.76,227.838,30.403
105.79,225.873,30.151
105.82,224.644,29.67
105.85,222.012,29.005
105.89,218.713,28.891
105.92,217.239,28.845
105.95,216.853,28.009
105.98,214.256,27.321
106.02,210.712,27.436
106.05,208.536,27.47
106.08,207.518,27.367
106.11,206.325,27.001
106.15,203.026,26.359
106.18,199.727,26.428
106.21,198.92,26.508
106.24,197.446,25.615
106.28,193.69,25.385
106.31,191.76,25.798
106.34,190.918,25.282
106.37,188.11,24.859
106.41,185.373,24.95
106.44,183.057,24.607
106.47,180.74,24.309
106.5,178.775,24.114
106.54,175.897,23.621
106.57,172.984,23.644
106.6,172.037,23.427
106.63,169.58,22.567
106.67,165.228,22.556
106.7,162.842,22.567
106.73,161.122,21.914
106.76,158.876,21.582
106.8,155.963,21.261
106.83,153.226,20.975
106.86,151.541,20.677
106.89,148.804,20.242
106.93,145.435,19.933
106.96,142.627,19.635
106.99,139.96,19.177
107.03,136.696,18.569
107.06,133.678,18.283
107.09,130.94,17.825
107.12,127.922,17.229
107.16,124.763,16.794
107.19,121.71,16.301
107.22,118.903,15.74
107.25,115.884,15.133
107.29,112.445,14.583
107.32,109.392,14.216
107.35,106.795,13.781
107.38,103.882,13.128
107.42,99.951,12.704
107.45,96.687,12.464
107.48,93.81,11.799
107.51,90.195,11.078
107.55,86.44,10.619
107.58,83.176,10.092
107.61,80.859,9.164
107.64,77.42,8.397
107.68,72.577,7.996
107.71,68.576,7.618
107.74,66.26,7.091
107.77,63.242,6.22
107.81,57.942,5.602
107.84,54.047,5.602
107.87,52.116,5.121
107.9,48.537,4.365
107.94,43.588,4.227
107.97,39.938,4.365
108.0,37.552,3.861
108.03,34.253,3.586
108.07,30.989,3.677
108.1,28.111,3.586
108.13,24.742,3.15
108.16,20.004,2.463
108.2,16.074,1.741
108.23,13.336,0.298
108.26,11.125,-1.455
108.29,7.756,-3.46
108.33,-3.545,-2.875
108.36,-10.143,-0.47
108.39,-10.985,0.172
108.42,-12.073,-1.237
108.46,-19.759,-1.959
108.49,-27.409,-0.504
108.52,-25.339,-0.321
108.55,-23.795,-2.085
108.59,-29.164,-3.402
108.62,-36.113,-3.196
108.65,-37.657,-2.898
108.69,-37.973,-3.757
108.72,-42.395,-4.697
108.75,-48.642,-4.72
108.78,-51.239,-4.639
108.82,-52.643,-5.464
108.85,-56.714,-6.404
108.88,-62.083,-6.656
108.91,-65.242,-6.782
108.95,-67.453,-7.366
108.98,-71.243,-7.973
109.01,-75.806,-8.088
109.04,-78.543,-8.237
109.08,-80.684,-8.832
109.11,-84.229,-9.416
109.14,-88.264,-9.611
109.17,-90.967,-9.909
109.21,-92.967,-10.516
109.24,-96.056,-11.158
109.27,-100.162,-11.421
109.3,-102.934,-11.559
109.34,-104.794,-12.04
109.37,-107.812,-12.727
109.4,-112.129,-13.071
109.43,-114.832,-13.323
109.47,-116.516,-14.125
109.5,-119.604,-14.846
109.53,-123.57,-15.339
109.56,-126.343,-15.694
109.6,-128.448,-16.278
109.63,-131.537,-16.782
109.66,-135.783,-17.183
109.69,-138.696,-17.126
109.73,-139.89,-17.573
109.76,-142.627,-18.283
109.79,-146.277,-18.65
109.82,-148.663,-18.867
109.86,-150.278,-19.406
109.89,-153.261,-20.185
109.92,-157.367,-20.574
109.95,-159.859,-20.792
109.99,-161.473,-21.594
110.02,-164.456,-22.396
110.05,-167.72,-22.728
110.08,-170.071,-23.14
110.12,-172.212,-23.69
110.15,-174.634,-24.102
110.18,-177.792,-24.629
110.22,-180.846,-25.088
110.25,-182.179,-25.397
110.28,-183.794,-26.313
110.31,-187.759,-26.943
110.35,-190.041,-26.714
110.38,-190.497,-27.344
110.41,-193.304,-28.295
110.44,-196.533,-28.181
110.48,-198.007,-28.536
110.51,-199.973,-29.246
110.54,-201.762,-29.235
110.57,-203.587,-29.578
110.61,-206.535,-29.853
110.64,-208.115,-29.613
110.67,-209.273,-29.956
110.7,-212.537,-30.357
110.74,-214.783,-30.071
110.77,-215.134,-30.495
110.8,-217.555,-31.319
110.83,-220.082,-31.274
110.87,-220.889,-31.56
110.9,-222.539,-32.19
110.93,-224.925,-32.396
110.96,-226.75,-32.717
111.0,-228.365,-33.221
111.03,-229.874,-33.668
111.06,-231.909,-34.241
111.09,-233.699,-34.481
111.13,-234.927,-34.871
111.16,-237.244,-35.524
111.19,-239.665,-35.604
111.22,-239.981,-35.673
111.26,-241.49,-36.726
111.29,-244.824,-37.059
111.32,-245.526,-36.784
111.35,-245.421,-37.643
111.39,-248.228,-38.319
111.42,-250.58,-37.987
111.45,-250.755,-38.445
111.48,-252.335,-39.258
111.52,-254.581,-39.419
111.55,-255.844,-39.739
111.58,-257.037,-40.278
111.61,-258.231,-40.484
111.65,-259.354,-40.759
111.68,-261.143,-41.148
111.71,-262.582,-41.32
111.74,-263.214,-41.675
111.78,-264.197,-42.328
111.81,-265.846,-42.752
111.84,-267.11,-43.038
111.88,-268.198,-43.577
111.91,-269.531,-43.989
111.94,-270.409,-44.39
111.97,-271.391,-44.974
112.01,-272.725,-45.421
112.04,-273.778,-45.799
112.07,-274.655,-46.269
112.1,-275.252,-46.67
112.14,-275.883,-47.059
112.17,-276.726,-47.334
112.2,-277.498,-47.518
112.23,-278.235,-47.724
112.27,-279.007,-48.056
112.3,-279.463,-48.285
112.33,-279.709,-48.457
112.36,-280.095,-48.583
112.4,-280.481,-48.686
112.43,-280.656,-48.686
112.46,-280.656,-48.801
112.49,-281.323,-48.915
112.53,-281.464,-48.789
112.56,-281.464,-49.133
112.59,-281.99,-48.961
112.62,-280.446,-48.491
112.66,-279.884,-48.984
112.69,-281.078,-48.652
112.72,-280.025,-48.056
112.75,-278.867,-48.262
112.79,-279.919,-48.297
112.82,-280.165,-47.701
112.85,-278.165,-47.609
112.88,-277.568,-47.827
112.92,-278.165,-47.426
112.95,-277.603,-46.876
112.98,-276.27,-46.716
113.01,-275.883,-46.532
113.05,-275.603,-46.177
113.08,-274.936,-45.902
113.11,-274.023,-45.627
113.14,-272.935,-45.192
113.18,-271.883,-44.826
113.21,-271.111,-44.299
113.24,-269.672,-43.68
113.27,-268.408,-43.474
113.31,-268.268,-43.176
113.34,-267.355,-42.512
113.37,-265.25,-42.099
113.4,-263.776,-41.79
113.44,-262.688,-41.137
113.47,-261.108,-40.392
113.5,-259.319,-39.785
113.54,-257.774,-39.121
113.57,-256.055,-38.365
113.6,-254.756,-37.861
113.63,-253.458,-37.139
113.67,-251.071,-36.222
113.7,-248.965,-35.867
113.73,-248.474,-35.34
113.76,-246.158,-34.16
113.8,-243.14,-33.943
113.83,-242.648,-33.897
113.86,-241.736,-32.877
113.89,-238.963,-32.545
113.93,-237.314,-32.499
113.96,-235.349,-31.72
113.99,-232.822,-31.354
114.02,-231.769,-31.239
114.06,-230.049,-30.38
114.09,-226.645,-29.853
114.12,-224.96,-29.899
114.15,-224.434,-29.223
114.19,-221.696,-28.559
114.22,-218.608,-28.444
114.25,-216.888,-28.089
114.28,-215.625,-27.665
114.32,-213.87,-27.173
114.35,-210.782,-26.646
114.38,-208.606,-26.84
114.41,-208.115,-26.703
114.45,-205.518,-25.901
114.48,-202.078,-26.073
114.51,-201.131,-26.164
114.54,-199.2,-25.259
114.58,-196.182,-25.282
114.61,-194.814,-25.385
114.64,-192.813,-24.698
114.67,-190.251,-24.824
114.71,-189.233,-24.698
114.74,-186.742,-23.885
114.77,-183.548,-23.942
114.8,-182.144,-23.873
114.84,-179.828,-23.186
114.87,-176.529,-23.243
114.9,-174.774,-23.152
114.93,-172.668,-22.533
114.97,-169.861,-22.292
115.0,-167.264,-22.04
115.03,-164.526,-21.536
115.06,-161.929,-21.273
115.1,-159.648,-20.757
115.13,-157.016,-20.322
115.16,-154.419,-19.933
115.2,-151.471,-19.371
115.23,-148.523,-19.005
115.26,-145.891,-18.524
115.29,-143.364,-18.1
115.33,-140.17,-17.435
115.36,-136.696,-17.034
115.39,-133.888,-16.588
115.42,-131.291,-15.98
115.46,-128.308,-15.328
115.49,-124.763,-14.675
115.52,-121.254,-14.285
115.55,-118.587,-13.804
115.59,-115.709,-13.094
115.62,-112.445,-12.487
115.65,-109.322,-11.948
115.68,-106.374,-11.261
115.72,-102.969,-10.677
115.75,-99.39,-10.218
115.78,-96.126,-9.634
115.81,-92.932,-8.993
115.85,-89.598,-8.42
115.88,-85.913,-7.836
115.91,-82.368,-7.32
115.94,-79.491,-6.793
115.98,-76.402,-6.152
116.01,-72.507,-5.51
116.04,-68.506,-5.189
116.07,-65.558,-4.914
116.11,-62.61,-4.33
116.14,-58.504,-3.872
116.17,-55.064,-3.746
116.2,-52.187,-3.299
116.24,-48.466,-2.898
116.27,-44.781,-2.692
116.3,-41.447,-2.268
116.33,-37.868,-1.753
116.37,-34.464,-1.684
116.4,-31.902,-1.604
116.43,-28.778,-1.398
116.46,-24.918,-1.02
116.5,-19.864,-0.389
116.53,-15.793,0.573
116.56,-11.932,2.142
116.59,-9.862,4.17
116.63,-3.088,5.865
