Trigger_Date,2023/09/08
Trigger_Time,T 08:33:58.829 PDT
Samples_Per_Cycle,512
Microseconds_Per_Sample,32.517
Time (ms),Voltage (V),Current (A)
-16.65,-105.707,-10.379
-16.62,-108.865,-10.78
-16.58,-112.34,-11.1
-16.55,-115.428,-11.57
-16.52,-118.341,-12.2
-16.49,-121.219,-12.739
-16.45,-124.097,-13.162
-16.42,-127.185,-13.701
-16.39,-130.519,-14.297
-16.36,-133.397,-14.709
-16.32,-135.959,-15.156
-16.29,-138.872,-15.637
-16.26,-142.276,-16.175
-16.23,-145.61,-16.714
-16.19,-148.312,-17.126
-16.16,-150.594,-17.538
-16.13,-152.805,-17.997
-16.1,-155.472,-18.421
-16.06,-158.315,-18.821
-16.03,-161.263,-19.463
-16.0,-164.632,-20.391
-15.97,-167.615,-20.872
-15.93,-170.071,-20.998
-15.9,-172.528,-21.342
-15.87,-175.932,-21.96
-15.84,-178.915,-22.281
-15.8,-180.811,-22.888
-15.77,-183.372,-23.782
-15.74,-186.917,-24.469
-15.71,-189.479,-24.71
-15.67,-190.567,-25.168
-15.64,-192.638,-25.638
-15.61,-195.445,-25.706
-15.58,-197.34,-25.878
-15.54,-199.411,-26.428
-15.51,-201.903,-26.817
-15.48,-203.693,-27.104
-15.45,-205.482,-27.585
-15.41,-207.939,-27.883
-15.38,-209.834,-27.963
-15.35,-211.273,-28.307
-15.32,-213.379,-28.673
-15.28,-215.66,-28.937
-15.25,-217.661,-29.383
-15.22,-219.872,-29.865
-15.19,-221.556,-30.231
-15.15,-223.135,-30.598
-15.12,-224.644,-30.689
-15.09,-226.224,-30.941
-15.06,-229.172,-31.514
-15.02,-232.33,-31.869
-14.99,-233.488,-32.534
-14.96,-234.752,-33.553
-14.93,-237.805,-33.805
-14.89,-239.806,-33.725
-14.86,-241.209,-34.183
-14.83,-242.648,-34.401
-14.8,-243.315,-34.435
-14.76,-244.403,-34.733
-14.73,-246.649,-34.939
-14.7,-248.685,-35.008
-14.67,-249.913,-35.432
-14.63,-251.141,-35.89
-14.6,-252.264,-36.028
-14.57,-253.423,-36.188
-14.54,-255.142,-36.509
-14.5,-257.037,-36.864
-14.47,-258.476,-37.334
-14.44,-259.459,-37.941
-14.4,-260.863,-38.456
-14.37,-262.477,-38.617
-14.34,-263.6,-38.834
-14.31,-264.758,-39.258
-14.27,-266.057,-39.59
-14.24,-267.426,-39.877
-14.21,-268.935,-40.278
-14.18,-270.303,-40.793
-14.14,-271.812,-41.423
-14.11,-273.357,-41.996
-14.08,-274.269,-42.58
-14.05,-275.111,-43.038
-14.01,-276.059,-43.382
-13.98,-277.357,-43.554
-13.95,-278.621,-43.795
-13.92,-279.463,-44.253
-13.88,-280.165,-44.734
-13.85,-280.692,-45.123
-13.82,-280.937,-45.444
-13.79,-281.429,-45.547
-13.75,-281.779,-45.421
-13.72,-282.13,-45.479
-13.69,-282.938,-45.696
-13.66,-283.604,-45.765
-13.62,-283.78,-45.948
-13.59,-284.201,-46.086
-13.56,-284.903,-46.189
-13.53,-284.868,-46.074
-13.49,-283.534,-45.857
-13.46,-283.604,-46.384
-13.43,-286.026,-46.464
-13.4,-286.658,-46.269
-13.36,-285.57,-46.59
-13.33,-284.552,-46.624
-13.3,-283.99,-46.292
-13.27,-284.096,-45.811
-13.23,-284.166,-45.456
-13.2,-283.745,-45.33
-13.17,-283.394,-45.295
-13.14,-283.043,-45.158
-13.1,-282.587,-45.02
-13.07,-282.166,-44.906
-13.04,-281.604,-44.608
-13.01,-280.727,-44.184
-12.97,-279.639,-43.749
-12.94,-278.867,-43.394
-12.91,-278.34,-43.05
-12.88,-277.673,-42.775
-12.84,-276.831,-42.477
-12.81,-275.462,-42.076
-12.78,-274.059,-41.584
-12.75,-272.9,-41.022
-12.71,-271.953,-40.45
-12.68,-270.935,-40.014
-12.65,-269.952,-39.705
-12.62,-268.97,-39.327
-12.58,-267.741,-38.937
-12.55,-266.267,-38.617
-12.52,-264.688,-38.181
-12.49,-263.004,-37.586
-12.45,-261.284,-37.047
-12.42,-259.95,-36.578
-12.39,-258.932,-36.119
-12.36,-257.529,-35.673
-12.32,-256.02,-35.283
-12.29,-254.44,-34.745
-12.26,-252.054,-34.126
-12.23,-249.597,-33.633
-12.19,-247.983,-33.095
-12.16,-246.474,-32.385
-12.13,-244.789,-31.927
-12.1,-243.28,-31.537
-12.06,-240.929,-30.964
-12.03,-237.981,-30.414
-12.0,-235.945,-29.853
-11.97,-235.103,-29.189
-11.93,-234.155,-28.673
-11.9,-232.26,-28.49
-11.87,-229.768,-28.295
-11.84,-227.487,-28.009
-11.8,-226.013,-27.768
-11.77,-224.82,-27.631
-11.74,-223.065,-27.516
-11.71,-220.889,-27.321
-11.67,-218.713,-27.115
-11.64,-216.888,-26.817
-11.61,-215.063,-26.485
-11.58,-213.133,-26.245
-11.54,-210.852,-26.073
-11.51,-208.36,-25.798
-11.48,-205.763,-25.351
-11.45,-203.342,-24.939
-11.41,-201.657,-24.492
-11.38,-199.937,-24.034
-11.35,-197.516,-23.839
-11.32,-195.059,-23.793
-11.28,-192.497,-23.53
-11.25,-189.935,-23.163
-11.22,-187.619,-22.797
-11.19,-185.233,-22.373
-11.15,-182.706,-21.926
-11.12,-180.284,-21.525
-11.09,-177.968,-21.342
-11.06,-175.862,-21.181
-11.02,-173.3,-20.792
-10.99,-170.422,-20.379
-10.96,-168.071,-19.841
-10.93,-165.72,-19.165
-10.89,-162.666,-18.638
-10.86,-159.789,-18.26
-10.83,-157.402,-17.813
-10.8,-154.875,-17.412
-10.76,-151.927,-17.149
-10.73,-148.698,-16.863
-10.7,-145.61,-16.336
-10.67,-142.451,-15.419
-10.63,-139.047,-14.652
-10.6,-136.415,-14.251
-10.57,-134.099,-13.701
-10.54,-130.73,-13.162
-10.5,-126.974,-12.842
-10.47,-123.816,-12.372
-10.44,-120.868,-11.685
-10.41,-117.955,-11.192
-10.37,-115.112,-10.837
-10.34,-112.164,-10.459
-10.31,-109.041,-10.104
-10.28,-105.988,-9.726
-10.24,-103.355,-9.199
-10.21,-100.127,-8.637
-10.18,-96.126,-8.202
-10.15,-92.125,-7.675
-10.11,-88.229,-6.713
-10.08,-84.053,-5.842
-10.05,-80.579,-5.35
-10.02,-77.876,-4.834
-9.98,-74.683,-4.479
-9.95,-71.454,-4.502
-9.92,-68.401,-4.261
-9.89,-64.716,-3.757
-9.85,-60.89,-3.471
-9.82,-57.767,-3.127
-9.79,-54.503,-2.658
-9.76,-50.432,-2.406
-9.72,-46.606,-2.291
-9.69,-43.272,-1.844
-9.66,-39.763,-1.226
-9.62,-35.481,-0.699
-9.59,-31.27,-0.378
-9.56,-27.269,0.046
-9.53,-23.479,0.298
-9.49,-20.882,0.55
-9.46,-18.6,1.111
-9.43,-14.81,1.673
-9.4,-9.827,1.982
-9.36,-4.176,2.177
-9.33,1.544,2.051
-9.3,5.756,1.925
-9.27,8.949,1.993
-9.23,11.617,2.154
-9.2,14.073,2.406
-9.17,16.705,2.749
-9.14,20.461,2.784
-9.1,24.11,2.772
-9.07,27.234,3.322
-9.04,30.743,3.826
-9.01,33.902,3.998
-8.97,37.376,4.227
-8.94,41.132,4.513
-8.91,45.027,4.903
-8.88,48.923,5.304
-8.84,52.888,5.739
-8.81,56.924,6.083
-8.78,60.82,6.369
-8.75,64.575,6.69
-8.71,67.909,7.057
-8.68,70.822,7.549
-8.65,74.472,7.847
-8.62,78.578,7.767
-8.58,81.281,8.088
-8.55,84.158,8.592
-8.52,87.352,8.718
-8.49,90.862,8.855
-8.45,94.827,9.119
-8.42,98.021,9.416
-8.39,100.337,9.852
-8.36,103.145,10.115
-8.32,106.058,10.218
-8.29,109.076,10.608
-8.26,112.971,10.94
-8.23,116.376,11.181
-8.19,119.113,11.742
-8.16,121.921,12.315
-8.13,124.869,12.635
-8.1,127.957,12.853
-8.06,131.081,13.254
-8.03,133.994,13.735
-8.0,136.906,14.136
-7.97,139.714,14.48
-7.93,143.539,14.881
-7.9,147.786,15.316
-7.87,150.699,15.751
-7.84,152.138,16.393
-7.8,154.173,16.908
-7.77,157.402,17.08
-7.74,160.806,17.286
-7.71,164.07,17.722
-7.67,166.141,18.249
-7.64,167.79,18.718
-7.61,169.756,19.005
-7.58,172.879,19.119
-7.54,176.213,19.245
-7.51,178.74,19.623
-7.48,180.67,20.162
-7.45,182.846,20.643
-7.41,185.583,21.055
-7.38,188.777,21.399
-7.35,191.62,21.743
-7.32,193.445,22.212
-7.28,195.129,22.648
-7.25,197.375,22.819
-7.22,200.148,22.957
-7.19,202.991,23.358
-7.15,205.202,23.896
-7.12,206.711,24.332
-7.09,208.185,24.607
-7.06,210.361,24.721
-7.02,212.993,24.652
-6.99,214.677,24.87
-6.96,216.994,25.259
-6.93,219.977,25.225
-6.89,222.012,25.351
-6.86,223.978,25.867
-6.83,225.908,26.096
-6.8,227.171,26.29
-6.76,228.645,26.795
-6.73,230.856,27.047
-6.7,232.401,27.173
-6.67,233.875,27.654
-6.63,236.436,28.215
-6.6,238.788,28.433
-6.57,240.121,28.742
-6.54,241.069,28.971
-6.5,242.192,29.109
-6.47,243.982,29.326
-6.44,246.368,29.716
-6.41,248.579,30.162
-6.37,250.053,30.598
-6.34,251.387,31.067
-6.31,253.177,31.388
-6.28,254.826,31.537
-6.24,255.844,31.812
-6.21,257.283,32.202
-6.18,259.178,32.534
-6.15,261.073,32.923
-6.11,262.863,33.485
-6.08,264.302,34.092
-6.05,265.671,34.573
-6.02,266.829,34.802
-5.98,267.882,35.02
-5.95,269.426,35.352
-5.92,271.426,35.524
-5.89,272.655,35.821
-5.85,273.848,36.452
-5.82,275.497,36.864
-5.79,276.55,37.185
-5.76,276.831,37.746
-5.72,277.638,38.227
-5.69,278.621,38.273
-5.66,279.568,38.422
-5.63,280.937,38.628
-5.59,281.955,38.972
-5.56,282.692,39.625
-5.53,283.64,39.945
-5.5,284.131,40.003
-5.46,284.236,40.152
-5.43,284.727,40.049
-5.4,284.973,39.923
-5.37,285.429,40.072
-5.33,286.131,40.232
-5.3,286.517,40.369
-5.27,286.658,40.541
-5.24,286.868,40.656
-5.2,286.903,40.747
-5.17,286.974,40.782
-5.14,287.36,40.919
-5.11,288.132,40.976
-5.07,288.307,41.045
-5.04,288.202,41.343
-5.01,288.342,41.389
-4.98,287.921,41.137
-4.94,286.763,41.034
-4.91,286.482,41.045
-4.88,287.184,40.816
-4.85,287.675,40.667
-4.81,287.219,40.828
-4.78,286.237,40.988
-4.75,285.043,40.782
-4.71,283.92,40.335
-4.68,283.324,39.842
-4.65,282.832,39.407
-4.62,282.236,39.201
-4.58,281.955,38.983
-4.55,281.323,38.662
-4.52,279.709,38.422
-4.49,278.059,38.147
-4.45,276.48,37.494
-4.42,275.287,36.864
-4.39,274.234,36.188
-4.36,272.444,35.581
-4.32,271.146,35.237
-4.29,270.724,34.905
-4.26,269.777,34.401
-4.23,267.671,34.08
-4.19,265.776,33.805
-4.16,264.267,33.175
-4.13,262.723,32.522
-4.1,261.319,32.11
-4.06,260.477,31.743
-4.03,259.073,31.365
-4.0,257.178,31.136
-3.97,255.318,30.701
-3.93,253.493,30.14
-3.9,251.843,29.498
-3.87,250.72,29.063
-3.84,249.983,28.593
-3.8,247.597,28.33
-3.77,244.649,28.112
-3.74,242.192,27.608
-3.71,240.753,27.092
-3.67,239.771,26.68
-3.64,238.402,26.29
-3.61,236.226,25.97
-3.58,233.945,25.844
-3.54,232.295,25.523
-3.51,230.33,25.237
-3.48,228.645,25.145
-3.45,226.855,24.893
-3.41,224.294,24.538
-3.38,221.556,24.274
-3.35,219.415,23.908
-3.32,217.625,23.461
-3.28,215.765,23.163
-3.25,213.905,23.037
-3.22,211.624,22.877
-3.19,209.097,22.682
-3.15,206.5,22.35
-3.12,204.149,22.029
-3.09,202.429,21.64
-3.06,200.429,21.307
-3.02,198.148,21.319
-2.99,196.674,21.25
-2.96,195.059,20.895
-2.93,192.111,20.803
-2.89,189.444,20.7
-2.86,187.233,20.082
-2.83,184.882,19.543
-2.8,182.214,19.303
-2.76,180.109,19.062
-2.73,178.424,18.524
-2.7,175.827,18.191
-2.67,173.019,17.825
-2.63,169.124,17.504
-2.6,165.369,17.458
-2.57,163.368,17.0
-2.54,161.473,16.255
-2.5,158.385,16.187
-2.47,155.156,16.118
-2.44,152.103,15.786
-2.41,149.471,15.557
-2.37,147.119,15.202
-2.34,143.68,14.388
-2.31,139.503,13.884
-2.28,136.731,13.483
-2.24,134.555,12.842
-2.21,131.853,12.441
-2.18,128.624,12.303
-2.15,125.185,12.005
-2.11,121.64,11.478
-2.08,118.657,11.089
-2.05,116.551,10.814
-2.02,113.849,10.367
-1.98,110.023,10.081
-1.95,106.233,9.852
-1.92,103.426,9.451
-1.89,100.899,8.809
-1.85,97.635,8.34
-1.82,94.196,7.881
-1.79,90.195,7.206
-1.76,85.948,6.747
-1.72,82.86,6.461
-1.69,80.403,6.014
-1.66,76.929,5.693
-1.63,72.893,5.544
-1.59,68.787,5.224
-1.56,65.347,4.662
-1.53,61.978,4.101
-1.5,58.609,3.826
-1.46,55.064,3.54
-1.43,51.064,3.334
-1.4,47.168,3.093
-1.37,43.307,2.795
-1.33,39.833,2.543
-1.3,36.253,2.268
-1.27,32.358,2.165
-1.24,28.532,2.016
-1.2,24.777,1.695
-1.17,21.233,1.294
-1.14,18.951,0.664
-1.11,15.863,-0.023
-1.07,11.652,-0.298
-1.04,6.773,-0.527
-1.01,1.018,-0.71
-0.98,-4.106,-0.573
-0.94,-7.651,-0.458
-0.91,-10.458,-0.584
-0.88,-12.74,-0.664
-0.85,-14.705,-0.813
-0.81,-16.881,-1.226
-0.78,-21.022,-1.501
-0.75,-25.655,-1.546
-0.72,-30.077,-1.947
-0.68,-34.464,-2.337
-0.65,-38.043,-2.577
-0.62,-41.167,-2.933
-0.59,-44.957,-3.311
-0.55,-49.168,-3.574
-0.52,-52.959,-3.906
-0.49,-56.258,-4.387
-0.46,-59.627,-4.8
-0.42,-63.101,-5.098
-0.39,-67.172,-5.338
-0.36,-71.138,-5.51
-0.33,-74.121,-5.877
-0.29,-76.788,-6.255
-0.26,-79.701,-6.438
-0.23,-83.105,-6.53
-0.2,-86.826,-6.713
-0.16,-89.879,-7.091
-0.13,-92.651,-7.629
-0.1,-95.67,-7.939
-0.07,-98.758,-8.168
-0.03,-101.881,-8.592
0.0,-104.865,-8.935
0.03,-106.795,-9.439
0.07,-110.234,-9.989
0.1,-115.147,-9.943
0.13,-118.903,-10.173
0.16,-121.78,-10.974
0.2,-124.483,-11.398
0.23,-126.518,-11.421
0.26,-129.15,-11.891
0.29,-132.906,-12.292
0.33,-136.31,-12.59
0.36,-139.117,-13.128
0.39,-141.925,-13.861
0.42,-144.733,-14.423
0.46,-147.33,-14.869
0.49,-150.102,-15.121
0.52,-153.612,-15.602
0.55,-157.472,-15.969
0.59,-160.034,-16.267
0.62,-161.438,-16.84
0.65,-164.175,-17.825
0.68,-168.633,-18.237
0.72,-171.721,-18.352
0.75,-173.616,-18.97
0.78,-176.108,-19.692
0.81,-178.635,-19.83
0.85,-180.319,-19.921
0.88,-182.776,-20.345
0.91,-186.566,-20.941
0.94,-189.97,-21.33
0.98,-191.55,-21.8
1.01,-192.989,-22.304
1.04,-195.937,-22.567
1.07,-199.236,-22.522
1.11,-201.06,-22.682
1.14,-202.605,-23.232
1.17,-204.991,-23.633
1.2,-207.343,-23.667
1.24,-208.571,-23.736
1.27,-209.869,-24.011
1.3,-212.115,-24.057
1.33,-214.291,-23.976
1.37,-216.011,-24.297
1.4,-217.976,-24.859
1.43,-220.293,-25.179
1.46,-222.223,-25.42
1.5,-224.118,-25.809
1.53,-226.083,-25.958
1.56,-227.347,-25.855
1.59,-228.926,-26.29
1.63,-231.699,-26.863
1.66,-234.155,-27.195
1.69,-235.735,-27.711
1.72,-237.595,-28.364
1.76,-239.455,-28.719
1.79,-240.823,-28.983
1.82,-242.578,-29.189
1.85,-244.368,-29.223
1.89,-245.807,-29.475
1.92,-247.421,-29.842
1.95,-249.001,-30.105
1.98,-250.229,-30.437
2.02,-251.773,-30.827
2.05,-254.23,-30.884
2.08,-256.125,-30.873
2.11,-257.353,-31.319
2.15,-258.617,-31.858
2.18,-259.88,-32.259
2.21,-261.319,-32.774
2.24,-263.565,-33.267
2.28,-265.495,-33.53
2.31,-266.338,-33.851
2.34,-266.689,-34.286
2.37,-267.706,-34.607
2.41,-269.496,-34.71
2.44,-271.216,-34.894
2.47,-272.198,-35.386
2.5,-273.357,-36.119
2.54,-275.006,-36.532
2.57,-276.199,-36.761
2.6,-277.182,-37.116
2.63,-278.27,-37.345
2.67,-279.007,-37.563
2.7,-279.919,-38.021
2.73,-281.113,-38.296
2.76,-281.955,-38.571
2.8,-282.762,-38.811
2.83,-283.218,-38.96
2.86,-283.604,-39.098
2.89,-283.92,-39.086
2.93,-284.166,-39.029
2.96,-284.763,-39.155
2.99,-285.71,-39.189
3.02,-285.886,-39.327
3.06,-285.78,-39.648
3.09,-286.131,-39.945
3.12,-286.693,-39.98
3.15,-286.307,-39.613
3.19,-285.394,-39.613
3.22,-286.272,-39.877
3.25,-287.605,-39.567
3.28,-286.974,-39.476
3.32,-286.412,-39.831
3.35,-286.377,-39.819
3.38,-285.851,-39.625
3.41,-285.394,-39.407
3.45,-285.359,-39.27
3.48,-285.675,-39.201
3.51,-285.78,-39.304
3.54,-285.359,-39.373
3.58,-284.341,-39.407
3.61,-283.464,-39.178
3.64,-282.797,-38.674
3.67,-282.271,-38.181
3.71,-281.885,-37.78
3.74,-281.218,-37.494
3.77,-280.27,-37.391
3.8,-279.077,-37.242
3.84,-277.779,-36.933
3.87,-276.55,-36.44
3.9,-275.217,-35.925
3.93,-274.129,-35.421
3.97,-273.392,-34.813
4.0,-272.514,-34.39
4.03,-271.286,-34.241
4.06,-270.268,-33.954
4.1,-268.759,-33.462
4.13,-266.934,-32.981
4.16,-265.355,-32.396
4.19,-263.951,-31.709
4.23,-262.653,-31.136
4.26,-261.319,-30.701
4.29,-259.845,-30.243
4.32,-258.02,-29.853
4.36,-256.265,-29.509
4.39,-254.475,-29.028
4.42,-252.264,-28.513
4.45,-250.369,-28.158
4.49,-249.106,-27.7
4.52,-247.491,-27.184
4.55,-245.0,-26.795
4.58,-242.789,-26.531
4.62,-241.385,-26.084
4.65,-239.946,-25.58
4.68,-238.016,-25.225
4.71,-235.875,-24.904
4.75,-233.839,-24.733
4.78,-232.365,-24.549
4.81,-231.067,-24.297
4.85,-229.453,-24.114
4.88,-227.557,-24.068
4.91,-225.311,-23.793
4.94,-222.574,-23.438
4.98,-220.503,-23.186
5.01,-219.064,-22.911
5.04,-217.731,-22.522
5.07,-215.836,-22.235
5.11,-213.379,-22.075
5.14,-210.922,-21.788
5.17,-208.606,-21.273
5.2,-206.114,-20.735
5.24,-203.763,-20.322
5.27,-201.622,-19.864
5.3,-199.236,-19.589
5.33,-197.06,-19.44
5.37,-194.954,-19.326
5.4,-192.743,-19.394
5.43,-191.129,-19.497
5.46,-189.584,-19.578
5.5,-187.619,-19.704
5.53,-185.513,-19.726
5.56,-183.232,-19.6
5.59,-181.267,-19.658
5.63,-179.898,-19.578
5.66,-177.827,-19.417
5.69,-175.371,-19.578
5.72,-173.055,-19.52
5.76,-169.931,-18.913
5.79,-166.071,-18.249
5.82,-163.087,-17.802
5.85,-161.263,-17.229
5.89,-158.315,-16.462
5.92,-153.717,-15.717
5.95,-149.33,-14.949
5.98,-146.207,-14.067
6.02,-143.68,-13.128
6.05,-140.907,-12.383
6.08,-137.714,-11.937
6.11,-134.45,-11.547
6.15,-131.256,-10.848
6.18,-127.185,-10.081
6.21,-123.079,-9.554
6.24,-120.026,-8.878
6.28,-116.727,-8.065
6.31,-113.393,-7.48
6.34,-110.269,-6.999
6.37,-106.935,-6.667
6.41,-103.426,-6.358
6.44,-99.53,-5.911
6.47,-95.88,-5.338
6.5,-92.616,-4.788
6.54,-89.247,-4.399
6.57,-85.948,-4.101
6.6,-82.298,-3.78
6.63,-78.578,-3.62
6.67,-75.349,-3.265
6.7,-71.664,-2.612
6.73,-67.453,-2.142
6.76,-63.487,-1.879
6.8,-59.908,-1.535
6.83,-56.223,-1.249
6.86,-52.748,-1.134
6.89,-49.66,-0.997
6.93,-46.396,-0.699
6.96,-42.149,-0.378
6.99,-37.727,-0.069
7.02,-34.007,0.378
7.06,-30.357,0.699
7.09,-26.497,0.71
7.12,-23.022,0.664
7.15,-20.25,0.859
7.19,-17.407,1.249
7.22,-13.617,1.627
7.25,-8.914,1.833
7.28,-4.036,1.879
7.32,0.877,1.776
7.35,4.843,1.821
7.38,8.247,2.096
7.41,11.406,2.222
7.45,13.828,2.222
7.48,15.898,2.509
7.51,19.373,2.841
7.54,23.584,2.91
7.58,27.199,3.402
7.61,31.165,4.365
7.64,35.797,4.88
7.67,39.552,4.983
7.71,43.097,5.396
7.74,47.8,5.728
7.77,52.467,5.831
7.8,56.152,6.026
7.84,59.276,6.289
7.87,62.68,6.415
7.9,66.19,6.53
7.93,69.804,6.644
7.97,72.928,6.816
8.0,76.122,6.976
8.03,78.964,6.976
8.06,81.561,7.08
8.1,84.299,6.931
8.13,85.948,6.335
8.16,86.404,5.819
8.19,87.949,5.762
8.23,91.283,5.819
8.26,94.441,5.9
8.29,96.442,6.037
8.32,98.372,6.301
8.36,101.601,6.679
8.39,105.917,7.183
8.42,110.655,7.916
8.45,114.972,8.729
8.49,118.587,9.405
8.52,121.605,9.852
8.55,124.553,10.195
8.58,128.238,10.505
8.62,131.958,10.768
8.65,135.081,11.135
8.68,137.889,11.524
8.71,140.872,11.983
8.75,144.592,12.361
8.78,148.277,12.567
8.81,151.085,12.991
8.84,153.857,13.575
8.88,156.49,13.953
8.91,158.876,14.262
8.94,161.824,14.675
8.97,165.649,14.961
9.01,168.211,15.27
9.04,170.071,15.912
9.07,173.195,16.026
9.1,176.353,15.786
9.14,178.845,16.026
9.17,181.688,16.416
9.2,183.969,16.633
9.23,186.005,17.137
9.27,188.672,17.63
9.3,191.55,17.928
9.33,194.077,18.191
9.36,196.603,18.432
9.4,198.674,18.604
9.43,200.429,18.89
9.46,203.096,19.142
9.49,205.904,19.188
9.53,207.834,19.463
9.56,209.729,19.887
9.59,211.449,19.967
9.62,212.712,20.047
9.66,214.748,20.208
9.69,217.555,20.299
9.72,219.872,20.505
9.76,221.661,21.009
9.79,223.557,21.388
9.82,225.662,21.548
9.85,227.733,21.582
9.89,229.172,21.754
9.92,230.576,22.098
9.95,232.646,22.419
9.98,235.138,22.671
10.02,237.173,23.083
10.05,238.718,23.644
10.08,241.104,23.965
10.11,243.561,23.782
10.15,244.298,23.816
10.18,245.842,24.423
10.21,248.439,24.652
10.24,250.299,24.79
10.28,251.808,25.328
10.31,253.668,25.912
10.34,255.318,26.256
10.37,256.686,26.508
10.41,257.88,26.783
10.44,259.599,27.115
10.47,261.81,27.436
10.5,263.846,27.848
10.54,265.179,28.467
10.57,266.548,29.04
10.6,268.092,29.223
10.63,269.215,29.338
10.67,270.093,29.567
10.7,271.111,29.819
10.73,272.409,29.991
10.76,273.918,30.311
10.8,275.568,30.552
10.83,276.761,30.838
10.86,277.849,31.274
10.89,278.726,31.64
10.93,279.323,32.007
10.96,280.341,32.202
10.99,281.358,32.179
11.02,282.13,32.499
11.06,283.183,33.015
11.09,284.482,33.301
11.12,285.149,33.53
11.15,285.429,33.943
11.19,285.921,34.103
11.22,286.272,34.0
11.25,286.377,33.954
11.28,286.798,34.023
11.32,287.535,34.16
11.35,288.026,34.309
11.38,288.272,34.619
11.41,288.799,34.848
11.45,289.149,34.905
11.48,289.149,34.974
11.51,289.22,35.054
11.54,289.711,35.146
11.58,290.273,35.363
11.61,290.799,35.535
11.64,290.974,35.707
11.67,290.799,35.856
11.71,290.237,35.741
11.74,289.079,35.524
11.77,288.448,35.34
11.8,288.483,35.191
11.84,289.079,35.134
11.87,289.185,35.111
11.9,288.062,35.157
11.93,286.517,35.1
11.97,285.394,34.664
12.0,284.657,34.057
12.03,284.341,33.576
12.06,283.85,33.301
12.1,282.797,33.267
12.13,281.674,33.095
12.16,280.376,32.694
12.19,278.937,32.179
12.23,277.498,31.64
12.26,275.989,31.067
12.29,274.515,30.644
12.32,273.988,30.311
12.36,273.497,29.979
12.39,272.093,29.888
12.42,270.374,29.727
12.45,268.408,29.212
12.49,266.267,28.708
12.52,264.828,28.238
12.55,263.951,27.711
12.58,262.863,27.356
12.62,261.354,27.207
12.65,259.599,27.047
12.68,257.88,26.749
12.71,256.265,26.405
12.75,254.826,25.924
12.78,252.966,25.615
12.81,251.352,25.42
12.84,250.018,25.122
12.88,248.579,24.664
12.91,246.474,24.354
12.94,244.157,24.091
12.97,241.736,23.69
13.01,239.525,23.209
13.04,238.156,22.567
13.07,236.717,22.361
13.1,235.805,22.201
13.14,233.348,21.846
13.17,229.909,21.72
13.2,227.382,21.433
13.23,225.592,20.757
13.27,223.557,20.127
13.3,221.451,19.91
13.33,219.415,19.681
13.36,216.924,19.555
13.4,214.818,19.36
13.43,213.73,19.154
13.46,212.747,18.695
13.49,209.378,18.558
13.53,205.798,18.741
13.56,203.377,18.615
13.59,202.219,18.489
13.62,201.306,18.478
13.66,199.236,18.421
13.69,196.112,18.512
13.72,194.147,18.592
13.75,192.532,18.237
13.79,189.69,17.894
13.82,186.391,17.676
13.85,183.969,17.504
13.88,182.249,17.103
13.92,180.038,16.874
13.95,177.161,16.805
13.98,174.423,16.565
14.01,171.44,15.992
14.05,168.457,15.625
14.08,166.351,15.316
14.11,163.895,14.892
14.14,161.157,14.594
14.18,158.595,14.285
14.21,155.577,14.067
14.24,152.98,13.884
14.27,150.278,13.369
14.31,146.768,12.807
14.34,142.838,12.28
14.37,139.433,11.673
14.4,137.047,11.009
14.44,134.344,10.642
14.47,131.502,10.528
14.5,128.343,10.299
14.54,125.044,9.932
14.57,121.57,9.588
14.6,118.657,9.245
14.63,115.814,8.821
14.67,112.796,8.489
14.7,109.637,8.156
14.73,105.882,7.824
14.76,102.267,7.412
14.8,98.723,6.954
14.83,95.319,6.575
14.86,92.055,6.232
14.89,88.721,5.842
14.93,85.071,5.499
14.96,81.386,5.235
14.99,77.911,4.88
15.02,74.507,4.468
15.06,70.963,4.204
15.09,67.418,3.987
15.12,63.628,3.735
15.15,59.908,3.528
15.19,56.398,3.276
15.22,52.853,3.036
15.25,49.274,2.875
15.28,45.659,2.669
15.32,42.184,2.486
15.35,38.78,2.337
15.38,35.13,2.051
15.41,31.024,1.695
15.45,26.988,1.386
15.48,23.268,1.123
15.51,20.039,0.779
15.54,17.162,0.241
15.58,13.301,-0.183
15.61,8.809,-0.286
15.64,4.071,-0.412
15.67,-0.772,-0.504
15.71,-4.773,-0.596
15.74,-8.493,-0.63
15.77,-11.476,-0.687
15.8,-14.529,-0.974
15.84,-17.688,-1.42
15.87,-21.619,-1.741
15.9,-26.251,-1.707
15.93,-30.147,-1.936
15.97,-33.797,-2.371
16.0,-36.639,-2.772
16.03,-39.728,-2.978
16.06,-43.869,-2.875
16.1,-47.379,-3.001
16.13,-50.607,-3.643
16.16,-54.012,-4.021
16.19,-57.451,-4.113
16.23,-61.171,-4.319
16.26,-65.031,-4.651
16.29,-68.365,-4.972
16.32,-71.313,-5.27
16.36,-74.823,-5.453
16.39,-78.508,-5.579
16.42,-81.807,-5.865
16.45,-84.685,-6.301
16.49,-87.914,-6.541
16.52,-91.212,-6.736
16.55,-94.862,-7.011
16.58,-98.512,-7.263
16.62,-101.53,-7.584
16.65,-104.619,-7.939
16.68,-107.391,-8.214
16.71,-110.304,-8.569
16.75,-113.708,-8.867
16.78,-117.288,-9.164
16.81,-120.517,-9.588
16.84,-123.43,-10.195
16.88,-126.167,-10.493
16.91,-128.554,-10.505
16.94,-131.467,-10.711
16.97,-134.766,-10.974
17.01,-137.643,-11.33
17.04,-139.784,-11.765
17.07,-142.873,-12.2
17.1,-146.803,-12.475
17.14,-150.243,-12.876
17.17,-152.769,-13.38
17.2,-154.805,-13.804
17.23,-157.191,-14.205
17.27,-160.526,-14.606
17.3,-164.07,-15.133
17.33,-167.334,-15.843
17.36,-170.142,-16.45
17.4,-172.528,-16.84
17.43,-174.669,-17.149
17.46,-177.161,-17.412
17.49,-180.144,-17.561
17.53,-183.057,-17.813
17.56,-185.97,-18.352
17.59,-188.707,-18.947
17.62,-190.883,-19.497
17.66,-193.129,-20.104
17.69,-195.937,-20.402
17.72,-198.393,-20.483
17.75,-200.394,-20.723
17.79,-202.324,-21.101
17.82,-204.675,-21.342
17.85,-207.062,-21.479
17.88,-209.273,-21.628
17.92,-210.817,-21.754
17.95,-212.01,-21.903
17.98,-213.554,-21.926
18.01,-215.344,-22.063
18.05,-217.801,-22.43
18.08,-220.784,-22.693
18.11,-223.17,-22.945
18.14,-224.644,-23.312
18.18,-225.522,-23.587
18.21,-226.68,-23.587
18.24,-228.751,-23.564
18.27,-231.628,-23.816
18.31,-234.225,-24.24
18.34,-235.805,-24.881
18.37,-237.314,-25.454
18.4,-238.718,-25.706
18.44,-240.543,-25.981
18.47,-243.491,-26.21
18.5,-246.053,-26.336
18.53,-246.544,-26.485
18.57,-246.474,-26.909
18.6,-247.842,-27.069
18.63,-250.439,-27.241
18.66,-253.528,-27.7
18.7,-255.634,-28.169
18.73,-255.949,-28.536
18.76,-256.09,-28.983
18.79,-258.09,-29.223
18.83,-260.793,-29.361
18.86,-262.863,-29.933
18.89,-264.478,-30.644
18.92,-265.355,-31.056
18.96,-265.916,-31.308
18.99,-267.25,-31.423
19.02,-268.97,-31.457
19.05,-270.549,-31.675
19.09,-271.777,-31.915
19.12,-272.655,-32.396
19.15,-274.023,-33.026
19.18,-275.603,-33.359
19.22,-276.55,-33.565
19.25,-277.287,-33.954
19.28,-278.235,-34.275
19.32,-279.182,-34.401
19.35,-279.99,-34.642
19.38,-280.902,-35.008
19.41,-282.06,-35.295
19.45,-282.973,-35.547
19.48,-283.569,-35.718
19.51,-283.955,-35.982
19.54,-284.587,-36.028
19.58,-284.833,-35.936
19.61,-284.903,-35.982
19.64,-285.921,-36.28
19.67,-286.903,-36.257
19.71,-286.517,-36.268
19.74,-286.903,-36.738
19.77,-288.097,-36.749
19.8,-288.062,-36.612
19.84,-287.289,-36.749
19.87,-287.43,-36.83
19.9,-288.237,-36.761
19.93,-288.518,-36.6
19.97,-288.132,-36.726
20.0,-288.062,-36.784
20.03,-287.675,-36.589
20.06,-286.517,-36.44
20.1,-285.675,-36.417
20.13,-285.886,-36.314
20.16,-286.412,-36.28
20.19,-286.728,-36.417
20.23,-286.061,-36.486
20.26,-284.447,-36.417
20.29,-283.253,-36.177
20.32,-282.727,-35.684
20.36,-282.201,-35.295
20.39,-282.236,-35.065
20.42,-281.639,-34.859
20.45,-280.586,-34.71
20.49,-279.323,-34.412
20.52,-277.919,-33.966
20.55,-276.305,-33.553
20.58,-275.076,-33.072
20.62,-274.129,-32.465
20.65,-273.111,-32.087
20.68,-272.374,-31.846
20.71,-271.391,-31.549
20.75,-269.637,-31.297
20.78,-267.776,-30.999
20.81,-266.057,-30.392
20.84,-264.478,-29.739
20.88,-263.074,-29.235
20.91,-261.845,-28.776
20.94,-260.056,-28.341
20.97,-258.09,-28.02
21.01,-256.511,-27.642
21.04,-255.142,-27.127
21.07,-253.493,-26.588
21.1,-251.668,-26.153
21.14,-249.808,-25.706
21.17,-247.948,-25.282
21.2,-246.017,-24.927
21.23,-244.298,-24.687
21.27,-242.999,-24.538
21.3,-241.771,-24.354
21.33,-239.735,-23.965
21.36,-237.103,-23.805
21.4,-235.243,-23.759
21.43,-234.015,-23.346
21.46,-231.979,-22.98
21.49,-229.733,-22.9
21.53,-228.084,-22.625
21.56,-225.943,-22.109
21.59,-223.486,-21.846
21.62,-221.486,-21.571
21.66,-219.205,-21.113
21.69,-216.537,-20.861
21.72,-214.607,-20.609
21.75,-212.993,-20.15
21.79,-210.677,-19.921
21.82,-208.36,-19.875
21.85,-206.36,-19.52
21.88,-203.798,-19.234
21.92,-201.376,-19.211
21.95,-199.832,-19.085
21.98,-198.428,-19.005
22.01,-197.095,-19.406
22.05,-196.007,-19.749
22.08,-193.726,-19.589
22.11,-190.321,-19.326
22.14,-187.514,-19.085
22.18,-186.04,-18.627
22.21,-184.425,-18.146
22.24,-181.969,-18.065
22.27,-178.951,-17.882
22.31,-175.301,-17.275
22.34,-171.405,-16.462
22.37,-168.246,-15.602
22.4,-165.474,-14.549
22.44,-162.807,-13.873
22.47,-159.999,-13.644
22.5,-157.121,-13.437
22.53,-153.893,-13.197
22.57,-151.155,-13.14
22.6,-148.804,-12.761
22.63,-145.47,-12.177
22.66,-141.75,-11.708
22.7,-138.696,-11.158
22.73,-135.678,-10.379
22.76,-132.484,-9.909
22.79,-129.782,-9.668
22.83,-127.01,-9.382
22.86,-124.097,-9.119
22.89,-121.289,-8.809
22.92,-118.376,-8.42
22.96,-115.182,-8.133
22.99,-111.919,-7.881
23.02,-108.83,-7.458
23.05,-105.461,-7.034
23.09,-102.408,-6.805
23.12,-99.846,-6.438
23.15,-96.687,-6.003
23.18,-93.037,-5.705
23.22,-89.142,-5.315
23.25,-85.352,-4.697
23.28,-81.982,-4.021
23.31,-78.543,-3.494
23.35,-74.893,-3.276
23.38,-71.419,-3.116
23.41,-67.979,-2.83
23.44,-64.435,-2.658
23.48,-61.276,-2.474
23.51,-58.153,-2.154
23.54,-54.433,-1.879
23.57,-50.748,-1.65
23.61,-46.992,-1.294
23.64,-43.202,-0.962
23.67,-39.587,-0.573
23.7,-36.043,-0.103
23.74,-32.077,0.218
23.77,-28.006,0.424
23.8,-23.935,0.642
23.83,-20.355,0.882
23.87,-17.337,1.237
23.9,-13.687,1.512
23.93,-9.651,1.673
23.96,-5.194,1.799
24.0,-0.386,1.821
24.03,3.79,1.776
24.06,7.159,1.947
24.09,10.353,2.188
24.13,13.301,2.314
24.16,16.144,2.669
24.19,20.145,3.07
24.23,24.216,3.036
24.26,26.848,3.379
24.29,29.936,4.319
24.32,34.709,4.662
24.36,39.166,4.445
24.39,42.816,4.811
24.42,47.168,5.522
24.45,51.52,5.728
24.49,54.924,5.808
24.52,58.398,6.049
24.55,62.224,6.197
24.58,65.874,6.289
24.62,68.962,6.484
24.65,71.84,6.656
24.68,74.858,6.644
24.71,78.227,6.782
24.75,81.631,6.839
24.78,84.088,6.976
24.81,86.51,7.194
24.84,89.317,7.217
24.88,92.195,7.091
24.91,95.143,7.263
24.94,98.512,7.664
24.97,101.495,7.996
25.01,104.338,8.385
25.04,108.128,8.786
25.07,112.48,9.038
25.1,116.341,9.52
25.14,119.569,10.321
25.17,122.833,10.894
25.2,125.887,11.192
25.23,128.764,11.501
25.27,132.133,11.902
25.3,135.257,12.063
25.33,137.714,12.521
25.36,140.276,12.899
25.4,142.908,13.22
25.43,146.277,13.941
25.46,150.523,14.606
25.49,154.068,14.686
25.53,155.261,14.732
25.56,157.191,15.19
25.59,160.876,15.27
25.62,164.456,15.396
25.66,167.334,15.9
25.69,169.334,16.381
25.72,171.089,16.645
25.75,173.686,16.805
25.79,177.161,16.908
25.82,179.968,17.103
25.85,182.004,17.619
25.88,184.109,18.203
25.92,186.777,18.592
25.95,189.795,19.016
25.98,193.269,19.406
26.01,195.656,19.681
26.05,196.463,20.276
26.08,198.849,20.643
26.11,202.71,20.299
26.14,205.798,20.173
26.18,207.623,20.689
26.21,208.466,21.044
26.24,208.641,21.204
26.27,210.571,21.227
26.31,213.87,20.952
26.34,216.187,20.975
26.37,217.345,21.456
26.4,218.643,21.857
26.44,220.293,22.063
26.47,222.609,22.373
26.5,225.522,22.556
26.53,227.382,22.705
26.57,228.259,23.175
26.6,230.049,23.564
26.63,232.295,23.587
26.66,234.471,23.85
26.7,236.507,24.228
26.73,238.437,24.824
26.76,240.437,25.397
26.79,242.192,25.718
26.83,243.28,25.706
26.86,244.684,25.935
26.89,247.421,26.176
26.92,249.878,26.371
26.96,250.966,26.886
26.99,252.194,27.528
27.02,254.335,27.906
27.05,256.195,28.272
27.09,258.231,28.673
27.12,259.845,28.96
27.15,260.863,29.349
27.18,262.196,29.716
27.22,264.197,29.91
27.25,265.987,30.117
27.28,267.285,30.529
27.31,268.268,30.896
27.35,268.97,31.193
27.38,270.023,31.445
27.41,271.146,31.72
27.44,272.725,32.007
27.48,274.304,32.293
27.51,275.392,32.58
27.54,276.375,33.003
27.57,277.673,33.336
27.61,278.691,33.622
27.64,279.779,33.908
27.67,280.692,34.126
27.7,281.709,34.481
27.74,282.832,34.813
27.77,283.71,35.169
27.8,284.377,35.466
27.83,284.973,35.615
27.87,285.184,35.787
27.9,285.64,35.844
27.93,286.131,35.913
27.96,287.149,35.844
28.0,287.219,35.764
28.03,287.886,36.486
28.06,289.36,36.452
28.09,289.36,36.589
28.13,289.571,37.116
28.16,289.009,36.921
28.19,288.202,37.001
28.22,289.711,37.425
28.26,291.185,37.173
28.29,290.413,37.231
28.32,289.255,37.62
28.35,288.693,37.551
28.39,288.448,37.036
28.42,288.097,36.658
28.45,288.167,36.532
28.48,288.167,36.497
28.52,287.535,36.532
28.55,286.798,36.452
28.58,286.096,36.142
28.61,285.289,35.821
28.65,284.798,35.547
28.68,284.201,35.203
28.71,283.113,35.008
28.74,282.481,34.951
28.78,282.166,34.664
28.81,281.042,34.332
28.84,279.639,34.0
28.87,277.779,33.542
28.91,276.164,33.038
28.94,275.146,32.419
28.97,274.374,31.927
29.01,273.778,31.629
29.04,273.006,31.342
29.07,271.497,30.999
29.1,269.145,30.621
29.14,267.004,30.105
29.17,265.671,29.338
29.2,264.267,28.753
29.23,262.968,28.41
29.27,261.6,28.009
29.3,259.775,27.619
29.33,258.055,27.321
29.36,256.581,26.863
29.4,254.651,26.359
29.43,252.44,25.981
29.46,250.72,25.603
29.49,249.176,25.145
29.53,247.597,24.721
29.56,245.737,24.446
29.59,243.842,24.354
29.62,242.332,24.297
29.66,240.894,23.942
29.69,238.507,23.427
29.72,235.735,23.094
29.75,233.488,22.762
29.79,231.839,22.27
29.82,230.295,21.914
29.85,228.54,21.743
29.88,226.364,21.502
29.92,223.592,21.25
29.95,221.346,21.067
29.98,219.731,20.803
30.01,218.117,20.62
30.05,216.327,20.574
30.08,214.151,20.517
30.11,211.694,20.437
30.14,209.694,20.322
30.18,207.974,19.921
30.21,205.588,19.532
30.24,202.921,19.371
30.27,200.674,19.245
30.31,198.709,19.131
30.34,197.025,19.062
30.37,195.164,19.005
30.4,193.164,18.856
30.44,190.286,18.65
30.47,187.303,18.547
30.5,185.303,18.26
30.53,183.443,17.859
30.57,181.056,17.699
30.6,178.564,17.607
30.63,175.757,17.332
30.66,172.879,17.057
30.7,170.071,16.576
30.73,167.229,16.061
30.76,164.912,15.786
30.79,162.842,15.534
30.83,160.104,15.305
30.86,156.841,15.167
30.89,153.893,14.949
30.92,151.155,14.583
30.96,148.944,14.388
30.99,146.803,14.09
31.02,143.153,13.609
31.05,138.591,13.197
31.09,135.397,12.693
31.12,133.537,12.063
31.15,131.221,11.536
31.18,127.501,11.204
31.22,123.289,10.711
31.25,119.289,10.069
31.28,116.025,9.497
31.31,113.428,9.061
31.35,111.392,8.603
31.38,108.199,8.156
31.41,103.952,8.133
31.44,100.653,7.87
31.48,97.319,7.171
31.51,93.599,6.736
31.54,90.195,6.472
31.57,87.001,5.945
31.61,83.456,5.51
31.64,80.157,5.327
31.67,76.823,5.04
31.7,73.068,4.766
31.74,69.278,4.502
31.77,65.698,4.113
31.8,62.013,3.723
31.83,58.363,3.402
31.87,54.749,3.15
31.9,51.169,3.024
31.93,47.8,2.887
31.96,44.185,2.681
32.0,40.395,2.383
32.03,36.674,1.913
32.06,32.498,1.569
32.09,28.778,1.34
32.13,25.163,0.985
32.16,21.162,0.848
32.19,18.179,0.653
32.22,15.442,0.115
32.26,11.617,-0.126
32.29,7.686,-0.16
32.32,3.334,-0.321
32.35,-0.772,-0.504
32.39,-4.527,-0.687
32.42,-8.247,-0.756
32.45,-11.792,-0.905
32.48,-15.337,-1.249
32.52,-19.127,-1.73
32.55,-24.04,-1.764
32.58,-27.76,-1.844
32.61,-31.551,-2.337
32.65,-35.376,-2.577
32.68,-38.57,-2.807
32.71,-42.009,-3.299
32.74,-45.94,-3.723
32.78,-49.765,-3.906
32.81,-53.029,-4.135
32.84,-56.258,-4.513
32.87,-59.943,-4.72
32.91,-63.487,-4.892
32.94,-66.751,-5.315
32.97,-70.155,-5.648
33.0,-73.314,-5.682
33.04,-75.841,-5.934
33.07,-79.07,-6.278
33.1,-82.368,-6.369
33.13,-85.141,-6.644
33.17,-88.51,-7.08
33.2,-91.914,-7.446
33.23,-95.073,-7.813
33.26,-98.196,-8.122
33.3,-101.004,-8.351
33.33,-103.882,-8.592
33.36,-106.865,-8.832
33.39,-109.813,-9.13
33.43,-112.656,-9.52
33.46,-115.709,-9.909
33.49,-119.148,-10.425
33.52,-122.447,-10.837
33.56,-125.5,-11.433
33.59,-128.378,-12.109
33.62,-131.677,-12.601
33.65,-134.976,-13.002
33.69,-138.24,-13.666
33.72,-141.785,-14.251
33.75,-144.382,-14.606
33.78,-146.838,-15.179
33.82,-149.646,-15.545
33.85,-152.383,-15.877
33.88,-155.472,-16.187
33.92,-158.279,-16.496
33.95,-160.666,-17.023
33.98,-163.544,-17.687
34.01,-166.632,-18.077
34.05,-169.264,-18.432
34.08,-172.107,-18.81
34.11,-174.809,-19.154
34.14,-177.301,-19.474
34.18,-179.407,-19.875
34.21,-182.214,-20.494
34.24,-185.899,-21.067
34.27,-189.198,-21.559
34.31,-191.023,-22.075
34.34,-192.357,-22.567
34.37,-194.357,-22.762
34.4,-196.779,-22.877
34.44,-199.306,-23.106
34.47,-201.727,-23.312
34.5,-203.622,-23.644
34.53,-205.447,-24.114
34.57,-207.518,-24.389
34.6,-209.238,-24.469
34.63,-210.747,-24.698
34.66,-212.852,-24.962
34.7,-215.063,-25.168
34.73,-217.134,-25.5
34.76,-219.064,-25.981
34.79,-221.03,-26.325
34.83,-223.241,-26.588
34.86,-225.276,-26.783
34.89,-226.399,-26.875
34.92,-227.522,-27.024
34.96,-229.558,-27.264
34.99,-231.944,-27.665
35.02,-234.717,-27.974
35.05,-236.787,-28.215
35.09,-238.297,-28.696
35.12,-239.771,-29.109
35.15,-240.964,-29.361
35.18,-242.438,-29.727
35.22,-244.965,-30.128
35.25,-247.316,-30.346
35.28,-248.615,-30.712
35.31,-249.773,-31.171
35.35,-251.106,-31.445
35.38,-252.861,-31.72
35.41,-254.826,-32.03
35.44,-256.441,-32.362
35.48,-257.564,-32.774
35.51,-258.897,-33.187
35.54,-260.371,-33.599
35.57,-262.091,-34.126
35.61,-264.127,-34.504
35.64,-265.355,-34.779
35.67,-266.267,-35.123
35.7,-267.285,-35.466
35.74,-268.654,-35.776
35.77,-270.338,-36.016
35.8,-271.637,-36.291
35.83,-272.865,-36.795
35.87,-274.304,-37.173
35.9,-275.252,-37.471
35.93,-276.305,-37.803
35.96,-277.252,-38.078
36.0,-278.235,-38.353
36.03,-279.533,-38.605
36.06,-280.516,-38.937
36.09,-281.218,-39.441
36.13,-281.92,-39.842
36.16,-282.376,-40.049
36.19,-282.867,-40.209
36.22,-283.359,-40.312
36.26,-283.99,-40.324
36.29,-284.763,-40.541
36.32,-285.64,-40.724
36.35,-286.237,-40.908
36.39,-286.447,-41.171
36.42,-286.693,-41.481
36.45,-287.254,-41.503
36.48,-286.307,-41.045
36.52,-285.114,-40.954
36.55,-286.026,-40.839
36.58,-287.711,-40.587
36.61,-287.956,-40.782
36.65,-287.114,-41.091
36.68,-285.921,-40.954
36.71,-285.289,-40.713
36.74,-285.464,-40.312
36.78,-285.921,-39.968
36.81,-285.78,-39.9
36.84,-285.57,-40.06
36.87,-285.219,-39.945
36.91,-284.096,-39.797
36.94,-283.183,-39.648
36.97,-282.657,-39.189
37.0,-281.709,-38.651
37.04,-280.937,-38.41
37.07,-280.692,-38.158
37.1,-280.305,-37.895
37.13,-279.463,-37.7
37.17,-278.27,-37.414
37.2,-276.48,-37.013
37.23,-275.146,-36.452
37.26,-274.304,-35.684
37.3,-273.181,-35.18
37.33,-272.128,-35.043
37.36,-271.391,-34.802
37.39,-269.952,-34.424
37.43,-268.443,-34.218
37.46,-267.11,-33.782
37.49,-265.25,-33.095
37.52,-263.284,-32.568
37.56,-262.021,-32.11
37.59,-261.179,-31.514
37.62,-259.669,-31.113
37.65,-258.02,-30.884
37.69,-256.195,-30.586
37.72,-254.3,-30.059
37.75,-252.054,-29.338
37.78,-250.404,-28.96
37.82,-249.913,-28.639
37.85,-248.439,-28.1
37.88,-245.807,-27.883
37.91,-243.736,-27.745
37.95,-242.192,-27.23
37.98,-240.543,-26.634
38.01,-238.507,-26.268
38.04,-236.612,-25.958
38.08,-234.471,-25.546
38.11,-232.506,-25.282
38.14,-231.313,-25.019
38.17,-229.874,-24.733
38.21,-227.943,-24.652
38.24,-225.417,-24.446
38.27,-222.539,-24.034
38.3,-219.942,-23.621
38.34,-218.398,-23.243
38.37,-217.274,-22.774
38.4,-215.45,-22.522
38.43,-213.239,-22.453
38.47,-210.852,-22.258
38.5,-208.255,-21.914
38.53,-205.693,-21.525
38.56,-203.658,-21.158
38.6,-201.938,-20.918
38.63,-200.183,-20.895
38.66,-198.253,-20.929
38.7,-195.796,-20.861
38.73,-193.269,-20.643
38.76,-190.672,-20.345
38.79,-188.005,-19.956
38.83,-185.478,-19.52
38.86,-183.337,-19.028
38.89,-180.951,-18.661
38.92,-178.249,-18.478
38.96,-175.546,-18.157
38.99,-172.353,-17.699
39.02,-169.159,-17.218
39.05,-166.527,-16.725
39.09,-164.211,-16.118
39.12,-161.438,-15.522
39.15,-158.42,-15.156
39.18,-155.823,-14.972
39.22,-153.296,-14.571
39.25,-150.172,-14.193
39.28,-147.049,-13.941
39.31,-144.417,-13.666
39.35,-142.487,-13.483
39.38,-139.89,-12.91
39.41,-136.134,-12.624
39.44,-133.432,-12.578
39.48,-131.256,-11.879
39.51,-127.325,-11.238
39.54,-123.605,-11.192
39.57,-121.324,-10.757
39.61,-118.201,-9.898
39.64,-114.445,-9.451
39.67,-111.708,-9.119
39.7,-109.006,-8.557
39.74,-105.531,-8.191
39.77,-102.197,-7.904
39.8,-98.793,-7.263
39.83,-94.547,-6.656
39.87,-91.107,-6.186
39.9,-88.089,-5.338
39.93,-84.229,-4.743
39.96,-80.544,-4.605
40.0,-77.385,-4.273
40.03,-73.946,-3.769
40.06,-70.085,-3.505
40.09,-66.751,-3.15
40.13,-62.856,-2.658
40.16,-58.925,-2.44
40.19,-55.556,-2.291
40.22,-52.397,-2.016
40.26,-49.203,-1.753
40.29,-46.045,-1.489
40.32,-42.395,-1.146
40.35,-38.429,-0.848
40.39,-34.499,-0.55
40.42,-30.708,-0.126
40.45,-26.672,0.321
40.48,-22.426,0.584
40.52,-18.881,0.848
40.55,-15.863,1.375
40.58,-11.862,1.73
40.61,-7.405,1.799
40.65,-2.773,1.867
40.68,1.755,1.821
40.71,5.194,1.879
40.74,8.282,2.131
40.78,11.441,2.268
40.81,14.529,2.658
40.84,18.776,3.253
40.87,24.146,3.414
40.91,27.515,3.563
40.94,29.164,4.239
40.97,32.077,4.8
41.0,35.973,5.063
41.04,41.132,5.315
41.07,45.589,5.361
41.1,48.396,5.613
41.13,51.379,5.865
41.17,54.959,5.819
41.2,58.012,5.693
41.23,60.715,5.877
41.26,63.768,6.083
41.3,67.313,6.301
41.33,71.313,6.598
41.36,75.174,7.011
41.39,78.859,7.526
41.43,82.158,7.927
41.46,85.352,8.225
41.49,88.861,8.42
41.52,92.09,8.5
41.56,94.792,8.66
41.59,97.389,8.901
41.62,100.407,8.993
41.65,103.25,9.153
41.69,106.549,9.588
41.72,109.988,9.921
41.75,112.936,10.333
41.78,115.99,10.871
41.82,119.254,11.387
41.85,122.588,11.845
41.88,125.957,12.315
41.91,129.221,12.727
41.95,132.028,13.208
41.98,135.117,13.689
42.01,138.731,13.999
42.04,142.241,14.319
42.08,145.294,14.789
42.11,147.926,15.156
42.14,149.471,15.511
42.17,151.892,15.912
42.21,155.331,15.969
42.24,158.455,16.118
42.27,160.876,16.565
42.3,163.263,17.057
42.34,165.86,17.367
42.37,168.422,17.71
42.4,171.159,18.088
42.43,173.756,18.455
42.47,175.967,18.879
42.5,178.494,19.326
42.53,181.758,19.612
42.56,184.811,20.001
42.6,187.373,20.631
42.63,189.479,21.135
42.66,191.374,21.468
42.69,193.585,21.731
42.73,196.217,21.892
42.76,198.639,22.121
42.79,200.955,22.522
42.82,203.201,22.98
42.86,205.518,23.301
42.89,207.588,23.495
42.92,209.378,23.77
42.95,211.343,23.931
42.99,213.133,24.034
43.02,214.888,24.366
43.05,217.134,24.893
43.08,220.152,25.225
43.12,222.855,25.42
43.15,224.785,25.832
43.18,226.048,26.176
43.21,226.75,26.623
43.25,228.575,27.127
43.28,231.909,26.852
43.31,233.769,26.691
43.34,235.313,27.47
43.38,237.805,28.055
43.41,238.928,28.1
43.44,239.525,28.33
43.48,241.315,28.421
43.51,243.105,28.49
43.54,245.0,28.868
43.57,247.035,29.315
43.61,248.685,29.693
43.64,250.053,30.151
43.67,251.738,30.632
43.7,253.493,31.022
43.74,255.107,31.228
43.77,256.371,31.457
43.8,257.845,31.904
43.83,259.88,32.339
43.87,261.845,32.797
43.9,263.425,33.45
43.93,265.074,34.092
43.96,266.373,34.447
44.0,267.18,34.664
44.03,267.776,34.974
44.06,269.286,35.226
44.09,271.111,35.283
44.13,272.374,35.524
44.16,273.532,36.051
44.19,274.76,36.566
44.22,275.638,37.001
44.26,276.55,37.391
44.29,277.884,37.494
44.32,278.586,37.723
44.35,279.288,38.239
44.39,280.376,38.651
44.42,281.499,39.006
44.45,282.411,39.396
44.48,283.113,39.716
44.52,283.464,39.945
44.55,284.026,40.014
44.58,284.517,39.991
44.61,285.008,40.106
44.65,285.78,40.369
44.68,286.588,40.518
44.71,286.903,40.747
44.74,287.079,40.999
44.78,287.219,41.16
44.81,287.535,41.16
44.84,287.886,41.137
44.87,288.377,41.343
44.91,288.763,41.595
44.94,288.728,41.733
44.97,288.518,41.778
45.0,288.167,41.549
45.04,287.184,41.286
45.07,286.588,41.068
45.1,286.552,40.77
45.13,286.693,40.633
45.17,286.833,40.713
45.2,286.623,40.713
45.23,285.535,40.679
45.26,284.447,40.495
45.3,283.604,40.083
45.33,283.148,39.567
45.36,282.622,39.258
45.39,282.376,39.052
45.43,281.92,38.766
45.46,280.446,38.628
45.49,279.042,38.491
45.52,277.673,37.906
45.56,276.305,37.265
45.59,275.182,36.646
45.62,274.023,36.108
45.65,272.725,35.718
45.69,271.812,35.65
45.72,271.111,35.283
45.75,269.11,34.664
45.78,266.969,34.378
45.82,266.057,34.023
45.85,265.215,33.404
45.88,262.828,32.557
45.91,259.88,32.007
45.95,258.511,31.48
45.98,258.476,31.113
46.01,258.09,30.93
46.04,256.265,30.758
46.08,253.142,30.151
46.11,249.773,29.704
46.14,248.86,29.361
46.17,248.369,28.616
46.21,246.579,28.078
46.24,244.368,27.757
46.27,242.122,27.436
46.3,240.086,27.001
46.34,238.191,26.474
46.37,236.191,26.119
46.4,235.208,25.832
46.43,233.91,25.328
46.47,230.891,25.248
46.5,228.329,25.374
46.53,226.54,24.973
46.56,224.539,24.469
46.6,222.679,24.274
46.63,220.889,24.011
46.66,218.503,23.667
46.69,215.976,23.53
46.73,214.291,23.415
46.76,212.852,23.255
46.79,210.922,23.209
46.82,208.887,23.117
46.86,206.535,22.888
46.89,204.079,22.636
46.92,201.903,22.43
46.95,200.359,22.212
46.99,198.428,22.098
47.02,196.288,22.121
47.05,194.041,21.949
47.08,191.129,21.766
47.12,188.602,21.548
47.15,186.601,21.067
47.18,184.215,20.609
47.21,182.039,20.391
47.25,180.46,19.933
47.28,177.687,19.566
47.31,174.178,19.532
47.34,170.914,19.222
47.38,168.387,18.604
47.41,166.597,17.939
47.44,164.281,17.435
47.47,161.508,17.218
47.51,158.209,16.828
47.54,154.77,16.485
47.57,152.769,16.221
47.6,151.225,15.591
47.64,148.277,15.19
47.67,144.522,14.629
47.7,139.819,13.873
47.73,136.275,13.403
47.77,134.731,13.048
47.8,133.151,12.819
47.83,129.958,12.693
47.86,125.676,12.487
47.9,121.921,11.891
47.93,118.903,11.226
47.96,116.376,10.677
47.99,113.252,10.127
48.03,109.357,9.668
48.06,105.356,9.325
48.09,102.092,8.947
48.12,99.39,8.523
48.16,96.687,8.042
48.19,93.143,7.629
48.22,89.352,7.343
48.25,85.843,6.976
48.29,82.544,6.553
48.32,78.999,6.049
48.35,75.385,5.602
48.39,71.91,5.075
48.42,67.839,4.674
48.45,63.838,4.433
48.48,60.645,4.181
48.52,57.661,4.021
48.55,54.608,3.964
48.58,51.064,3.838
48.61,47.098,3.574
48.65,43.132,3.127
48.68,39.096,2.623
48.71,35.411,2.177
48.74,31.866,1.833
48.78,27.936,1.535
48.81,23.689,1.306
48.84,19.934,0.974
48.87,17.056,0.424
48.91,13.757,-0.103
48.94,9.581,-0.183
48.97,5.475,-0.286
49.0,1.263,-0.321
49.04,-1.895,-0.55
49.07,-5.475,-0.825
49.1,-9.511,-1.077
49.13,-13.828,-1.031
49.17,-14.775,-1.741
49.2,-19.618,-2.371
49.23,-25.83,-1.489
49.26,-30.006,-1.42
49.3,-34.639,-1.844
49.33,-37.131,-1.936
49.36,-38.324,-2.245
49.39,-41.447,-2.715
49.43,-45.729,-2.852
49.46,-49.098,-3.356
49.49,-52.678,-3.918
49.52,-55.626,-4.261
49.56,-58.398,-4.743
49.59,-62.364,-5.109
49.62,-66.435,-5.212
49.65,-69.699,-5.567
49.69,-72.893,-6.049
49.72,-76.157,-6.22
49.75,-79.14,-6.369
49.78,-82.193,-6.724
49.82,-85.527,-7.148
49.85,-88.931,-7.526
49.88,-92.336,-7.95
49.91,-95.67,-8.408
49.95,-98.653,-8.867
49.98,-101.39,-9.313
50.01,-104.233,-9.691
50.04,-107.462,-10.092
50.08,-111.357,-10.505
50.11,-114.937,-10.963
50.14,-117.955,-11.536
50.17,-120.973,-12.097
50.21,-123.816,-12.487
50.24,-126.624,-12.887
50.27,-129.431,-13.266
50.3,-132.344,-13.644
50.34,-135.152,-14.056
50.37,-138.31,-14.72
50.4,-141.609,-15.156
50.43,-144.066,-15.706
50.47,-146.663,-16.141
50.5,-149.611,-16.485
50.53,-153.05,-17.126
50.56,-156.525,-17.745
50.6,-158.806,-18.214
50.63,-160.771,-18.925
50.66,-164.281,-19.646
50.69,-168.036,-19.967
50.73,-170.493,-20.471
50.76,-172.668,-21.158
50.79,-175.266,-21.342
50.82,-177.336,-21.456
50.86,-179.828,-22.04
50.89,-183.337,-22.59
50.92,-186.18,-23.037
50.95,-188.11,-23.793
50.99,-190.392,-24.435
51.02,-192.778,-24.572
51.05,-194.498,-24.79
51.08,-197.06,-25.122
51.12,-200.288,-25.145
51.15,-202.605,-25.259
51.18,-204.324,-25.764
51.21,-206.114,-26.142
51.25,-207.834,-26.256
51.28,-209.448,-26.439
51.31,-211.519,-26.657
51.34,-213.87,-26.749
51.38,-215.836,-26.989
51.41,-217.45,-27.379
51.44,-218.924,-27.7
51.47,-220.749,-27.917
51.51,-223.206,-28.146
51.54,-225.066,-28.295
51.57,-225.732,-28.662
51.6,-227.312,-29.235
51.64,-230.049,-29.487
51.67,-232.576,-29.75
51.7,-234.682,-30.3
51.73,-236.401,-30.941
51.77,-237.946,-31.342
51.8,-239.595,-31.549
51.83,-241.174,-31.824
51.86,-243.175,-32.224
51.9,-245.245,-32.534
51.93,-246.614,-32.877
51.96,-247.807,-33.416
51.99,-249.492,-33.874
52.03,-251.212,-34.183
52.06,-252.861,-34.573
52.09,-254.861,-34.745
52.12,-256.3,-34.917
52.16,-257.458,-35.409
52.19,-259.213,-35.879
52.22,-260.968,-36.119
52.25,-262.056,-36.566
52.29,-263.319,-37.093
52.32,-264.653,-37.391
52.35,-266.127,-37.586
52.38,-267.496,-37.861
52.42,-268.443,-38.284
52.45,-269.391,-38.766
52.48,-270.795,-39.224
52.51,-272.339,-39.671
52.55,-273.602,-40.083
52.58,-274.655,-40.301
52.61,-275.146,-40.644
52.64,-276.129,-40.988
52.68,-277.393,-41.068
52.71,-278.375,-41.435
52.74,-279.463,-41.904
52.77,-280.551,-42.26
52.81,-281.183,-42.466
52.84,-281.674,-42.683
52.87,-282.341,-42.786
52.9,-282.622,-42.786
52.94,-282.832,-42.912
52.97,-283.745,-43.142
53.0,-284.692,-43.153
53.03,-284.903,-43.359
53.07,-284.763,-43.783
53.1,-284.903,-44.138
53.13,-285.043,-43.989
53.17,-284.798,-43.886
53.2,-285.114,-43.978
53.23,-285.71,-43.909
53.26,-285.605,-43.921
53.3,-285.535,-44.001
53.33,-284.763,-43.737
53.36,-284.517,-43.772
53.39,-284.552,-43.313
53.43,-284.026,-43.061
53.46,-284.552,-43.187
53.49,-285.5,-43.222
53.52,-284.517,-43.096
53.56,-282.938,-43.485
53.59,-283.008,-43.382
53.62,-282.657,-42.58
53.65,-281.078,-41.962
53.69,-280.2,-41.847
53.72,-280.692,-41.492
53.75,-280.13,-41.068
53.78,-278.902,-41.022
53.82,-277.849,-40.896
53.85,-276.656,-40.461
53.88,-275.357,-39.934
53.91,-274.164,-39.396
53.95,-273.006,-38.846
53.98,-272.339,-38.376
54.01,-271.707,-37.987
54.04,-270.654,-37.723
54.08,-269.25,-37.483
54.11,-267.636,-37.036
54.14,-265.811,-36.337
54.17,-263.986,-35.627
54.21,-262.547,-34.985
54.24,-261.424,-34.47
54.27,-260.406,-34.023
54.3,-258.757,-33.656
54.34,-257.108,-33.45
54.37,-255.458,-32.877
54.4,-253.142,-32.133
54.43,-251.387,-31.789
54.47,-250.229,-31.136
54.5,-248.158,-30.403
54.53,-245.947,-30.231
54.56,-244.965,-30.094
54.6,-243.666,-29.578
54.63,-241.139,-29.143
54.66,-238.437,-28.799
54.69,-236.226,-28.284
54.73,-234.612,-27.78
54.76,-233.383,-27.425
54.79,-231.874,-27.207
54.82,-229.944,-27.058
54.86,-227.838,-26.875
54.89,-225.768,-26.68
54.92,-223.837,-26.233
54.95,-221.486,-25.741
54.99,-219.24,-25.489
55.02,-217.485,-25.237
55.05,-215.555,-24.985
55.08,-213.414,-24.87
55.12,-211.414,-24.744
55.15,-209.483,-24.412
55.18,-206.992,-23.965
55.21,-204.114,-23.644
55.25,-201.587,-23.323
55.28,-199.727,-22.98
55.31,-198.218,-22.751
55.34,-196.709,-22.636
55.38,-194.287,-22.51
55.41,-191.374,-22.327
55.44,-188.461,-22.018
55.47,-185.864,-21.571
55.51,-183.723,-21.147
55.54,-181.828,-20.723
55.57,-179.512,-20.46
55.6,-176.88,-20.345
55.64,-174.178,-20.07
55.67,-171.335,-19.646
55.7,-168.562,-19.268
55.73,-166.141,-18.879
55.77,-163.474,-18.409
55.8,-160.35,-18.031
55.83,-157.613,-17.71
55.86,-155.331,-17.367
55.9,-152.91,-16.977
55.93,-150.032,-16.737
55.96,-146.838,-16.301
55.99,-143.259,-15.717
56.03,-140.346,-15.282
56.06,-137.924,-14.652
56.09,-135.222,-14.136
56.12,-132.449,-13.735
56.16,-129.572,-13.243
56.19,-125.851,-12.727
56.22,-122.202,-12.429
56.25,-119.218,-12.005
56.29,-116.446,-11.444
56.32,-113.708,-10.94
56.35,-110.866,-10.539
56.38,-107.707,-10.058
56.42,-104.022,-9.508
56.45,-100.337,-9.016
56.48,-97.214,-8.34
56.51,-93.88,-7.664
56.55,-90.44,-7.183
56.58,-87.317,-6.713
56.61,-83.772,-6.22
56.64,-80.263,-5.762
56.68,-76.683,-5.27
56.71,-73.244,-4.743
56.74,-69.664,-4.193
56.77,-65.874,-3.746
56.81,-62.224,-3.356
56.84,-58.89,-2.956
56.87,-55.415,-2.532
56.9,-51.66,-2.199
56.94,-47.729,-1.902
56.97,-43.904,-1.581
57.0,-40.184,-1.157
57.03,-36.639,-0.664
57.07,-32.709,-0.332
57.1,-28.708,-0.172
57.13,-24.847,0.069
57.16,-20.917,0.309
57.2,-18.355,0.664
57.23,-15.898,1.272
57.26,-12.213,1.661
57.29,-7.861,1.867
57.33,-2.878,2.039
57.36,1.895,2.131
57.39,5.861,2.268
57.42,9.581,2.325
57.46,12.81,2.44
57.49,16.179,2.83
57.52,20.425,3.082
57.55,24.461,3.104
57.59,26.883,3.528
57.62,29.305,4.239
57.65,32.954,4.422
57.68,36.955,4.399
57.72,41.237,4.731
57.75,45.308,5.052
57.78,48.186,5.396
57.81,51.239,5.865
57.85,55.064,6.037
57.88,58.855,6.186
57.91,62.961,6.472
57.95,66.576,6.701
57.98,69.453,6.976
58.01,72.296,7.286
58.04,75.771,7.503
58.08,79.456,7.675
58.11,82.965,7.927
58.14,85.983,8.214
58.17,88.615,8.511
58.21,91.423,8.786
58.24,94.757,8.947
58.27,97.775,9.268
58.3,100.934,9.68
58.34,103.917,9.943
58.37,106.514,10.344
58.4,109.918,10.837
58.43,113.638,11.261
58.47,116.832,11.822
58.5,120.026,12.441
58.53,123.114,12.842
58.56,126.062,13.243
58.6,129.185,13.609
58.63,132.274,13.918
58.66,135.362,14.342
58.69,138.451,14.766
58.73,141.504,15.328
58.76,145.119,16.049
58.79,149.4,16.989
58.82,153.366,17.768
58.86,155.858,18.501
58.89,158.525,19.28
58.92,162.456,19.91
58.95,166.422,20.414
58.99,169.334,20.998
59.02,171.23,21.617
59.05,173.37,22.052
59.08,176.248,22.109
59.12,179.196,22.04
59.15,181.302,22.27
59.18,183.092,22.968
59.21,186.04,23.312
59.25,188.777,23.278
59.28,190.918,23.621
59.31,193.585,24.057
59.34,195.761,24.125
59.38,197.13,24.274
59.41,198.955,24.572
59.44,201.447,24.847
59.47,204.219,25.168
59.51,206.606,25.477
59.54,208.255,25.775
59.57,210.01,26.027
59.6,211.94,26.016
59.64,213.66,25.97
59.67,215.239,26.187
59.7,217.485,26.6
59.73,220.047,26.886
59.77,221.661,27.241
59.8,223.03,27.734
59.83,224.995,27.997
59.86,226.785,27.894
59.9,228.154,27.986
59.93,229.944,28.284
59.96,232.225,28.605
59.99,234.647,28.902
60.03,236.226,29.269
60.06,237.138,29.819
60.09,238.998,30.197
60.12,241.385,30.048
60.16,242.859,30.059
60.19,244.228,30.621
60.22,246.193,31.216
60.25,248.053,31.686
60.29,250.334,32.247
60.32,252.791,32.809
60.35,254.335,33.29
60.38,254.897,33.668
60.42,255.669,33.931
60.45,257.669,34.206
60.48,260.477,34.607
60.51,263.039,35.1
60.55,263.846,35.661
60.58,264.197,36.257
60.61,265.355,36.566
60.64,266.829,36.704
60.68,268.478,36.898
60.71,269.461,36.875
60.74,269.777,37.139
60.77,271.707,37.906
60.81,274.374,38.239
60.84,275.006,38.559
60.87,275.462,39.384
60.9,276.656,39.705
60.94,277.428,39.671
60.97,278.094,39.842
61.0,278.937,40.152
61.03,279.99,40.45
61.07,281.323,40.702
61.1,282.13,41.08
61.13,282.832,41.561
61.16,283.394,41.744
61.2,283.324,41.973
61.23,283.745,42.099
61.26,284.447,41.973
61.29,285.219,42.007
61.33,286.131,42.237
61.36,286.658,42.42
61.39,286.623,42.752
61.42,286.763,42.935
61.46,287.079,42.89
61.49,284.026,40.976
61.52,272.9,36.635
61.55,261.389,32.683
61.59,262.267,30.254
61.62,271.637,28.123
61.65,274.866,26.909
61.68,269.987,27.997
61.72,266.127,29.441
61.75,266.689,29.613
61.78,270.233,30.14
61.81,275.919,31.846
61.85,279.604,33.737
61.88,278.691,35.753
61.91,276.41,37.62
61.94,276.375,38.514
61.98,277.533,38.571
62.01,278.34,38.788
62.04,278.586,39.212
62.07,277.638,39.579
62.11,276.375,39.831
62.14,275.638,39.9
62.17,275.568,39.774
62.2,275.182,39.625
62.24,274.059,39.441
62.27,272.549,39.247
62.3,271.356,39.018
62.33,270.9,38.823
62.37,270.549,38.697
62.4,269.847,38.594
62.43,268.619,38.342
62.46,266.478,37.964
62.5,264.267,37.528
62.53,262.793,36.979
62.56,262.021,36.555
62.59,261.389,36.326
62.63,259.95,36.154
62.66,257.739,35.982
62.69,255.774,35.695
62.72,254.37,35.169
62.76,252.756,34.55
62.79,251.036,34.149
62.82,249.492,33.908
62.86,248.018,33.611
62.89,246.228,33.267
62.92,244.193,33.015
62.95,242.473,32.66
62.99,240.648,32.133
63.02,238.647,31.697
63.05,236.787,31.308
63.08,235.103,31.01
63.12,233.488,30.712
63.15,231.593,30.38
63.18,229.277,30.071
63.21,227.417,29.91
63.25,226.469,29.395
63.28,224.504,28.65
63.31,221.065,28.49
63.34,218.398,28.49
63.38,216.573,27.974
63.41,214.748,27.608
63.44,213.484,27.447
63.47,211.729,27.207
63.51,208.852,26.966
63.54,205.693,26.646
63.57,203.061,26.222
63.6,201.271,25.878
63.64,199.937,25.592
63.67,198.042,25.408
63.7,195.375,25.397
63.73,192.743,25.317
63.77,190.356,24.904
63.8,187.724,24.412
63.83,185.233,24.16
63.86,183.408,23.908
63.9,181.197,23.541
63.93,178.459,23.312
63.96,176.003,23.129
63.99,173.651,22.785
64.03,171.37,22.292
64.06,168.633,21.777
64.09,165.72,21.216
64.12,162.631,20.609
64.16,160.034,20.093
64.19,157.683,19.532
64.22,154.98,19.062
64.25,151.822,18.741
64.29,148.769,18.306
64.32,145.399,17.63
64.35,141.714,16.966
64.38,138.1,16.359
64.42,135.538,15.706
64.45,133.713,14.743
64.48,130.273,14.205
64.51,126.483,14.274
64.55,123.465,13.907
64.58,119.991,13.3
64.61,116.972,13.094
64.64,115.077,12.819
64.68,112.621,12.418
64.71,109.146,12.292
64.74,105.707,12.131
64.77,102.443,11.547
64.81,99.109,10.871
64.84,95.95,10.264
64.87,92.616,9.577
64.9,88.791,9.027
64.94,85.246,8.603
64.97,82.263,8.156
65.0,79.385,7.767
65.03,76.332,7.412
65.07,72.787,7.045
65.1,68.962,6.656
65.13,65.382,6.117
65.16,61.627,5.613
65.2,58.363,5.178
65.23,55.17,4.617
65.26,50.993,4.296
65.29,47.063,4.124
65.33,43.553,3.54
65.36,39.517,2.852
65.39,35.236,2.577
65.42,31.48,2.188
65.46,27.199,1.753
65.49,23.058,1.592
65.52,19.899,1.306
65.55,17.583,0.676
65.59,14.74,0.023
65.62,10.774,-0.241
65.65,6.212,-0.424
65.68,1.193,-0.653
65.72,-3.194,-0.722
65.75,-7.159,-0.733
65.78,-10.599,-0.836
65.81,-14.073,-1.031
65.85,-17.302,-1.375
65.88,-21.127,-1.81
65.91,-25.865,-1.925
65.94,-29.761,-2.051
65.98,-33.34,-2.474
66.01,-37.131,-2.692
66.04,-40.219,-2.749
66.07,-42.816,-3.265
66.11,-46.431,-3.861
66.14,-50.256,-4.124
66.17,-53.204,-4.502
66.2,-56.433,-5.029
66.24,-60.013,-5.201
66.27,-62.891,-5.464
66.3,-66.26,-5.968
66.33,-70.12,-6.186
66.37,-73.63,-6.404
66.4,-76.999,-6.77
66.43,-80.579,-7.137
66.46,-83.492,-7.503
66.5,-86.089,-7.881
66.53,-89.352,-8.294
66.56,-93.494,-8.718
66.59,-97.214,-9.336
66.63,-99.741,-9.806
66.66,-101.566,-10.081
66.69,-104.443,-10.321
66.72,-108.409,-10.47
66.76,-111.638,-10.791
66.79,-113.533,-11.547
66.82,-116.13,-12.338
66.85,-119.604,-12.635
66.89,-122.939,-12.979
66.92,-126.343,-13.495
66.95,-128.94,-13.987
66.98,-131.081,-14.491
67.02,-133.888,-14.984
67.05,-137.573,-15.373
67.08,-141.679,-15.786
67.11,-145.084,-16.278
67.15,-147.295,-16.828
67.18,-149.33,-17.332
67.21,-152.103,-17.756
67.24,-155.647,-18.111
67.28,-158.56,-18.638
67.31,-161.122,-19.417
67.34,-163.614,-20.116
67.37,-166.0,-20.631
67.41,-168.738,-21.17
67.44,-171.896,-21.64
67.47,-174.704,-22.052
67.5,-177.02,-22.51
67.54,-179.301,-23.129
67.57,-182.214,-23.805
67.6,-185.443,-24.366
67.64,-188.005,-24.973
67.67,-190.321,-25.534
67.7,-192.287,-25.878
67.73,-194.217,-26.142
67.77,-196.603,-26.428
67.8,-199.095,-26.795
67.83,-201.727,-27.287
67.86,-204.149,-27.803
67.9,-205.693,-28.135
67.93,-206.851,-28.387
67.96,-208.746,-28.536
67.99,-211.098,-28.696
68.03,-213.484,-28.948
68.06,-215.344,-29.361
68.09,-217.52,-29.739
68.12,-219.942,-29.853
68.16,-221.872,-30.105
68.19,-223.907,-30.472
68.22,-225.381,-30.632
68.25,-226.54,-30.907
68.29,-228.716,-31.285
68.32,-231.383,-31.663
68.35,-233.208,-32.202
68.38,-235.103,-32.923
68.42,-237.384,-33.301
68.45,-238.753,-33.519
68.48,-239.841,-33.874
68.51,-241.385,-34.126
68.55,-243.14,-34.229
68.58,-244.894,-34.642
68.61,-247.105,-35.191
68.64,-248.755,-35.547
68.68,-249.878,-36.028
68.71,-251.527,-36.452
68.74,-253.072,-36.555
68.77,-254.265,-36.715
68.81,-255.809,-37.093
68.84,-257.529,-37.54
68.87,-259.038,-37.929
68.9,-260.336,-38.388
68.94,-261.705,-38.892
68.97,-263.179,-39.189
69.0,-264.127,-39.419
69.03,-265.25,-39.739
69.07,-266.899,-39.968
69.1,-268.233,-40.163
69.13,-269.461,-40.53
69.16,-270.619,-41.045
69.2,-272.198,-41.526
69.23,-273.216,-41.962
69.26,-273.848,-42.374
69.29,-274.655,-42.683
69.33,-275.638,-42.867
69.36,-276.796,-43.119
69.39,-277.989,-43.394
69.42,-278.972,-43.772
69.46,-279.814,-44.184
69.49,-280.621,-44.596
69.52,-281.218,-44.826
69.55,-281.815,-44.917
69.59,-282.06,-44.826
69.62,-282.201,-44.952
69.65,-282.867,-44.86
69.68,-282.938,-44.791
69.72,-283.85,-45.181
69.75,-284.517,-45.066
69.78,-284.517,-45.33
69.81,-284.587,-45.456
69.85,-284.096,-45.227
69.88,-284.026,-45.421
69.91,-285.289,-45.456
69.94,-285.5,-45.238
69.98,-284.868,-45.456
70.01,-284.833,-45.456
70.04,-284.412,-45.192
70.07,-283.289,-45.112
70.11,-282.973,-44.974
70.14,-283.078,-44.711
70.17,-283.604,-44.688
70.2,-283.675,-44.791
70.24,-283.043,-44.929
70.27,-282.095,-44.894
70.3,-281.393,-44.642
70.33,-280.832,-44.322
70.37,-280.446,-43.978
70.4,-280.13,-43.646
70.43,-279.533,-43.439
70.46,-278.726,-43.199
70.5,-277.779,-42.764
70.53,-276.199,-42.282
70.56,-274.69,-41.778
70.59,-273.392,-41.137
70.63,-272.304,-40.518
70.66,-271.637,-40.049
70.69,-270.97,-39.762
70.72,-269.812,-39.487
70.76,-268.233,-39.224
70.79,-266.724,-38.834
70.82,-265.144,-38.239
70.85,-263.635,-37.563
70.89,-262.372,-36.956
70.92,-261.073,-36.429
70.95,-259.669,-35.97
70.98,-258.055,-35.535
71.02,-256.546,-35.146
71.05,-255.142,-34.584
71.08,-253.072,-33.874
71.11,-250.65,-33.347
71.15,-249.211,-32.877
71.18,-248.369,-32.282
71.21,-246.895,-31.812
71.24,-244.965,-31.514
71.28,-242.824,-31.079
71.31,-240.262,-30.586
71.34,-238.191,-30.014
71.37,-236.542,-29.475
71.41,-235.068,-29.143
71.44,-233.664,-28.879
71.47,-231.664,-28.57
71.5,-229.347,-28.364
71.54,-227.347,-28.146
71.57,-225.522,-27.734
71.6,-223.416,-27.161
71.63,-220.924,-26.714
71.67,-218.678,-26.325
71.7,-216.888,-25.867
71.73,-214.993,-25.42
71.76,-212.958,-25.099
71.8,-210.677,-24.881
71.83,-208.255,-24.607
71.86,-205.518,-24.217
71.89,-202.815,-23.896
71.93,-200.885,-23.587
71.96,-199.341,-23.266
71.99,-197.691,-23.129
72.02,-195.656,-23.071
72.06,-193.094,-22.945
72.09,-190.111,-22.797
72.12,-187.865,-22.464
72.15,-185.864,-21.914
72.19,-183.372,-21.491
72.22,-181.021,-21.17
72.25,-178.635,-20.895
72.28,-176.248,-20.723
72.32,-173.862,-20.425
72.35,-170.844,-19.933
72.38,-167.825,-19.589
72.41,-165.404,-19.142
72.45,-162.842,-18.604
72.48,-159.859,-18.18
72.51,-157.332,-18.065
72.55,-155.121,-17.619
72.58,-151.787,-17.115
72.61,-148.839,-16.977
72.64,-146.277,-16.381
72.68,-142.978,-15.763
72.71,-139.433,-15.144
72.74,-136.24,-14.457
72.77,-133.116,-13.735
72.81,-130.379,-13.334
72.84,-127.852,-12.899
72.87,-124.623,-12.578
72.9,-121.465,-12.303
72.94,-118.306,-11.696
72.97,-114.516,-11.066
73.0,-111.217,-10.711
73.03,-108.865,-10.264
73.07,-106.303,-9.634
73.1,-102.759,-9.187
73.13,-99.495,-8.89
73.16,-96.301,-8.328
73.2,-92.476,-7.618
73.23,-88.721,-7.057
73.26,-85.667,-6.53
73.29,-82.544,-6.014
73.33,-79.07,-5.579
73.36,-75.455,-5.178
73.39,-71.84,-4.777
73.42,-68.611,-4.296
73.46,-65.417,-3.838
73.49,-61.978,-3.505
73.52,-58.469,-3.185
73.55,-54.573,-2.738
73.59,-50.607,-2.303
73.62,-47.168,-1.959
73.65,-43.904,-1.581
73.68,-40.114,-1.18
73.72,-35.587,-0.756
73.75,-31.761,-0.55
73.78,-28.673,-0.218
73.81,-25.479,0.103
73.85,-21.864,0.447
73.88,-18.425,0.825
73.91,-15.302,1.478
73.94,-10.88,1.947
73.98,-5.756,1.993
74.01,-0.807,2.028
74.04,3.615,2.268
74.07,7.721,2.348
74.11,10.95,2.199
74.14,13.406,2.36
74.17,16.565,2.772
74.2,20.776,2.91
74.24,24.251,3.093
74.27,26.918,3.7
74.3,30.042,4.33
74.33,33.797,4.582
74.37,37.622,4.8
74.4,41.342,5.098
74.43,44.887,5.201
74.46,48.045,5.258
74.5,51.274,5.522
74.53,55.029,5.728
74.56,58.153,5.968
74.59,60.995,6.495
74.63,64.751,6.896
74.66,68.576,7.091
74.69,72.191,7.526
74.72,75.981,7.973
74.76,79.561,8.191
74.79,82.579,8.454
74.82,85.843,8.832
74.85,89.528,9.119
74.89,93.248,9.405
74.92,96.301,9.943
74.95,99.355,10.447
74.98,102.162,10.768
75.02,105.251,11.078
75.05,108.304,11.467
75.08,111.252,12.017
75.11,114.902,12.521
75.15,118.797,12.784
75.18,122.026,13.22
75.21,124.869,13.689
75.24,127.045,14.056
75.28,129.361,14.457
75.31,132.765,14.743
75.34,136.099,15.133
75.37,139.328,15.751
75.41,142.416,16.313
75.44,145.54,16.943
75.47,149.12,17.699
75.5,152.629,18.524
75.54,155.998,19.245
75.57,159.016,19.887
75.6,161.859,20.483
75.63,164.632,20.895
75.67,167.299,21.113
75.7,169.791,21.239
75.73,171.896,21.365
75.76,173.792,21.491
75.8,175.652,21.502
75.83,177.301,21.502
75.86,179.196,21.72
75.89,181.969,22.018
75.93,184.601,22.43
75.96,186.952,22.98
75.99,189.163,23.472
76.02,191.479,23.908
76.06,194.077,24.332
76.09,196.709,24.629
76.12,199.411,24.801
76.15,201.973,24.973
76.19,204.008,25.385
76.22,205.904,25.683
76.25,207.307,25.89
76.28,208.992,26.21
76.32,211.449,26.302
76.35,213.133,26.462
76.38,214.642,26.989
76.41,216.853,27.344
76.45,218.468,27.722
76.48,220.679,28.261
76.51,223.311,28.478
76.54,225.101,28.639
76.58,226.575,29.051
76.61,228.294,29.315
76.64,230.084,29.487
76.67,231.839,29.865
76.71,234.225,30.369
76.74,236.366,30.621
76.77,237.595,30.941
76.8,239.034,31.468
76.84,241.245,31.72
76.87,243.21,31.892
76.9,244.965,32.339
76.93,246.579,32.946
76.97,248.158,33.416
77.0,249.773,33.782
77.03,251.352,34.149
77.06,253.247,34.527
77.1,255.388,34.722
77.13,257.178,34.939
77.16,258.371,35.375
77.19,259.81,35.787
77.23,261.459,36.039
77.26,262.828,36.497
77.29,264.302,37.093
77.33,265.565,37.54
77.36,266.408,37.975
77.39,267.671,38.445
77.42,269.426,38.651
77.46,270.374,38.903
77.49,271.146,39.441
77.52,272.76,39.98
77.55,274.409,40.243
77.59,275.006,40.61
77.62,275.919,41.137
77.65,277.217,41.309
77.68,278.235,41.526
77.72,278.972,41.973
77.75,279.99,42.386
77.78,280.902,42.672
77.81,281.674,43.05
77.85,282.376,43.313
77.88,282.973,43.531
77.91,283.429,43.669
77.94,283.815,43.795
77.98,284.201,43.909
78.01,284.692,44.173
78.04,285.184,44.23
78.07,285.359,44.092
78.11,284.587,43.657
78.14,283.464,43.382
78.17,283.008,42.935
78.2,282.762,42.294
78.24,282.306,41.87
78.27,282.832,41.973
78.3,284.587,42.191
78.33,285.114,42.248
78.37,283.885,42.775
78.4,283.64,43.428
78.43,284.868,43.657
78.46,285.675,43.829
78.5,285.921,44.619
78.53,286.237,45.501
78.56,286.272,46.2
78.59,286.377,46.555
78.63,286.166,46.326
78.66,284.833,45.937
78.69,283.113,45.627
78.72,282.13,45.169
78.76,282.025,44.574
78.79,281.569,44.218
78.82,280.06,43.772
78.85,277.638,43.107
78.89,275.533,42.317
78.92,274.515,41.538
78.95,274.164,40.805
78.98,273.251,40.209
79.02,271.532,39.991
79.05,270.093,39.751
79.08,269.005,39.235
79.11,267.671,38.708
79.15,266.583,38.158
79.18,264.899,37.528
79.21,262.688,36.979
79.24,260.933,36.452
79.28,259.389,35.844
79.31,257.95,35.317
79.34,256.581,34.722
79.37,255.002,34.08
79.41,252.826,33.542
79.44,250.966,33.003
79.47,249.527,32.259
79.5,247.772,31.766
79.54,245.947,31.468
79.57,243.842,31.067
79.6,241.736,30.689
79.63,239.981,30.334
79.67,238.156,29.784
79.7,235.664,29.349
79.73,233.91,29.292
79.76,232.751,28.96
79.8,230.716,28.547
79.83,228.329,28.49
79.86,226.891,28.41
79.89,225.276,28.066
79.93,223.065,27.814
79.96,220.784,27.574
79.99,218.678,27.184
80.02,216.608,26.76
80.06,214.677,26.531
80.09,212.817,26.382
80.12,210.922,26.187
80.15,208.887,25.935
80.19,206.641,25.66
80.22,204.395,25.305
80.25,202.324,24.95
80.28,200.429,24.664
80.32,198.112,24.595
80.35,196.217,24.515
80.38,194.112,24.251
80.41,191.655,24.091
80.45,189.198,23.908
80.48,186.636,23.598
80.51,184.039,23.255
80.54,181.512,22.957
80.58,179.337,22.705
80.61,177.371,22.453
80.64,174.915,22.201
80.67,171.931,21.834
80.71,168.773,21.445
80.74,166.0,21.032
80.77,163.684,20.437
80.8,161.052,19.898
80.84,158.455,19.692
80.87,155.963,19.222
80.9,153.05,18.925
80.93,150.243,18.799
80.97,147.716,18.466
81.0,144.136,17.905
81.03,140.627,17.229
81.06,137.889,16.381
81.1,134.941,15.843
81.13,132.449,15.625
81.16,130.133,14.984
81.19,126.308,14.457
81.23,122.552,14.308
81.26,120.026,13.77
81.29,117.674,12.899
81.32,114.34,12.498
81.36,111.217,12.395
81.39,108.304,11.845
81.42,104.724,11.249
81.45,101.32,10.86
81.49,98.196,10.253
81.52,94.476,9.554
81.55,90.686,9.027
81.58,87.177,8.397
81.62,83.878,7.801
81.65,80.579,7.435
81.68,77.315,7.08
81.71,73.595,6.644
81.75,69.734,6.255
81.78,66.225,5.808
81.81,62.785,5.292
81.84,59.135,4.846
81.88,55.415,4.605
81.91,52.011,4.353
81.94,48.712,3.987
81.97,44.887,3.666
82.01,40.956,3.551
82.04,37.868,3.242
82.07,34.779,2.658
82.11,30.603,2.383
82.14,26.813,2.222
82.17,23.233,1.787
82.2,19.618,1.398
82.24,17.232,0.733
82.27,14.038,-0.149
82.3,9.37,-0.527
82.33,4.071,-0.561
82.37,-0.807,-0.779
82.4,-5.826,-0.974
82.43,-10.283,-0.676
82.46,-13.091,-0.619
82.5,-15.372,-0.825
82.53,-17.337,-1.134
82.56,-20.811,-1.34
82.59,-24.883,-1.466
82.63,-29.059,-1.902
82.66,-33.13,-2.325
82.69,-36.499,-2.704
82.72,-39.728,-3.036
82.76,-43.237,-3.368
82.79,-47.238,-3.666
82.82,-51.099,-3.987
82.85,-54.362,-4.433
82.89,-57.591,-4.88
82.92,-61.066,-5.189
82.95,-64.786,-5.453
82.98,-68.541,-5.774
83.02,-71.559,-6.22
83.05,-74.051,-6.736
83.08,-77.069,-7.045
83.11,-80.193,-7.309
83.15,-84.018,-7.721
83.18,-87.843,-8.065
83.21,-90.826,-8.477
83.24,-93.318,-8.993
83.28,-96.161,-9.508
83.31,-99.706,-9.817
83.34,-102.969,-10.218
83.37,-106.409,-10.791
83.41,-109.953,-11.318
83.44,-113.147,-11.845
83.47,-116.025,-12.521
83.5,-119.324,-13.117
83.54,-122.482,-13.552
83.57,-125.009,-14.102
83.6,-127.606,-14.663
83.63,-130.379,-15.018
83.67,-133.327,-15.442
83.7,-136.801,-15.969
83.73,-140.591,-16.53
83.76,-143.399,-17.057
83.8,-145.715,-17.768
83.83,-147.856,-18.077
83.86,-150.172,-18.535
83.89,-153.857,-19.154
83.93,-157.542,-19.704
83.96,-159.402,-20.288
83.99,-161.192,-21.216
84.02,-164.667,-21.766
84.06,-168.106,-21.892
84.09,-170.844,-22.166
84.12,-173.862,-22.728
84.15,-176.915,-23.071
84.19,-178.705,-23.255
84.22,-180.109,-23.828
84.25,-183.267,-24.584
84.28,-187.057,-24.996
84.32,-189.233,-25.259
84.35,-190.356,-25.855
84.38,-192.603,-26.405
84.41,-195.551,-26.577
84.45,-197.446,-26.657
84.48,-198.885,-27.184
84.51,-201.517,-27.768
84.54,-204.5,-27.997
84.58,-205.798,-28.135
84.61,-206.851,-28.616
84.64,-208.887,-28.857
84.67,-211.203,-28.857
84.71,-213.168,-29.143
84.74,-215.555,-29.624
84.77,-217.52,-29.956
84.8,-219.064,-30.38
84.84,-220.995,-30.781
84.87,-223.03,-31.022
84.9,-224.469,-31.136
84.93,-225.908,-31.64
84.97,-228.575,-32.213
85.0,-231.277,-32.373
85.03,-232.401,-32.774
85.06,-233.594,-33.53
85.1,-236.366,-33.771
85.13,-238.472,-33.725
85.16,-239.771,-34.183
85.19,-241.315,-34.573
85.23,-242.824,-34.733
85.26,-244.508,-35.169
85.29,-246.86,-35.627
85.32,-248.579,-35.982
85.36,-249.527,-36.532
85.39,-251.106,-36.921
85.42,-252.475,-37.013
85.45,-253.738,-37.402
85.49,-255.914,-37.849
85.52,-257.95,-38.204
85.55,-259.424,-38.8
85.58,-260.933,-39.453
85.62,-262.337,-39.842
85.65,-263.214,-40.117
85.68,-264.197,-40.438
85.71,-265.46,-40.77
85.75,-266.864,-41.057
85.78,-268.057,-41.377
85.81,-269.566,-41.778
85.84,-271.251,-42.156
85.88,-272.549,-42.592
85.91,-273.357,-43.038
85.94,-274.164,-43.359
85.97,-275.182,-43.462
86.01,-276.024,-43.554
86.04,-276.971,-43.909
86.07,-278.235,-44.23
86.1,-279.007,-44.642
86.14,-279.639,-45.158
86.17,-280.235,-45.41
86.2,-280.516,-45.559
86.23,-280.832,-45.662
86.27,-281.218,-45.616
86.3,-281.885,-45.696
86.33,-282.727,-45.834
86.36,-283.253,-46.005
86.4,-283.569,-46.189
86.43,-283.85,-46.384
86.46,-284.447,-46.59
86.49,-284.131,-46.441
86.53,-283.499,-46.498
86.56,-284.447,-46.727
86.59,-285.71,-46.487
86.62,-285.219,-46.51
86.66,-284.412,-46.853
86.69,-284.377,-46.75
86.72,-284.131,-46.372
86.75,-283.745,-46.063
86.79,-283.78,-45.822
86.82,-283.675,-45.685
86.85,-283.64,-45.719
86.88,-283.324,-45.731
86.92,-282.516,-45.719
86.95,-281.779,-45.57
86.98,-281.218,-45.146
87.02,-280.586,-44.688
87.05,-279.884,-44.356
87.08,-279.112,-44.207
87.11,-278.656,-44.081
87.15,-278.165,-43.783
87.18,-277.042,-43.405
87.21,-275.427,-43.004
87.24,-274.094,-42.328
87.28,-272.76,-41.561
87.31,-271.532,-41.045
87.34,-270.97,-40.679
87.37,-270.654,-40.232
87.41,-269.356,-39.877
87.44,-267.39,-39.693
87.47,-265.495,-39.235
87.5,-263.811,-38.445
87.54,-262.231,-37.792
87.57,-261.319,-37.231
87.6,-259.95,-36.726
87.63,-258.231,-36.326
87.67,-256.476,-35.925
87.7,-254.967,-35.466
87.73,-253.387,-34.939
87.76,-251.457,-34.321
87.8,-249.352,-33.805
87.83,-247.913,-33.347
87.86,-246.825,-32.809
87.89,-245.105,-32.35
87.93,-243.034,-32.121
87.96,-241.455,-31.835
87.99,-239.63,-31.262
88.02,-236.893,-30.758
88.06,-234.822,-30.403
88.09,-233.734,-29.91
88.12,-232.33,-29.475
88.15,-230.576,-29.246
88.19,-228.575,-28.891
88.22,-226.118,-28.456
88.25,-223.521,-28.078
88.28,-221.31,-27.631
88.32,-219.485,-27.092
88.35,-217.661,-26.657
88.38,-215.765,-26.462
88.41,-213.73,-26.142
88.45,-211.519,-25.981
88.48,-209.764,-25.901
88.51,-207.343,-25.42
88.54,-204.465,-25.065
88.58,-202.254,-24.698
88.61,-200.534,-24.366
88.64,-198.814,-24.297
88.67,-197.411,-24.366
88.71,-195.2,-24.206
88.74,-192.076,-24.148
88.77,-189.339,-24.011
88.8,-187.303,-23.53
88.84,-185.127,-23.014
88.87,-182.916,-22.648
88.9,-180.424,-22.292
88.93,-177.792,-22.052
88.97,-175.441,-21.8
89.0,-172.844,-21.41
89.03,-169.65,-20.952
89.06,-166.702,-20.62
89.1,-164.667,-20.024
89.13,-162.386,-19.348
89.16,-159.473,-18.959
89.19,-156.946,-18.867
89.23,-154.489,-18.317
89.26,-150.629,-17.676
89.29,-147.189,-17.424
89.32,-145.049,-16.84
89.36,-142.662,-16.152
89.39,-139.117,-15.614
89.42,-135.397,-15.213
89.45,-132.098,-14.652
89.49,-129.817,-14.09
89.52,-127.676,-13.472
89.55,-124.693,-13.036
89.58,-120.763,-12.704
89.62,-116.692,-12.246
89.65,-113.322,-11.57
89.68,-110.936,-11.02
89.71,-109.146,-10.573
89.75,-106.198,-10.138
89.78,-102.092,-9.817
89.81,-98.091,-9.325
89.84,-94.687,-8.603
89.88,-91.879,-7.859
89.91,-88.966,-7.263
89.94,-85.457,-6.885
89.97,-81.772,-6.507
90.01,-78.227,-5.98
90.04,-74.963,-5.453
90.07,-71.735,-4.949
90.1,-67.839,-4.468
90.14,-63.698,-4.113
90.17,-60.258,-3.666
90.2,-57.17,-3.162
90.23,-53.801,-2.784
90.27,-50.081,-2.486
90.3,-46.326,-2.096
90.33,-42.395,-1.661
90.36,-38.359,-1.386
90.4,-34.85,-1.146
90.43,-31.551,-0.653
90.46,-27.76,-0.229
90.49,-23.654,-0.023
90.53,-20.004,0.229
90.56,-17.372,0.939
90.59,-14.003,1.673
90.62,-9.406,1.913
90.66,-4.387,2.039
90.69,0.912,2.073
90.72,5.264,2.039
90.75,8.774,2.142
90.79,11.792,2.234
90.82,14.459,2.36
90.85,17.126,2.784
90.88,21.233,3.047
90.92,24.918,3.127
90.95,27.199,3.62
90.98,29.971,4.158
91.01,33.621,4.319
91.05,37.798,4.525
91.08,42.395,4.823
91.11,46.01,5.212
91.14,49.484,5.716
91.18,53.31,5.991
91.21,56.644,6.301
91.24,60.083,6.931
91.27,64.61,7.24
91.31,68.33,7.412
91.34,71.313,8.019
91.37,75.104,8.328
91.4,78.192,8.363
91.44,81.21,8.706
91.47,84.72,8.947
91.5,87.808,9.119
91.53,90.616,9.565
91.57,93.845,9.966
91.6,96.968,10.173
91.63,100.162,10.482
91.66,103.426,10.906
91.7,106.479,11.261
91.73,109.041,11.65
91.76,111.813,12.189
91.8,115.323,12.567
91.83,118.727,12.819
91.86,121.921,13.323
91.89,125.114,13.838
91.93,127.571,14.159
91.96,129.922,14.571
91.99,133.186,14.972
92.02,136.591,15.385
92.06,139.433,16.084
92.09,142.627,16.771
92.12,146.558,17.149
92.15,150.348,17.47
92.19,153.226,18.008
92.22,155.507,18.512
92.25,156.77,19.051
92.28,158.736,19.681
92.32,162.772,19.738
92.35,166.211,19.669
92.38,168.562,20.059
92.41,170.352,20.391
92.45,171.545,20.528
92.48,173.511,20.826
92.51,176.88,20.987
92.54,180.144,21.25
92.58,182.635,21.834
92.61,184.531,22.625
92.64,187.163,23.404
92.67,190.356,23.782
92.71,192.813,23.999
92.74,194.357,24.343
92.77,196.674,24.996
92.8,199.762,25.374
92.84,201.762,25.626
92.87,202.745,26.05
92.9,205.096,26.52
92.93,208.325,26.565
92.97,210.255,26.669
93.0,211.133,27.195
93.03,212.958,27.574
93.06,215.239,27.677
93.1,218.257,27.848
93.13,221.346,28.055
93.16,223.276,28.387
93.19,224.294,28.776
93.23,225.346,29.028
93.26,226.891,29.131
93.29,229.031,29.349
93.32,231.523,29.647
93.36,233.453,30.071
93.39,235.173,30.667
93.42,236.823,31.045
93.45,238.612,31.319
93.49,240.367,31.64
93.52,242.332,32.11
93.55,243.877,32.362
93.58,245.0,32.717
93.62,246.544,33.141
93.65,248.755,33.507
93.68,250.58,33.851
93.71,251.913,34.309
93.75,253.212,34.699
93.78,254.51,35.008
93.81,256.406,35.386
93.84,258.511,35.73
93.88,260.161,36.2
93.91,261.179,36.898
93.94,262.407,37.563
93.97,264.197,37.895
94.01,265.601,38.158
94.04,266.829,38.617
94.07,268.022,38.983
94.1,269.11,39.293
94.14,270.479,39.625
94.17,271.953,40.049
94.2,273.392,40.518
94.23,274.339,40.942
94.27,274.971,41.355
94.3,275.778,41.79
94.33,276.901,42.007
94.36,277.884,42.237
94.4,278.761,42.672
94.43,279.955,43.096
94.46,280.797,43.474
94.49,281.464,43.966
94.53,282.166,44.161
94.56,282.552,44.31
94.59,282.867,44.459
94.62,283.289,44.493
94.66,283.815,44.619
94.69,284.587,44.791
94.72,285.114,44.883
94.75,285.219,44.997
94.79,284.938,44.929
94.82,285.043,45.02
94.85,285.289,44.7
94.88,284.903,44.528
94.92,285.114,44.619
94.95,286.061,44.722
94.98,286.903,44.826
95.01,286.623,45.135
95.05,285.851,45.444
95.08,285.64,45.582
95.11,286.201,45.479
95.14,286.342,45.524
95.18,286.412,45.753
95.21,285.956,45.868
95.24,285.184,45.879
95.27,284.306,45.696
95.31,283.429,45.318
95.34,282.727,44.768
95.37,281.709,44.241
95.4,280.867,43.76
95.44,279.919,43.382
95.47,279.112,43.096
95.5,278.165,42.683
95.53,276.656,42.225
95.57,275.111,41.664
95.6,273.848,41.217
95.63,272.76,40.644
95.66,271.426,39.945
95.7,270.128,39.613
95.73,269.672,39.43
95.76,268.759,38.983
95.79,266.513,38.662
95.83,264.583,38.376
95.86,263.284,37.597
95.89,261.6,36.864
95.92,260.547,36.463
95.96,259.494,35.913
95.99,257.494,35.455
96.02,255.739,35.065
96.05,254.195,34.378
96.09,252.089,33.828
96.12,250.439,33.53
96.15,249.106,32.774
96.18,247.07,32.121
96.22,245.07,31.858
96.25,243.806,31.537
96.28,242.473,30.999
96.31,240.472,30.644
96.35,238.121,30.14
96.38,235.489,29.59
96.41,233.945,29.292
96.44,233.102,28.937
96.48,231.488,28.639
96.51,228.856,28.616
96.54,226.996,28.547
96.58,225.276,28.089
96.61,222.784,27.78
96.64,220.714,27.585
96.67,218.784,27.104
96.71,216.397,26.795
96.74,214.467,26.68
96.77,212.888,26.382
96.8,210.782,26.164
96.84,208.43,26.004
96.87,205.939,25.695
96.9,203.271,25.282
96.93,201.025,24.973
96.97,199.306,24.687
97.0,197.446,24.538
97.03,195.866,24.526
97.06,194.392,24.206
97.1,191.093,24.034
97.13,187.619,24.08
97.16,185.408,23.598
97.19,183.408,22.888
97.23,180.846,22.705
97.26,178.81,22.59
97.29,176.529,22.281
97.32,173.967,21.983
97.36,171.124,21.617
97.39,168.527,21.204
97.42,166.141,20.735
97.45,163.509,20.208
97.49,160.771,19.715
97.52,157.928,19.268
97.55,155.156,18.89
97.58,153.261,18.535
97.62,150.453,17.836
97.65,146.347,17.596
97.68,142.838,17.183
97.71,139.749,16.439
97.75,136.871,15.877
97.78,134.52,15.58
97.81,132.098,15.11
97.84,128.519,14.778
97.88,125.641,14.411
97.91,122.939,13.644
97.94,119.675,13.128
97.97,116.551,12.761
98.01,113.007,12.395
98.04,109.778,12.028
98.07,106.97,11.57
98.1,104.057,11.112
98.14,100.723,10.654
98.17,97.249,10.047
98.2,93.494,9.382
98.23,89.633,8.798
98.27,86.089,8.282
98.3,83.246,7.698
98.33,80.087,7.183
98.36,76.508,6.919
98.4,72.752,6.553
98.43,69.032,6.071
98.46,65.558,5.579
98.49,61.943,5.201
98.53,58.469,4.846
98.56,54.959,4.502
98.59,51.344,4.273
98.62,47.729,4.044
98.66,44.115,3.677
98.69,40.43,3.414
98.72,36.955,3.196
98.75,33.34,2.761
98.79,29.269,2.36
98.82,25.549,2.051
98.85,21.97,1.707
98.88,18.916,1.249
98.92,16.495,0.424
98.95,12.88,-0.263
98.98,8.282,-0.435
99.01,3.264,-0.596
99.05,-1.614,-0.997
99.08,-6.598,-1.134
99.11,-10.704,-0.928
99.14,-14.073,-0.985
99.18,-17.021,-1.34
99.21,-20.531,-1.535
99.24,-24.321,-1.478
99.27,-27.234,-1.764
99.31,-30.603,-2.108
99.34,-33.727,-2.371
99.37,-37.201,-2.635
99.4,-40.886,-2.887
99.44,-44.115,-3.334
99.47,-47.589,-3.895
99.5,-51.344,-4.25
99.53,-54.678,-4.651
99.57,-58.609,-5.075
99.6,-62.399,-5.327
99.63,-65.488,-5.774
99.66,-68.33,-6.415
99.7,-71.559,-6.793
99.73,-75.349,-7.011
99.76,-79.491,-7.251
99.79,-82.965,-7.618
99.83,-85.316,-8.214
99.86,-87.633,-8.729
99.89,-90.686,-9.05
99.92,-94.371,-9.394
99.96,-98.302,-9.852
99.99,-101.32,-10.367
100.02,-103.706,-10.963
100.05,-106.479,-11.456
100.09,-110.41,-11.719
100.12,-114.2,-11.971
100.15,-117.148,-12.635
100.18,-119.745,-13.346
100.22,-122.412,-13.792
100.25,-125.114,-14.125
100.28,-128.203,-14.675
100.31,-131.502,-15.11
100.35,-133.818,-15.625
100.38,-136.31,-16.313
100.41,-139.854,-16.817
100.44,-143.434,-17.264
100.48,-146.487,-17.859
100.51,-148.453,-18.306
100.54,-150.137,-18.856
100.57,-153.366,-19.44
100.61,-157.402,-19.795
100.64,-160.28,-20.185
100.67,-162.28,-21.078
100.7,-165.053,-21.811
100.74,-167.896,-22.178
100.77,-170.668,-22.613
100.8,-173.37,-23.163
100.83,-175.932,-23.541
100.87,-177.792,-23.942
100.9,-180.319,-24.629
100.93,-183.653,-25.202
100.96,-186.601,-25.683
101.0,-188.602,-26.336
101.03,-190.672,-26.898
101.06,-192.638,-27.104
101.09,-194.989,-27.333
101.13,-198.358,-27.39
101.16,-201.06,-27.551
101.19,-202.78,-28.146
101.22,-204.465,-28.685
101.26,-205.974,-28.811
101.29,-207.518,-29.097
101.32,-210.396,-29.509
101.35,-212.888,-29.567
101.39,-213.87,-29.75
101.42,-215.414,-30.334
101.45,-218.292,-30.781
101.49,-220.784,-30.884
101.52,-221.696,-31.182
101.55,-222.609,-31.617
101.58,-224.083,-31.697
101.62,-226.294,-31.972
101.65,-229.488,-32.316
101.68,-231.664,-32.591
101.71,-231.979,-33.141
101.75,-232.822,-33.908
101.78,-235.629,-34.206
101.81,-238.297,-34.275
101.84,-240.157,-34.745
101.88,-241.49,-35.386
101.91,-242.543,-35.913
101.94,-244.228,-36.348
101.97,-246.544,-36.784
102.01,-249.036,-37.288
102.04,-250.755,-37.792
102.07,-251.598,-38.262
102.1,-252.791,-38.502
102.14,-254.651,-38.571
102.17,-256.651,-38.731
102.2,-258.336,-39.144
102.23,-259.669,-39.625
102.27,-260.793,-40.026
102.3,-261.775,-40.404
102.33,-262.863,-40.736
102.36,-264.197,-40.999
102.4,-265.565,-41.251
102.43,-266.829,-41.572
102.46,-267.952,-41.985
102.49,-269.391,-42.408
102.53,-270.724,-42.912
102.56,-272.058,-43.439
102.59,-273.532,-43.703
102.62,-274.129,-43.943
102.66,-274.866,-44.367
102.69,-275.883,-44.539
102.72,-276.901,-44.848
102.75,-278.024,-45.215
102.79,-279.077,-45.524
102.82,-279.814,-45.879
102.85,-280.446,-46.166
102.88,-280.902,-46.349
102.92,-281.183,-46.487
102.95,-281.604,-46.418
102.98,-282.201,-46.475
103.01,-282.692,-46.67
103.05,-283.394,-46.842
103.08,-283.85,-46.991
103.11,-284.236,-47.415
103.14,-284.798,-47.644
103.18,-284.201,-47.334
103.21,-283.078,-47.369
103.24,-284.377,-47.644
103.27,-285.991,-47.288
103.31,-285.254,-47.277
103.34,-284.377,-47.689
103.37,-284.377,-47.518
103.4,-283.99,-47.025
103.44,-283.464,-46.762
103.47,-283.534,-46.636
103.5,-283.815,-46.441
103.53,-283.71,-46.475
103.57,-283.359,-46.532
103.6,-282.552,-46.452
103.63,-281.464,-46.212
103.66,-280.516,-45.822
103.7,-279.99,-45.353
103.73,-279.428,-44.929
103.76,-279.147,-44.631
103.79,-278.726,-44.367
103.83,-277.673,-44.127
103.86,-276.234,-43.795
103.89,-274.585,-43.279
103.92,-273.251,-42.603
103.96,-272.269,-41.893
103.99,-271.216,-41.343
104.02,-270.549,-40.988
104.05,-269.531,-40.69
104.09,-268.373,-40.346
104.12,-267.004,-39.877
104.15,-265.355,-39.315
104.18,-263.53,-38.64
104.22,-261.81,-37.964
104.25,-260.371,-37.334
104.28,-259.283,-36.818
104.31,-257.774,-36.406
104.35,-256.125,-36.028
104.38,-254.37,-35.592
104.41,-252.545,-35.02
104.44,-250.79,-34.355
104.48,-249.141,-33.794
104.51,-247.702,-33.359
104.54,-246.263,-32.958
104.57,-244.333,-32.488
104.61,-242.052,-32.144
104.64,-240.402,-31.835
104.67,-238.612,-31.274
104.7,-236.226,-30.712
104.74,-234.261,-30.288
104.77,-232.716,-29.807
104.8,-230.856,-29.269
104.83,-228.505,-28.879
104.87,-226.364,-28.627
104.9,-224.539,-28.238
104.93,-222.504,-27.768
104.96,-220.187,-27.459
105.0,-218.152,-27.207
105.03,-216.432,-26.795
105.06,-214.502,-26.474
105.09,-212.396,-26.382
105.13,-210.677,-26.21
105.16,-208.641,-25.855
105.19,-206.079,-25.649
105.22,-203.938,-25.374
105.26,-201.868,-24.95
105.29,-199.727,-24.584
105.32,-197.797,-24.343
105.35,-195.937,-24.102
105.39,-193.726,-23.896
105.42,-191.199,-23.736
105.45,-188.426,-23.415
105.48,-185.794,-23.083
105.52,-183.723,-22.716
105.55,-181.512,-22.327
105.58,-179.021,-22.121
105.61,-176.74,-22.018
105.65,-174.599,-21.788
105.68,-172.177,-21.491
105.71,-169.475,-21.147
105.74,-166.772,-20.792
105.78,-164.211,-20.391
105.81,-161.684,-20.082
105.84,-159.438,-19.715
105.87,-156.735,-19.337
105.91,-153.822,-19.096
105.94,-151.015,-18.73
105.97,-147.786,-18.008
106.0,-143.785,-17.195
106.04,-140.662,-16.565
106.07,-138.17,-15.832
106.1,-135.573,-15.167
106.13,-132.309,-14.617
106.17,-128.905,-14.251
106.2,-125.887,-13.689
106.23,-122.552,-13.117
106.27,-119.569,-12.624
106.3,-116.972,-12.051
106.33,-113.779,-11.547
106.36,-110.129,-11.364
106.4,-107.391,-11.02
106.43,-104.549,-10.413
106.46,-101.425,-9.921
106.49,-98.337,-9.428
106.53,-94.862,-8.763
106.56,-90.897,-8.065
106.59,-87.071,-7.538
106.62,-83.878,-6.999
106.66,-81.035,-6.369
106.69,-77.876,-5.831
106.72,-74.402,-5.464
106.75,-70.647,-5.006
106.79,-66.576,-4.525
106.82,-63.031,-4.078
106.85,-60.048,-3.551
106.88,-56.96,-3.093
106.92,-53.169,-2.852
106.95,-49.239,-2.566
106.98,-45.589,-2.085
107.01,-41.974,-1.695
107.05,-38.429,-1.398
107.08,-34.92,-0.962
107.11,-30.849,-0.584
107.14,-26.637,-0.367
107.18,-22.882,-0.034
107.21,-19.478,0.481
107.24,-16.705,1.168
107.27,-13.091,1.718
107.31,-8.493,1.913
107.34,-3.334,2.085
107.37,1.79,2.154
107.4,5.861,2.222
107.44,9.441,2.314
107.47,12.564,2.36
107.5,15.266,2.612
107.53,18.916,2.887
107.57,22.917,2.944
107.6,25.83,3.379
107.63,28.673,4.204
107.66,32.358,4.685
107.7,36.394,4.96
107.73,40.605,5.522
107.76,44.606,6.083
107.79,48.116,6.495
107.83,52.011,6.713
107.86,56.012,6.793
107.89,59.311,6.976
107.92,62.75,7.354
107.96,66.365,7.664
107.99,69.453,7.962
108.02,72.542,8.191
108.05,75.63,8.305
108.09,79.245,8.385
108.12,82.439,8.569
108.15,85.352,8.901
108.18,88.335,9.256
108.22,91.599,9.508
108.25,94.897,9.794
108.28,97.916,10.15
108.31,100.688,10.505
108.35,103.391,10.814
108.38,106.163,11.146
108.41,109.427,11.456
108.44,112.866,11.811
108.48,116.13,12.315
108.51,118.973,12.945
108.54,121.815,13.414
108.57,124.728,13.735
108.61,127.676,14.033
108.64,130.975,14.342
108.67,133.607,14.789
108.7,136.169,15.408
108.74,139.047,15.9
108.77,141.925,16.267
108.8,145.329,16.737
108.83,148.628,17.16
108.87,151.471,17.859
108.9,153.893,18.352
108.93,156.033,18.787
108.96,158.876,19.371
109.0,162.982,19.841
109.03,166.176,20.082
109.06,167.931,20.746
109.09,170.247,21.33
109.13,173.476,21.388
109.16,176.564,21.307
109.19,179.056,21.731
109.22,181.618,22.338
109.26,183.864,22.762
109.29,185.233,23.381
109.32,187.935,24.045
109.35,191.69,24.08
109.39,194.006,24.228
109.42,195.445,24.87
109.45,197.06,25.248
109.48,199.095,25.397
109.52,202.008,25.695
109.55,205.026,26.061
109.58,207.132,26.428
109.61,208.009,26.817
109.65,208.992,27.115
109.68,211.028,27.23
109.71,213.765,27.39
109.74,216.292,27.814
109.78,218.327,28.284
109.81,219.696,28.65
109.84,221.205,29.051
109.87,223.276,29.338
109.91,225.241,29.475
109.94,226.75,29.842
109.97,228.54,30.369
110.0,230.927,30.678
110.04,232.927,30.953
110.07,234.296,31.64
110.1,236.577,32.11
110.13,239.42,31.938
110.17,240.753,31.915
110.2,241.806,32.454
110.23,243.631,32.969
110.26,245.456,33.233
110.3,247.246,33.576
110.33,248.755,34.092
110.36,250.58,34.699
110.39,252.405,35.1
110.43,253.598,35.524
110.46,255.037,36.016
110.49,256.827,36.452
110.52,258.722,36.898
110.56,260.266,37.334
110.59,261.74,37.815
110.62,263.39,38.388
110.65,264.864,38.834
110.69,265.671,39.075
110.72,266.408,39.407
110.75,268.198,39.705
110.78,269.707,39.877
110.82,270.374,40.369
110.85,271.637,41.034
110.88,273.567,41.435
110.91,274.62,41.607
110.95,275.041,42.065
110.98,276.094,42.454
111.01,277.112,42.58
111.04,277.673,42.981
111.08,278.831,43.428
111.11,280.06,43.646
111.14,280.867,43.943
111.18,281.253,44.333
111.21,281.569,44.665
111.24,282.201,44.688
111.27,282.552,44.654
111.31,282.832,44.814
111.34,283.85,45.112
111.37,284.587,45.169
111.4,284.201,45.295
111.44,284.517,45.65
111.47,285.008,45.524
111.5,285.289,45.662
111.53,285.886,45.57
111.57,285.991,45.627
111.6,286.482,45.971
111.63,287.009,46.051
111.66,286.798,46.212
111.7,286.482,46.326
111.73,285.991,46.189
111.76,285.289,45.948
111.79,285.114,45.765
111.83,285.429,45.65
111.86,285.71,45.753
111.89,285.745,45.948
111.92,284.657,45.994
111.96,283.359,45.902
111.99,282.622,45.547
112.02,282.271,45.158
112.05,281.534,44.493
112.09,279.99,44.081
112.12,279.288,43.932
112.15,279.674,43.669
112.18,280.446,43.634
112.22,281.007,44.173
112.25,280.516,44.814
112.28,278.481,45.169
112.31,276.656,45.307
112.35,276.726,45.032
112.38,276.656,44.482
112.41,275.287,44.253
112.44,273.216,43.898
112.48,270.76,43.073
112.51,268.619,42.076
112.54,267.18,41.194
112.57,266.022,40.266
112.61,264.337,39.407
112.64,261.88,38.777
112.67,259.74,38.055
112.7,257.494,37.082
112.74,254.967,36.177
112.77,252.966,35.295
112.8,251.001,34.367
112.83,248.965,33.633
112.87,247.105,33.095
112.9,245.737,32.637
112.93,244.438,32.385
112.96,242.999,32.076
113.0,240.508,31.583
113.03,237.595,31.182
113.06,235.77,30.724
113.09,234.541,30.243
113.13,233.173,29.945
113.16,231.067,29.762
113.19,228.751,29.487
113.22,226.399,29.063
113.26,224.118,28.559
113.29,221.872,28.032
113.32,219.696,27.631
113.35,217.941,27.287
113.39,216.081,26.863
113.42,213.835,26.6
113.45,211.624,26.462
113.48,209.203,26.199
113.52,206.57,25.809
113.55,204.149,25.466
113.58,202.85,25.133
113.61,201.341,24.847
113.65,199.06,24.904
113.68,196.744,25.042
113.71,194.603,25.007
113.74,192.357,24.71
113.78,189.9,24.297
113.81,187.303,23.908
113.84,184.882,23.656
113.87,182.565,23.266
113.91,180.144,22.854
113.94,177.792,22.716
113.97,175.757,22.556
114.0,173.09,22.075
114.04,169.405,21.811
114.07,167.439,21.525
114.1,165.685,20.883
114.13,162.491,20.483
114.17,159.227,20.391
114.2,157.121,20.036
114.23,154.875,19.578
114.26,152.032,19.188
114.3,149.014,18.558
114.33,145.575,18.031
114.36,142.522,17.733
114.39,139.574,17.069
114.43,136.134,16.301
114.46,132.87,15.866
114.49,130.554,15.408
114.52,127.431,14.72
114.56,123.114,14.251
114.59,119.675,13.873
114.62,116.621,12.887
114.65,110.164,10.631
114.69,100.056,8.133
114.72,92.967,6.553
114.75,92.511,5.579
114.78,93.178,4.949
114.82,90.721,5.464
114.85,86.44,6.152
114.88,82.123,6.369
114.91,80.087,6.61
114.95,80.473,6.828
114.98,79.877,6.908
115.01,76.718,7.194
115.04,72.858,7.469
115.08,69.594,7.354
115.11,67.207,7.125
115.14,65.382,6.828
115.17,62.68,6.575
115.21,58.995,6.415
115.24,55.135,6.117
115.27,51.73,5.59
115.3,48.642,4.937
115.34,44.887,4.468
115.37,40.851,3.964
115.4,35.973,3.311
115.43,31.094,2.807
115.47,27.234,2.268
115.5,23.619,1.799
115.53,20.215,1.535
115.56,18.214,1.065
115.6,16.074,0.309
115.63,12.81,-0.08
115.66,8.739,-0.298
115.69,4.527,-0.733
115.73,-0.246,-0.985
115.76,-4.808,-0.848
115.79,-8.774,-0.768
115.82,-12.073,-0.905
115.86,-15.231,-1.26
115.89,-19.864,-1.363
115.92,-23.9,-1.432
115.96,-28.076,-1.776
115.99,-32.112,-2.085
116.02,-35.551,-2.509
116.05,-38.815,-3.07
116.09,-42.746,-3.448
116.12,-46.326,-3.712
116.15,-49.695,-4.296
116.18,-53.625,-4.685
116.22,-56.854,-4.743
116.25,-59.416,-4.983
116.28,-62.469,-5.304
116.31,-65.909,-5.396
116.35,-69.243,-5.579
116.38,-72.296,-5.945
116.41,-74.858,-6.404
116.44,-77.701,-6.77
116.48,-80.965,-7.057
116.51,-84.72,-7.503
