Trigger_Date,2023/06/15
Trigger_Time,T 16:27:02.384 PDT
Samples_Per_Cycle,512
Microseconds_Per_Sample,32.560
Time (ms),Voltage (V),Current (A)
-16.67,-2.527,-0.218
-16.64,-6.317,-0.332
-16.61,-9.756,-0.447
-16.57,-13.091,-0.768
-16.54,-16.354,-1.157
-16.51,-19.478,-1.546
-16.48,-22.25,-2.039
-16.44,-25.269,-2.555
-16.41,-29.41,-3.047
-16.38,-34.534,-3.334
-16.35,-39.061,-3.563
-16.31,-42.921,-3.792
-16.28,-46.431,-4.044
-16.25,-49.519,-4.273
-16.21,-52.748,-4.468
-16.18,-55.942,-4.777
-16.15,-58.609,-4.823
-16.12,-61.066,-5.029
-16.08,-64.154,-5.51
-16.05,-67.664,-5.785
-16.02,-70.857,-5.945
-15.99,-73.911,-6.289
-15.95,-77.139,-6.644
-15.92,-80.719,-6.931
-15.89,-84.509,-7.297
-15.86,-88.229,-7.584
-15.82,-91.739,-7.801
-15.79,-95.073,-8.145
-15.76,-98.582,-8.477
-15.73,-101.987,-8.66
-15.69,-105.145,-8.878
-15.66,-108.234,-9.153
-15.63,-111.568,-9.462
-15.6,-114.972,-9.737
-15.56,-118.446,-10.035
-15.53,-121.71,-10.299
-15.5,-124.834,-10.516
-15.47,-127.606,-10.665
-15.43,-130.695,-11.066
-15.4,-133.958,-11.284
-15.37,-137.363,-11.547
-15.34,-140.627,-11.856
-15.3,-144.101,-12.109
-15.27,-147.54,-12.418
-15.24,-150.629,-12.67
-15.21,-152.489,-12.521
-15.17,-154.208,-12.75
-15.14,-157.121,-13.3
-15.11,-160.806,-13.552
-15.08,-163.965,-13.632
-15.04,-166.492,-13.907
-15.01,-169.229,-14.285
-14.98,-172.002,-14.4
-14.95,-174.318,-14.491
-14.91,-176.599,-14.743
-14.88,-178.915,-14.949
-14.85,-181.548,-15.156
-14.81,-184.706,-15.545
-14.78,-188.11,-15.877
-14.75,-191.269,-16.026
-14.72,-193.655,-16.141
-14.68,-195.515,-16.29
-14.65,-197.375,-16.416
-14.62,-199.446,-16.462
-14.59,-201.341,-16.622
-14.55,-203.517,-16.885
-14.52,-205.798,-17.046
-14.49,-207.623,-17.172
-14.46,-209.273,-17.275
-14.42,-210.712,-17.367
-14.39,-212.08,-17.481
-14.36,-213.484,-17.71
-14.33,-215.45,-18.008
-14.29,-218.047,-18.272
-14.26,-220.679,-18.489
-14.23,-222.96,-18.753
-14.2,-224.75,-18.867
-14.16,-226.118,-18.913
-14.13,-227.803,-19.073
-14.1,-229.979,-19.222
-14.07,-232.225,-19.394
-14.03,-233.875,-19.463
-14.0,-235.84,-19.681
-13.97,-238.472,-20.104
-13.94,-240.929,-20.082
-13.9,-242.087,-19.887
-13.87,-242.894,-20.024
-13.84,-244.614,-20.253
-13.81,-246.86,-20.322
-13.77,-248.579,-20.46
-13.74,-250.51,-20.735
-13.71,-252.931,-20.883
-13.68,-255.142,-20.975
-13.64,-256.511,-20.941
-13.61,-257.353,-20.872
-13.58,-258.897,-21.124
-13.54,-261.494,-21.261
-13.51,-263.46,-21.307
-13.48,-264.758,-21.376
-13.45,-266.162,-21.468
-13.41,-267.32,-21.376
-13.38,-267.812,-21.273
-13.35,-268.408,-21.33
-13.32,-269.637,-21.433
-13.28,-271.146,-21.536
-13.25,-272.865,-21.777
-13.22,-274.76,-21.869
-13.19,-276.164,-21.926
-13.15,-277.428,-21.903
-13.12,-278.27,-21.903
-13.09,-279.218,-21.914
-13.06,-280.095,-21.823
-13.02,-281.078,-21.914
-12.99,-282.552,-22.04
-12.96,-284.026,-22.086
-12.93,-285.359,-22.247
-12.89,-286.693,-22.189
-12.86,-287.36,-22.086
-12.83,-287.675,-22.063
-12.8,-287.991,-21.949
-12.76,-288.272,-21.892
-12.73,-289.325,-21.995
-12.7,-290.343,-21.96
-12.67,-290.694,-21.96
-12.63,-290.904,-22.063
-12.6,-292.273,-22.224
-12.57,-293.185,-22.109
-12.54,-292.905,-21.811
-12.5,-292.799,-22.04
-12.47,-294.203,-22.155
-12.44,-294.905,-21.834
-12.41,-294.133,-21.766
-12.37,-293.677,-21.834
-12.34,-293.501,-21.662
-12.31,-292.87,-21.388
-12.28,-291.817,-21.342
-12.24,-291.501,-21.456
-12.21,-291.957,-21.605
-12.18,-292.448,-21.708
-12.14,-292.308,-21.651
-12.11,-291.22,-21.479
-12.08,-289.641,-21.193
-12.05,-287.746,-20.918
-12.01,-285.886,-20.757
-11.98,-284.412,-20.746
-11.95,-283.604,-20.792
-11.92,-282.832,-20.883
-11.88,-281.744,-20.849
-11.85,-279.99,-20.7
-11.82,-277.568,-20.574
-11.79,-275.497,-20.437
-11.75,-273.708,-20.311
-11.72,-272.339,-20.345
-11.69,-271.391,-20.54
-11.66,-270.83,-20.586
-11.62,-269.777,-20.483
-11.59,-268.163,-20.437
-11.56,-266.162,-20.265
-11.53,-263.951,-20.047
-11.49,-262.161,-19.921
-11.46,-260.793,-19.887
-11.43,-259.494,-19.841
-11.4,-258.125,-19.704
-11.36,-256.335,-19.681
-11.33,-254.581,-19.589
-11.3,-252.58,-19.348
-11.27,-250.194,-19.177
-11.23,-248.264,-19.073
-11.2,-246.474,-18.959
-11.17,-244.93,-18.947
-11.14,-243.315,-18.856
-11.1,-241.385,-18.695
-11.07,-239.525,-18.615
-11.04,-237.56,-18.398
-11.01,-235.454,-18.237
-10.97,-233.524,-18.146
-10.94,-231.769,-18.008
-10.91,-229.733,-17.813
-10.88,-227.592,-17.676
-10.84,-225.662,-17.63
-10.81,-224.013,-17.458
-10.78,-221.907,-17.218
-10.74,-219.485,-17.069
-10.71,-217.38,-16.954
-10.68,-215.414,-16.737
-10.65,-213.484,-16.588
-10.61,-211.624,-16.496
-10.58,-210.045,-16.37
-10.55,-207.834,-16.106
-10.52,-205.623,-15.958
-10.48,-203.342,-15.763
-10.45,-200.955,-15.396
-10.42,-199.376,-15.591
-10.39,-198.849,-15.614
-10.35,-197.832,-15.224
-10.32,-195.515,-15.007
-10.29,-193.024,-14.812
-10.26,-190.321,-14.342
-10.22,-187.338,-14.033
-10.19,-184.671,-13.827
-10.16,-182.109,-13.54
-10.13,-179.793,-13.414
-10.09,-177.687,-13.3
-10.06,-175.301,-12.991
-10.03,-172.247,-12.613
-10.0,-168.913,-12.372
-9.96,-165.79,-12.212
-9.93,-163.263,-11.994
-9.9,-160.596,-11.719
-9.87,-158.525,-11.776
-9.83,-156.77,-11.639
-9.8,-154.173,-11.066
-9.77,-150.839,-10.894
-9.74,-147.61,-10.677
-9.7,-144.522,-10.356
-9.67,-141.574,-10.104
-9.64,-138.556,-9.806
-9.61,-135.292,-9.565
-9.57,-132.414,-9.382
-9.54,-129.817,-9.187
-9.51,-127.01,-8.924
-9.47,-123.991,-8.626
-9.44,-120.763,-8.363
-9.41,-117.709,-8.145
-9.38,-114.867,-7.904
-9.34,-112.129,-7.606
-9.31,-108.795,-7.32
-9.28,-105.075,-6.942
-9.25,-100.829,-6.53
-9.21,-96.196,-6.117
-9.18,-91.493,-5.774
-9.15,-87.106,-5.533
-9.12,-83.281,-5.361
-9.08,-79.701,-5.132
-9.05,-76.192,-4.88
-9.02,-72.612,-4.685
-8.99,-69.208,-4.536
-8.95,-66.014,-4.261
-8.92,-62.68,-3.998
-8.89,-59.276,-3.757
-8.86,-55.977,-3.505
-8.82,-52.538,-3.23
-8.79,-48.923,-2.921
-8.76,-45.168,-2.612
-8.73,-41.377,-2.36
-8.69,-37.552,-2.028
-8.66,-33.621,-1.764
-8.63,-30.077,-1.569
-8.6,-26.883,-1.375
-8.56,-23.759,-1.123
-8.53,-20.461,-0.871
-8.5,-17.091,-0.653
-8.47,-13.652,-0.401
-8.43,-10.002,-0.057
-8.4,-5.791,0.275
-8.37,-1.369,0.47
-8.34,2.913,0.619
-8.3,6.949,0.687
-8.27,10.388,0.745
-8.24,13.161,0.962
-8.21,15.933,1.42
-8.17,18.881,1.913
-8.14,22.18,2.394
-8.11,26.462,2.726
-8.07,30.849,3.047
-8.04,35.06,3.402
-8.01,39.201,3.62
-7.98,42.851,3.78
-7.94,45.975,3.838
-7.91,48.853,4.067
-7.88,52.081,4.41
-7.85,55.591,4.605
-7.81,58.749,4.788
-7.78,61.943,5.121
-7.75,65.382,5.43
-7.72,68.681,5.625
-7.68,71.7,5.877
-7.65,74.858,6.22
-7.62,78.087,6.484
-7.59,81.175,6.713
-7.55,84.615,7.057
-7.52,88.335,7.423
-7.49,91.879,7.606
-7.46,95.108,7.893
-7.42,98.232,8.202
-7.39,101.39,8.454
-7.36,104.619,8.718
-7.33,107.777,8.981
-7.29,111.182,9.256
-7.26,114.691,9.611
-7.23,118.13,9.875
-7.2,121.429,10.092
-7.16,124.342,10.333
-7.13,127.185,10.573
-7.1,129.922,10.745
-7.07,133.081,11.135
-7.03,136.661,11.501
-7.0,140.556,11.765
-6.97,144.101,12.097
-6.94,147.224,12.269
-6.9,149.892,12.418
-6.87,152.594,12.681
-6.84,155.542,12.956
-6.81,158.385,13.094
-6.77,160.806,13.254
-6.74,163.298,13.518
-6.71,166.071,13.815
-6.67,168.913,14.033
-6.64,171.581,14.193
-6.61,173.792,14.411
-6.58,176.143,14.594
-6.54,178.284,14.789
-6.51,180.986,15.133
-6.48,184.46,15.534
-6.45,188.145,15.843
-6.41,191.55,16.038
-6.38,194.077,16.198
-6.35,195.866,16.175
-6.32,197.2,16.244
-6.28,199.095,16.427
-6.25,201.727,16.691
-6.22,204.43,16.897
-6.19,206.676,17.069
-6.15,208.536,17.241
-6.12,210.291,17.435
-6.09,211.729,17.401
-6.06,212.852,17.435
-6.02,214.326,17.71
-5.99,216.713,18.031
-5.96,219.345,18.249
-5.93,220.995,18.283
-5.89,222.644,18.569
-5.86,224.89,18.879
-5.83,227.417,19.005
-5.8,229.698,19.165
-5.76,232.085,19.44
-5.73,234.717,19.726
-5.7,237.454,19.818
-5.67,239.63,19.887
-5.63,241.631,20.013
-5.6,243.736,20.139
-5.57,245.947,20.196
-5.54,248.018,20.265
-5.5,249.913,20.437
-5.47,252.299,20.574
-5.44,254.651,20.631
-5.4,256.721,20.769
-5.37,259.705,21.135
-5.34,263.249,21.388
-5.31,265.671,21.216
-5.27,266.724,21.101
-5.24,267.566,21.044
-5.21,268.794,20.918
-5.18,269.672,20.803
-5.14,270.128,20.826
-5.11,270.584,20.78
-5.08,270.76,20.712
-5.05,270.479,20.666
-5.01,270.549,20.849
-4.98,271.812,21.193
-4.95,273.953,21.525
-4.92,275.989,21.72
-4.88,277.568,21.903
-4.85,279.147,22.109
-4.82,280.692,22.04
-4.79,281.604,21.903
-4.75,282.271,21.903
-4.72,283.429,21.949
-4.69,284.798,22.006
-4.66,286.201,22.052
-4.62,287.535,22.086
-4.59,288.588,22.086
-4.56,289.079,21.96
-4.53,289.044,21.834
-4.49,288.974,21.777
-4.46,289.325,21.766
-4.43,289.922,21.8
-4.4,290.799,21.949
-4.36,291.817,22.052
-4.33,292.308,22.018
-4.3,292.484,21.983
-4.27,292.834,22.04
-4.23,293.571,22.006
-4.2,293.922,21.914
-4.17,294.308,22.029
-4.14,295.572,22.201
-4.1,296.8,22.201
-4.07,297.256,22.075
-4.04,296.73,21.857
-4.0,295.572,21.594
-3.97,294.203,21.284
-3.94,293.08,21.193
-3.91,292.87,21.284
-3.87,293.221,21.479
-3.84,293.396,21.559
-3.81,292.589,21.433
-3.78,290.694,21.17
-3.74,288.588,20.952
-3.71,286.938,20.78
-3.68,285.64,20.769
-3.65,284.692,20.883
-3.61,284.096,21.044
-3.58,283.569,21.101
-3.55,282.166,20.906
-3.52,279.884,20.654
-3.48,277.322,20.448
-3.45,275.146,20.357
-3.42,273.427,20.311
-3.39,272.269,20.448
-3.35,271.707,20.609
-3.32,271.005,20.677
-3.29,269.637,20.563
-3.26,267.566,20.368
-3.22,265.601,20.219
-3.19,262.828,19.875
-3.16,252.37,17.55
-3.13,233.664,14.789
-3.09,218.748,15.179
-3.06,216.187,16.943
-3.03,219.696,17.722
-3.0,220.995,18.65
-2.96,221.135,20.334
-2.93,224.294,21.64
-2.9,230.19,22.27
-2.87,236.717,22.797
-2.83,241.911,22.991
-2.8,245.0,22.567
-2.77,246.544,22.006
-2.74,247.456,21.239
-2.7,246.825,20.116
-2.67,243.877,18.982
-2.64,240.157,18.226
-2.6,237.138,17.825
-2.57,234.331,17.355
-2.54,231.488,17.206
-2.51,228.926,17.286
-2.47,226.996,17.275
-2.44,224.644,17.092
-2.41,221.767,16.885
-2.38,219.029,16.885
-2.34,217.204,16.817
-2.31,215.379,16.633
-2.28,212.923,16.45
-2.25,210.536,16.37
-2.21,208.501,16.221
-2.18,206.044,15.9
-2.15,203.377,15.717
-2.12,201.552,15.763
-2.08,200.534,15.751
-2.05,199.446,15.591
-2.02,197.762,15.373
-1.99,195.691,15.236
-1.95,193.831,15.03
-1.92,191.374,14.606
-1.89,188.426,14.239
-1.86,185.689,14.113
-1.82,183.723,13.987
-1.79,181.723,13.712
-1.76,179.372,13.46
-1.73,176.704,13.243
-1.69,173.686,12.933
-1.66,170.563,12.578
-1.63,167.334,12.315
-1.6,164.211,12.063
-1.56,161.578,11.891
-1.53,159.192,11.765
-1.5,156.595,11.501
-1.47,153.612,11.226
-1.43,150.523,11.02
-1.4,147.54,10.734
-1.37,144.136,10.344
-1.33,140.17,9.966
-1.3,136.555,9.806
-1.27,133.853,9.691
-1.24,131.607,9.565
-1.2,129.747,9.428
-1.17,127.606,9.256
-1.14,124.939,8.924
-1.11,121.78,8.569
-1.07,118.517,8.328
-1.04,115.533,8.053
-1.01,112.585,7.767
-0.98,109.357,7.435
-0.94,105.637,7.034
-0.91,101.39,6.621
-0.88,96.722,6.243
-0.85,91.949,5.877
-0.81,87.492,5.636
-0.78,83.667,5.464
-0.75,80.544,5.327
-0.72,77.49,5.086
-0.68,74.156,4.857
-0.65,70.682,4.628
-0.62,67.207,4.353
-0.59,63.698,4.078
-0.55,60.329,3.895
-0.52,57.416,3.723
-0.49,54.538,3.46
-0.46,51.485,3.185
-0.42,48.186,2.887
-0.39,44.466,2.543
-0.36,40.57,2.222
-0.33,36.569,1.89
-0.29,32.709,1.65
-0.26,29.199,1.432
-0.23,25.83,1.18
-0.2,22.356,0.939
-0.16,18.6,0.676
-0.13,14.529,0.367
-0.1,10.107,0.103
-0.07,5.475,-0.195
-0.03,0.456,-0.447
0.0,-4.492,-0.435
0.03,-8.282,-0.298
0.07,-10.844,-0.401
0.1,-12.81,-0.664
0.13,-14.494,-0.985
0.16,-16.776,-1.558
0.2,-20.039,-2.257
0.23,-24.181,-2.692
0.26,-28.497,-3.001
0.29,-33.305,-3.265
0.33,-37.447,-3.54
0.36,-41.237,-3.78
0.39,-44.676,-3.918
0.42,-47.975,-4.261
0.46,-51.45,-4.525
0.49,-54.994,-4.766
0.52,-58.609,-5.121
0.55,-62.154,-5.327
0.59,-65.663,-5.59
0.62,-69.032,-5.911
0.65,-72.437,-6.186
0.68,-75.63,-6.381
0.72,-78.648,-6.61
0.75,-81.421,-6.828
0.78,-84.509,-7.148
0.81,-88.019,-7.526
0.85,-91.774,-7.836
0.88,-95.389,-8.088
0.91,-98.582,-8.282
0.94,-101.425,-8.523
0.98,-104.092,-8.798
1.01,-106.97,-9.05
1.04,-110.199,-9.348
1.07,-113.603,-9.668
1.11,-117.113,-9.978
1.14,-120.587,-10.31
1.17,-123.956,-10.528
1.2,-126.834,-10.722
1.24,-129.677,-11.032
1.27,-132.8,-11.249
1.3,-135.854,-11.478
1.33,-138.977,-11.788
1.37,-142.451,-12.12
1.4,-145.996,-12.406
1.43,-148.979,-12.532
1.47,-151.471,-12.693
1.5,-154.173,-12.991
1.53,-157.051,-13.243
1.56,-160.139,-13.437
1.6,-163.438,-13.758
1.63,-166.667,-14.067
1.66,-169.685,-14.228
1.69,-172.212,-14.354
1.73,-174.458,-14.537
1.76,-176.74,-14.732
1.79,-179.196,-14.927
1.82,-182.004,-15.167
1.86,-185.092,-15.522
1.89,-188.356,-15.809
1.92,-191.199,-15.98
1.95,-193.48,-16.118
1.99,-195.586,-16.255
2.02,-197.691,-16.37
2.05,-199.692,-16.507
2.08,-201.692,-16.633
2.12,-203.763,-16.828
2.15,-205.833,-17.023
2.18,-207.693,-17.149
2.21,-209.273,-17.206
2.25,-210.782,-17.39
2.28,-212.396,-17.55
2.31,-213.976,-17.653
2.34,-215.52,-17.882
2.38,-217.59,-18.146
2.41,-220.047,-18.386
2.44,-222.644,-18.684
2.47,-224.96,-18.925
2.51,-227.101,-19.028
2.54,-228.926,-19.131
2.57,-231.102,-19.326
2.6,-233.348,-19.474
2.64,-235.243,-19.555
2.67,-236.963,-19.612
2.7,-238.718,-19.749
2.74,-240.192,-19.761
2.77,-241.139,-19.784
2.8,-242.192,-19.944
2.83,-244.193,-20.208
2.87,-246.825,-20.391
2.9,-248.895,-20.494
2.93,-250.72,-20.735
2.96,-252.686,-20.849
3.0,-254.651,-20.998
3.03,-256.897,-21.135
3.06,-258.897,-21.067
3.09,-260.161,-21.032
3.13,-261.6,-21.135
3.16,-263.284,-21.227
3.19,-264.723,-21.284
3.22,-265.987,-21.273
3.26,-267.11,-21.273
3.29,-267.987,-21.204
3.32,-268.829,-21.261
3.35,-270.093,-21.399
3.39,-271.672,-21.582
3.42,-273.672,-21.777
3.45,-275.182,-21.857
3.48,-275.743,-21.674
3.52,-276.656,-21.834
3.55,-278.235,-21.949
3.58,-279.288,-21.777
3.61,-279.814,-21.834
3.65,-280.727,-21.972
3.68,-282.271,-22.086
3.71,-283.71,-22.075
3.74,-285.043,-22.212
3.78,-286.272,-22.235
3.81,-287.36,-22.155
3.84,-287.711,-22.052
3.87,-288.097,-21.995
3.91,-288.483,-21.96
3.94,-289.185,-21.949
3.97,-290.132,-22.006
4.0,-291.045,-22.075
4.04,-291.922,-22.189
4.07,-293.115,-22.224
4.1,-293.958,-22.132
4.14,-294.203,-22.075
4.17,-294.379,-21.995
4.2,-294.695,-21.949
4.23,-295.081,-21.846
4.27,-294.87,-21.685
4.3,-294.133,-21.605
4.33,-293.326,-21.514
4.36,-292.589,-21.399
4.4,-291.887,-21.273
4.43,-291.431,-21.376
4.46,-291.641,-21.662
4.49,-292.273,-21.777
4.53,-292.413,-21.697
4.56,-291.536,-21.514
4.59,-289.957,-21.204
4.62,-287.746,-20.929
4.66,-285.991,-20.757
4.69,-284.657,-20.643
4.72,-283.394,-20.735
4.75,-282.622,-20.815
4.79,-281.464,-20.746
4.82,-279.709,-20.689
4.85,-277.568,-20.586
4.88,-275.427,-20.391
4.92,-273.462,-20.265
4.95,-271.953,-20.345
4.98,-271.111,-20.505
5.01,-270.444,-20.54
5.05,-269.356,-20.517
5.08,-267.917,-20.494
5.11,-266.267,-20.265
5.14,-264.127,-19.967
5.18,-262.091,-19.898
5.21,-260.617,-19.852
5.24,-259.248,-19.738
5.27,-257.774,-19.692
5.31,-256.23,-19.704
5.34,-254.756,-19.555
5.37,-252.51,-19.222
5.4,-249.632,-19.062
5.44,-247.035,-18.993
5.47,-245.245,-18.856
5.5,-243.631,-18.821
5.54,-242.122,-18.844
5.57,-240.929,-18.867
5.6,-239.806,-18.833
5.63,-238.156,-18.673
5.67,-235.98,-18.421
5.7,-234.366,-18.386
5.73,-232.892,-18.134
5.76,-230.646,-17.802
5.8,-228.224,-17.733
5.83,-226.399,-17.653
5.86,-224.644,-17.47
5.89,-222.293,-17.183
5.93,-219.556,-16.977
5.96,-217.029,-16.851
5.99,-214.993,-16.691
6.02,-212.817,-16.496
6.06,-210.712,-16.37
6.09,-208.817,-16.29
6.12,-206.992,-16.187
6.15,-204.991,-15.969
6.19,-202.991,-15.832
6.22,-201.166,-15.683
6.25,-199.411,-15.522
6.28,-197.762,-15.385
6.32,-196.042,-15.167
6.35,-193.901,-14.961
6.38,-191.585,-14.697
6.41,-189.093,-14.342
6.45,-186.566,-14.159
6.48,-184.39,-13.964
6.51,-182.355,-13.747
6.54,-180.284,-13.598
6.58,-178.214,-13.392
6.61,-175.897,-13.128
6.64,-173.125,-12.865
6.67,-170.212,-12.532
6.71,-167.509,-12.406
6.74,-165.018,-12.166
6.77,-162.28,-11.811
6.81,-159.648,-11.685
6.84,-157.964,-11.753
6.87,-155.858,-11.352
6.9,-152.629,-10.745
6.94,-148.102,-10.482
6.97,-143.855,-10.127
7.0,-140.03,-9.794
7.03,-136.626,-9.542
7.07,-133.432,-9.439
7.1,-130.659,-9.268
7.13,-128.554,-9.29
7.16,-126.694,-9.142
7.2,-124.167,-8.798
7.23,-120.938,-8.477
7.26,-117.358,-8.225
7.29,-114.095,-7.904
7.33,-111.182,-7.641
7.36,-108.304,-7.377
7.39,-104.97,-7.034
7.42,-101.039,-6.667
7.46,-96.863,-6.323
7.49,-92.616,-5.991
7.52,-88.194,-5.613
7.55,-83.772,-5.315
7.59,-79.877,-5.166
7.62,-76.402,-4.995
7.65,-72.717,-4.639
7.68,-68.857,-4.387
7.72,-65.242,-4.273
7.75,-61.943,-4.032
7.78,-58.504,-3.712
7.81,-55.064,-3.494
7.85,-51.836,-3.322
7.88,-48.642,-3.024
7.91,-45.132,-2.704
7.94,-41.342,-2.429
7.98,-37.271,-2.051
8.01,-33.06,-1.741
8.04,-29.269,-1.558
8.07,-25.97,-1.386
8.11,-22.952,-1.123
8.14,-19.759,-0.871
8.17,-16.354,-0.642
8.21,-12.81,-0.378
8.24,-9.019,-0.08
8.27,-5.229,0.16
8.3,-1.299,0.321
8.34,2.422,0.481
8.37,6.107,0.596
8.4,9.476,0.676
8.43,11.862,0.768
8.47,13.933,1.077
8.5,16.986,1.833
8.53,21.408,2.566
8.56,26.637,2.852
8.6,30.954,3.001
8.63,33.902,3.139
8.66,36.99,3.482
8.69,41.377,3.987
8.73,46.677,4.296
8.76,51.309,4.387
8.79,54.749,4.456
8.82,57.451,4.617
8.86,60.364,4.914
8.89,63.522,5.121
8.92,66.891,5.315
8.95,70.401,5.693
8.99,73.489,5.831
9.02,76.086,5.968
9.05,78.262,6.197
9.08,81.07,6.541
9.12,84.755,7.057
9.15,88.545,7.263
9.18,91.809,7.435
9.21,94.827,7.87
9.25,98.091,8.099
9.28,100.793,8.225
9.31,103.32,8.5
9.34,106.128,8.798
9.38,109.497,9.164
9.41,113.428,9.531
9.44,117.534,9.909
9.47,121.149,10.195
9.51,123.991,10.23
9.54,126.448,10.516
9.57,129.607,10.906
9.61,133.607,11.226
9.64,137.889,11.616
9.67,141.574,11.788
9.7,144.031,11.776
9.74,145.75,11.96
9.77,148.347,12.349
9.8,152.138,12.704
9.83,155.858,12.853
9.87,159.087,13.14
9.9,161.929,13.426
9.93,164.561,13.529
9.96,166.948,13.678
10.0,169.65,14.01
10.03,172.598,14.239
10.06,175.371,14.4
10.09,177.863,14.583
10.13,180.074,14.801
10.16,182.495,15.098
10.19,185.548,15.362
10.22,188.567,15.602
10.26,191.304,15.832
10.29,193.761,15.969
10.32,195.656,16.061
10.35,197.481,16.21
10.39,199.376,16.359
10.42,201.447,16.565
10.45,203.693,16.782
10.48,205.833,16.954
10.52,207.693,17.057
10.55,209.167,17.229
10.58,210.606,17.321
10.61,212.08,17.458
10.65,214.011,17.733
10.68,216.713,18.146
10.71,220.293,18.547
10.74,224.153,18.959
10.78,227.733,19.177
10.81,230.26,19.199
10.84,231.418,19.051
10.88,231.593,18.81
10.91,232.506,18.89
10.94,234.506,19.119
10.97,236.507,19.188
11.01,237.595,19.199
11.04,238.753,19.486
11.07,240.894,19.841
11.1,242.824,19.83
11.14,243.947,19.841
11.17,244.789,19.978
11.2,245.912,20.082
11.23,247.07,20.127
11.27,248.439,20.311
11.3,250.089,20.46
11.33,251.562,20.54
11.36,252.58,20.609
11.4,253.458,20.757
11.43,254.861,20.883
11.46,256.476,20.964
11.49,258.231,21.25
11.53,260.582,21.456
11.56,262.968,21.64
11.59,265.32,21.8
11.62,267.215,21.834
11.66,268.9,21.834
11.69,270.479,21.8
11.72,271.883,21.731
11.75,273.251,21.766
11.79,274.866,21.823
11.82,276.41,21.846
11.85,277.849,21.903
11.88,279.218,21.903
11.92,280.305,21.903
11.95,281.183,21.892
11.98,281.955,21.846
12.01,283.113,21.926
12.05,284.447,21.983
12.08,285.71,22.018
12.11,286.763,22.075
12.14,287.711,22.086
12.18,288.588,22.052
12.21,289.079,21.937
12.24,289.149,21.846
12.28,289.465,21.903
12.31,289.781,21.743
12.34,290.729,21.972
12.37,292.027,22.121
12.41,292.975,22.063
12.44,293.922,22.281
12.47,294.203,22.063
12.5,293.817,21.846
12.54,294.238,21.995
12.57,295.081,21.903
12.6,295.01,21.731
12.63,294.589,21.674
12.67,294.308,21.674
12.7,294.063,21.525
12.73,293.08,21.296
12.76,291.957,21.25
12.8,291.676,21.41
12.83,291.747,21.388
12.86,291.115,21.273
12.89,290.413,21.376
12.93,289.536,21.261
12.96,288.026,20.964
12.99,286.166,20.826
13.02,284.798,20.78
13.06,283.71,20.746
13.09,282.481,20.757
13.12,281.113,20.769
13.15,279.604,20.7
13.19,277.849,20.586
13.22,275.989,20.494
13.25,273.953,20.345
13.28,271.883,20.208
13.32,270.303,20.265
13.35,269.18,20.357
13.38,268.057,20.334
13.41,265.741,20.104
13.45,262.126,19.692
13.48,258.09,19.383
13.51,255.212,19.383
13.54,253.738,19.543
13.58,253.142,19.738
13.61,252.756,19.978
13.64,252.65,20.265
13.68,252.65,20.379
13.71,252.44,20.276
13.74,251.843,20.15
13.77,251.247,20.059
13.81,250.826,19.864
13.84,250.299,19.612
13.87,249.036,19.383
13.9,247.351,19.154
13.94,245.772,18.925
13.97,244.157,18.65
14.0,241.56,18.249
14.03,237.946,17.79
14.07,234.085,17.481
14.1,230.681,17.286
14.13,227.628,17.069
14.16,224.68,17.0
14.2,222.293,17.172
14.23,220.398,17.149
14.26,218.362,17.023
14.29,216.222,17.0
14.33,214.432,16.966
14.36,212.888,16.851
14.39,211.519,16.782
14.42,210.115,16.702
14.46,208.571,16.542
14.49,206.641,16.233
14.52,204.289,15.969
14.55,202.148,15.774
14.59,200.113,15.557
14.62,198.288,15.396
14.65,196.498,15.224
14.68,194.392,14.949
14.72,192.041,14.778
14.75,189.655,14.594
14.78,187.128,14.182
14.81,184.25,13.93
14.85,181.863,13.815
14.88,179.758,13.598
14.91,177.477,13.414
14.95,175.125,13.254
14.98,172.423,12.933
15.01,169.475,12.601
15.04,167.159,12.59
15.08,164.667,12.212
15.11,161.649,11.753
15.14,159.122,11.994
15.17,157.648,11.845
15.21,155.998,11.444
15.24,153.226,11.169
15.27,149.927,10.837
15.3,145.996,10.333
15.34,142.838,10.241
15.37,140.24,10.104
15.4,137.047,9.462
15.43,133.151,9.302
15.47,129.993,9.268
15.5,127.185,8.935
15.53,124.132,8.592
15.56,120.728,8.385
15.6,117.393,8.145
15.63,114.2,7.87
15.66,111.147,7.675
15.69,108.234,7.446
15.73,104.829,7.022
15.76,100.548,6.644
15.79,95.915,6.243
15.82,91.072,5.842
15.86,86.053,5.453
15.89,81.526,5.235
15.92,77.911,5.224
15.95,75.279,5.144
15.99,72.823,4.926
16.02,69.945,4.708
16.05,66.576,4.433
16.08,62.961,4.124
16.12,58.995,3.769
16.15,55.275,3.54
16.18,52.292,3.46
16.21,49.835,3.276
16.25,47.133,2.921
16.28,43.799,2.589
16.31,39.973,2.28
16.35,36.043,1.947
16.38,32.077,1.673
16.41,28.287,1.375
16.44,24.181,1.042
16.48,20.039,0.756
16.51,15.828,0.515
16.54,11.652,0.286
16.57,7.51,0.092
16.61,3.755,0.069
16.64,0.175,0.023
16.67,-3.439,-0.16
16.7,-6.773,-0.298
16.74,-9.756,-0.389
16.77,-12.704,-0.699
16.8,-15.898,-1.226
16.83,-19.267,-1.65
16.87,-22.461,-2.085
16.9,-26.076,-2.623
16.93,-30.147,-3.116
16.96,-34.99,-3.276
17.0,-39.061,-3.379
17.03,-42.465,-3.735
17.06,-45.834,-3.941
17.09,-48.958,-4.135
17.13,-52.292,-4.422
17.16,-55.731,-4.766
17.19,-59.346,-5.029
17.22,-62.891,-5.292
17.26,-66.541,-5.602
17.29,-70.015,-5.877
17.32,-73.244,-6.06
17.35,-75.981,-6.232
17.39,-78.543,-6.484
17.42,-81.351,-6.747
17.45,-84.615,-7.057
17.48,-88.089,-7.423
17.52,-91.809,-7.744
17.55,-95.354,-8.042
17.58,-98.407,-8.259
17.62,-101.074,-8.408
17.65,-103.461,-8.649
17.68,-106.339,-9.004
17.71,-109.918,-9.359
17.75,-113.393,-9.623
17.78,-116.235,-9.714
17.81,-119.499,-10.23
17.84,-123.219,-10.608
17.88,-127.501,-10.929
17.91,-130.519,-11.02
17.94,-133.116,-11.066
17.97,-136.064,-11.65
18.01,-140.276,-12.028
18.04,-144.557,-12.212
18.07,-147.786,-12.338
18.1,-150.102,-12.521
18.14,-152.243,-12.59
18.17,-154.98,-12.979
18.2,-158.279,-13.243
18.23,-161.087,-13.3
18.27,-163.614,-13.609
18.3,-166.562,-13.964
18.33,-169.405,-14.079
18.36,-172.037,-14.228
18.4,-174.388,-14.48
18.43,-176.845,-14.686
18.46,-179.301,-14.869
18.49,-182.004,-15.179
18.53,-185.233,-15.534
18.56,-188.391,-15.694
18.59,-191.058,-15.9
18.62,-193.234,-16.072
18.66,-195.305,-16.129
18.69,-197.27,-16.301
18.72,-199.481,-16.507
18.75,-201.622,-16.622
18.79,-203.693,-16.805
18.82,-205.693,-17.034
18.85,-207.693,-17.103
18.88,-209.062,-17.103
18.92,-210.01,-17.286
18.95,-211.624,-17.527
18.98,-213.66,-17.71
19.02,-215.765,-17.962
19.05,-218.011,-18.214
19.08,-220.258,-18.409
19.11,-222.539,-18.638
19.15,-224.855,-18.879
19.18,-227.136,-18.993
19.21,-228.751,-19.051
19.24,-230.435,-19.165
19.28,-232.295,-19.314
19.31,-234.225,-19.348
19.34,-235.735,-19.44
19.37,-237.209,-19.658
19.41,-239.841,-19.933
19.44,-242.297,-20.139
19.47,-244.122,-20.104
19.5,-245.21,-20.139
19.54,-246.754,-20.357
19.57,-249.036,-20.494
19.6,-251.422,-20.62
19.63,-253.563,-20.769
19.67,-255.212,-20.918
19.7,-256.616,-20.849
19.73,-257.739,-20.815
19.76,-259.143,-20.941
19.8,-260.933,-20.952
19.83,-262.196,-20.998
19.86,-263.46,-21.204
19.89,-265.074,-21.307
19.93,-266.513,-21.33
19.96,-267.461,-21.296
19.99,-268.092,-21.307
20.02,-269.215,-21.433
20.06,-270.83,-21.536
20.09,-272.655,-21.697
20.12,-274.374,-21.869
20.15,-275.919,-21.949
20.19,-277.463,-22.006
20.22,-278.796,-21.972
20.25,-279.639,-21.846
20.28,-280.165,-21.846
20.32,-281.218,-21.972
20.35,-282.762,-21.949
20.38,-284.061,-22.006
20.42,-285.429,-22.212
20.45,-286.623,-22.132
20.48,-287.044,-22.052
20.51,-287.219,-21.937
20.55,-287.465,-21.857
20.58,-287.43,-21.72
20.61,-288.377,-21.903
20.64,-289.29,-22.029
20.68,-289.781,-21.914
20.71,-290.027,-22.029
20.74,-291.536,-22.27
20.77,-292.834,-22.258
20.81,-292.659,-21.937
20.84,-292.554,-22.052
20.87,-293.747,-22.121
20.9,-294.554,-21.949
20.94,-294.379,-21.8
20.97,-293.852,-21.834
21.0,-293.536,-21.662
21.03,-292.834,-21.376
21.07,-291.711,-21.261
21.1,-291.29,-21.388
21.13,-291.431,-21.502
21.16,-291.676,-21.525
21.2,-291.325,-21.525
21.23,-290.483,-21.491
21.26,-289.079,-21.216
21.29,-287.43,-20.975
21.33,-285.921,-20.861
21.36,-284.552,-20.769
21.39,-283.359,-20.838
21.42,-282.341,-20.952
21.46,-281.393,-20.895
21.49,-279.779,-20.746
21.52,-277.568,-20.62
21.55,-275.603,-20.448
21.59,-273.462,-20.265
21.62,-271.742,-20.334
21.65,-270.83,-20.505
21.69,-270.268,-20.528
21.72,-269.461,-20.505
21.75,-268.057,-20.574
21.78,-266.513,-20.322
21.82,-264.337,-19.99
21.85,-262.267,-19.91
21.88,-260.757,-19.83
21.91,-259.354,-19.692
21.95,-257.564,-19.623
21.98,-255.879,-19.658
22.01,-254.546,-19.555
22.04,-252.44,-19.291
22.08,-249.773,-19.108
22.11,-247.421,-19.028
22.14,-245.702,-18.925
22.17,-244.228,-18.925
22.21,-242.824,-18.89
22.24,-241.946,-19.028
22.27,-241.315,-19.005
22.3,-239.384,-18.569
22.34,-236.015,-18.226
22.37,-233.348,-18.054
22.4,-231.453,-17.882
22.43,-229.628,-17.676
22.47,-227.242,-17.55
22.5,-224.96,-17.47
22.53,-222.749,-17.321
22.56,-220.433,-17.16
22.6,-218.327,-17.057
22.63,-216.432,-16.943
22.66,-214.572,-16.794
22.69,-212.642,-16.656
22.73,-210.887,-16.565
22.76,-209.659,-16.565
22.79,-208.325,-16.359
22.82,-206.29,-16.049
22.86,-203.938,-15.9
22.89,-201.797,-15.66
22.92,-199.867,-15.431
22.95,-198.007,-15.236
22.99,-195.866,-14.984
23.02,-193.48,-14.812
23.05,-191.304,-14.64
23.09,-189.268,-14.468
23.12,-187.057,-14.216
23.15,-184.46,-13.93
23.18,-181.688,-13.689
23.22,-179.547,-13.644
23.25,-177.863,-13.495
23.28,-175.792,-13.128
23.31,-172.704,-12.75
23.35,-169.334,-12.532
23.38,-166.527,-12.303
23.41,-164.386,-12.2
23.44,-161.578,-11.776
23.48,-158.49,-11.478
23.51,-155.963,-11.582
23.54,-154.279,-11.444
23.57,-152.068,-10.963
23.61,-148.734,-10.677
23.64,-145.119,-10.425
23.67,-141.89,-10.127
23.7,-138.205,-9.668
23.74,-134.415,-9.371
23.77,-131.572,-9.462
23.8,-129.712,-9.336
23.83,-127.536,-9.038
23.87,-124.834,-8.821
23.9,-121.886,-8.603
23.93,-118.973,-8.34
23.96,-116.27,-8.076
24.0,-113.182,-7.732
24.03,-109.637,-7.377
24.06,-105.812,-6.999
24.09,-101.32,-6.495
24.13,-96.161,-6.014
24.16,-91.002,-5.728
24.19,-86.475,-5.51
24.22,-82.474,-5.292
24.26,-78.683,-5.04
24.29,-75.069,-4.903
24.32,-71.805,-4.811
24.35,-68.611,-4.559
24.39,-64.996,-4.204
24.42,-61.031,-3.941
24.45,-57.135,-3.735
24.49,-53.766,-3.505
24.52,-50.853,-3.322
24.55,-48.08,-3.07
24.58,-44.887,-2.807
24.62,-41.518,-2.566
24.65,-37.938,-2.245
24.68,-34.253,-1.947
24.71,-30.779,-1.718
24.75,-27.515,-1.478
24.78,-24.216,-1.203
24.81,-20.811,-0.882
24.84,-17.126,-0.63
24.88,-13.406,-0.389
24.91,-9.616,-0.103
24.94,-6.071,0.103
24.97,-2.457,0.218
25.01,1.544,0.607
25.04,6.352,0.905
25.07,10.95,0.894
25.1,14.038,0.859
25.14,16.003,1.146
25.17,18.636,1.89
25.2,22.601,2.532
25.23,27.62,2.704
25.27,32.217,2.887
25.3,36.078,3.299
25.33,39.658,3.54
25.36,43.097,3.62
25.4,46.466,3.861
25.43,49.835,4.124
25.46,53.029,4.261
25.49,56.012,4.41
25.53,58.89,4.697
25.56,62.119,4.995
25.59,65.382,5.235
25.62,68.576,5.51
25.66,71.77,5.831
25.69,75.069,6.163
25.72,78.403,6.404
25.76,81.526,6.61
25.79,84.685,6.931
25.82,88.51,7.366
25.85,92.406,7.71
25.89,95.88,7.836
25.92,98.793,8.065
25.95,101.39,8.317
25.98,104.022,8.511
26.02,106.935,8.786
26.05,110.339,9.199
26.08,114.235,9.462
26.11,118.236,9.829
26.15,121.5,10.069
26.18,124.097,10.138
26.21,126.273,10.31
26.24,129.782,10.906
26.28,134.029,11.295
26.31,137.538,11.192
26.34,140.276,11.604
26.37,143.118,11.914
26.41,146.558,12.177
26.44,149.716,12.338
26.47,152.489,12.464
26.5,155.226,12.842
26.54,158.665,13.22
26.57,162.07,13.346
26.6,164.597,13.46
26.63,166.913,13.712
26.67,169.44,13.907
26.7,172.002,14.079
26.73,174.318,14.274
26.76,176.74,14.503
26.8,179.266,14.709
26.83,181.898,15.053
26.86,185.233,15.373
26.89,188.286,15.614
26.93,191.023,15.82
26.96,193.41,15.935
26.99,195.2,16.061
27.02,197.2,16.187
27.06,199.236,16.29
27.09,201.306,16.507
27.12,203.587,16.771
27.16,206.044,16.931
27.19,207.904,17.034
27.22,209.238,17.241
27.25,210.606,17.332
27.29,212.115,17.412
27.32,214.046,17.71
27.35,216.924,18.157
27.38,220.222,18.478
27.42,222.714,18.569
27.45,225.206,18.902
27.48,227.733,19.051
27.51,229.417,18.879
27.55,229.453,18.65
27.58,229.803,18.73
27.61,231.242,19.005
27.64,233.559,19.119
27.68,235.208,19.268
27.71,236.717,19.509
27.74,238.647,19.841
27.77,240.578,19.887
27.81,241.982,19.921
27.84,243.456,20.127
27.87,245.526,20.379
27.9,248.088,20.505
27.94,250.124,20.654
27.97,252.089,20.769
28.0,253.633,20.78
28.03,254.897,20.757
28.07,256.3,20.861
28.1,258.09,20.998
28.13,259.95,21.067
28.16,261.74,21.261
28.2,263.776,21.41
28.23,265.495,21.456
28.26,267.11,21.514
28.29,268.443,21.502
28.33,269.637,21.525
28.36,270.97,21.571
28.39,272.409,21.582
28.42,274.023,21.685
28.46,275.568,21.788
28.49,276.445,21.685
28.52,277.147,21.662
28.56,278.235,21.766
28.59,279.428,21.811
28.62,280.235,21.697
28.65,280.832,21.8
28.69,282.341,22.04
28.72,284.096,22.063
28.75,285.394,22.109
28.78,286.623,22.235
28.82,287.711,22.109
28.85,288.307,22.018
28.88,288.693,21.937
28.91,289.044,21.903
28.95,289.746,21.983
28.98,290.904,22.04
29.01,291.711,21.972
29.04,292.168,21.995
29.08,292.694,22.018
29.11,293.958,22.166
29.14,294.203,21.949
29.17,294.063,21.788
29.21,294.905,22.178
29.24,296.063,21.96
29.27,296.098,21.766
29.3,295.782,21.857
29.34,295.782,21.743
29.37,295.081,21.468
29.4,293.852,21.239
29.43,292.694,21.158
29.47,292.062,21.227
29.5,292.097,21.307
29.53,291.536,21.227
29.56,290.413,21.158
29.6,288.693,20.975
29.63,287.64,21.09
29.66,286.447,20.849
29.69,283.745,20.322
29.73,281.429,20.586
29.76,281.288,20.918
29.79,280.902,20.735
29.83,278.867,20.609
29.86,276.726,20.723
29.89,275.462,20.712
29.92,274.374,20.563
29.96,273.146,20.563
29.99,272.234,20.643
30.02,271.286,20.586
30.05,270.128,20.517
30.09,268.549,20.391
30.12,266.267,20.082
30.15,264.091,20.001
30.18,261.951,19.818
30.22,259.494,19.543
30.25,257.458,19.669
30.28,257.318,19.956
30.31,257.845,20.173
30.35,257.143,20.013
30.38,254.546,19.623
30.41,251.703,19.417
30.44,249.948,19.348
30.48,248.79,19.119
30.51,246.965,18.925
30.54,243.842,18.627
30.57,240.648,18.363
30.61,238.612,18.512
30.64,237.419,18.432
30.67,235.243,18.146
30.7,232.401,18.077
30.74,230.33,18.123
30.77,229.031,18.077
30.8,228.049,17.985
30.83,226.855,18.008
30.87,225.206,17.859
30.9,222.82,17.504
30.93,220.187,17.241
30.96,217.731,17.103
31.0,215.871,16.954
31.03,214.011,16.759
31.06,212.115,16.656
31.09,210.115,16.519
31.13,208.29,16.359
31.16,206.114,16.164
31.19,203.868,15.98
31.23,201.973,15.797
31.26,200.218,15.671
31.29,198.674,15.557
31.32,196.989,15.362
31.36,195.059,15.144
31.39,192.673,14.835
31.42,189.9,14.56
31.45,187.198,14.297
31.49,184.671,14.056
31.52,182.355,13.838
31.55,180.319,13.747
31.58,178.354,13.586
31.62,176.108,13.254
31.65,173.019,12.876
31.68,169.685,12.613
31.71,166.527,12.406
31.75,163.614,12.074
31.78,160.982,11.891
31.81,158.736,11.891
31.84,156.63,11.639
31.88,153.787,11.249
31.91,150.558,11.055
31.94,147.47,10.814
31.97,144.768,10.585
32.01,142.03,10.333
32.04,139.153,10.047
32.07,136.345,9.875
32.1,133.467,9.577
32.14,130.414,9.29
32.17,127.361,9.038
32.2,124.483,8.844
32.23,121.745,8.615
32.27,119.183,8.397
32.3,116.411,8.099
32.33,113.182,7.767
32.36,109.497,7.423
32.4,105.005,6.896
32.43,99.635,6.346
32.46,94.336,6.071
32.49,89.879,5.854
32.53,86.369,5.716
32.56,83.0,5.499
32.59,79.42,5.224
32.63,75.806,5.075
32.66,72.437,4.914
32.69,69.278,4.639
32.72,66.049,4.399
32.76,62.891,4.204
32.79,59.872,3.987
32.82,56.784,3.723
32.85,53.801,3.517
32.89,50.607,3.242
32.92,47.694,3.001
32.95,44.676,2.807
32.98,41.061,2.291
33.02,36.639,1.821
33.05,31.726,1.524
33.08,27.304,1.329
33.11,23.584,1.134
33.15,20.671,1.042
33.18,17.267,0.699
33.21,12.599,0.103
33.24,7.335,0.0
33.28,3.053,0.046
33.31,-0.105,0.046
33.34,-3.018,-0.023
33.37,-6.107,-0.218
33.41,-9.721,-0.596
33.44,-13.161,-0.756
33.47,-16.039,-0.962
33.5,-18.741,-1.535
33.54,-21.864,-2.165
33.57,-25.409,-2.6
33.6,-29.059,-3.036
33.63,-33.376,-3.425
33.67,-37.868,-3.597
33.7,-41.553,-3.769
33.73,-44.711,-4.032
33.76,-48.116,-4.376
33.8,-51.941,-4.743
33.83,-55.731,-4.949
33.86,-59.206,-5.132
33.9,-62.399,-5.407
33.93,-65.488,-5.67
33.96,-68.506,-5.888
33.99,-71.349,-6.094
34.03,-74.086,-6.346
34.06,-76.859,-6.587
34.09,-79.912,-6.908
34.12,-83.456,-7.274
34.16,-87.106,-7.618
34.19,-90.791,-7.904
34.22,-94.371,-8.214
34.25,-97.81,-8.511
34.29,-101.109,-8.763
34.32,-104.408,-9.038
34.35,-107.777,-9.302
34.38,-111.392,-9.646
34.42,-115.077,-9.932
34.45,-118.762,-10.184
34.48,-122.377,-10.528
34.51,-125.887,-10.722
34.55,-128.589,-10.825
34.58,-131.046,-11.089
34.61,-134.134,-11.398
34.64,-137.889,-11.708
34.68,-141.82,-12.051
34.71,-145.61,-12.326
34.74,-148.523,-12.441
34.77,-150.909,-12.613
34.81,-153.261,-12.796
34.84,-156.139,-13.025
34.87,-158.806,-13.197
34.9,-161.122,-13.369
34.94,-163.754,-13.735
34.97,-166.808,-14.067
35.0,-169.861,-14.193
35.03,-172.318,-14.331
35.07,-174.213,-14.549
35.1,-176.178,-14.709
35.13,-178.529,-14.915
35.16,-181.477,-15.282
35.2,-185.022,-15.694
35.23,-188.531,-15.946
35.26,-191.55,-16.129
35.3,-193.901,-16.313
35.33,-195.796,-16.404
35.36,-197.586,-16.427
35.39,-199.341,-16.473
35.43,-201.236,-16.633
35.46,-203.166,-16.851
35.49,-205.202,-17.08
35.52,-207.553,-17.252
35.56,-209.589,-17.424
35.59,-211.133,-17.55
35.62,-212.396,-17.63
35.65,-213.8,-17.802
35.69,-215.871,-18.088
35.72,-218.398,-18.375
35.75,-221.17,-18.592
35.78,-223.521,-18.821
35.82,-225.908,-19.062
35.85,-227.557,-19.005
35.88,-228.47,-18.913
35.91,-230.26,-19.291
35.95,-232.892,-19.429
35.98,-234.576,-19.371
36.01,-235.349,-19.417
36.04,-236.928,-19.749
36.08,-239.314,-19.99
36.11,-241.069,-19.841
36.14,-241.771,-19.898
36.17,-243.385,-20.311
36.21,-246.439,-20.574
36.24,-248.65,-20.574
36.27,-250.334,-20.735
36.3,-251.913,-20.861
36.34,-253.598,-20.815
36.37,-255.388,-20.883
36.4,-257.108,-21.009
36.43,-258.792,-21.055
36.47,-260.371,-21.124
36.5,-261.916,-21.284
36.53,-263.741,-21.41
36.56,-265.601,-21.422
36.6,-267.039,-21.514
36.63,-268.549,-21.582
36.66,-269.777,-21.548
36.7,-271.111,-21.582
36.73,-272.514,-21.754
36.76,-274.409,-21.834
36.79,-275.883,-21.811
36.83,-277.357,-21.869
36.86,-278.551,-21.892
36.89,-279.393,-21.834
36.92,-279.849,-21.731
36.96,-280.376,-21.754
36.99,-281.499,-21.846
37.02,-283.113,-21.96
37.05,-284.482,-22.063
37.09,-285.745,-22.189
37.12,-286.868,-22.166
37.15,-287.57,-22.04
37.18,-288.026,-22.006
37.22,-288.483,-21.937
37.25,-288.974,-21.846
37.28,-289.851,-22.018
37.31,-291.045,-22.063
37.35,-291.782,-21.995
37.38,-292.168,-22.063
37.41,-293.115,-22.132
37.44,-293.536,-21.937
37.48,-293.045,-21.651
37.51,-293.536,-22.006
37.54,-294.133,-21.937
37.57,-294.063,-21.594
37.61,-293.747,-21.892
37.64,-293.642,-21.697
37.67,-293.326,-21.559
37.7,-292.799,-21.468
37.74,-292.168,-21.468
37.77,-291.782,-21.525
37.8,-291.992,-21.594
37.83,-292.343,-21.662
37.87,-292.027,-21.559
37.9,-290.343,-21.239
37.93,-288.377,-20.975
37.97,-285.921,-20.631
38.0,-284.482,-20.7
38.03,-284.552,-21.032
38.06,-284.447,-20.987
38.1,-283.289,-20.941
38.13,-281.815,-20.964
38.16,-280.376,-20.849
38.19,-278.305,-20.505
38.23,-275.708,-20.265
38.26,-273.602,-20.219
38.29,-272.269,-20.265
38.32,-271.672,-20.402
38.36,-271.111,-20.46
38.39,-269.847,-20.494
38.42,-268.654,-20.483
38.45,-266.583,-20.104
38.49,-263.53,-19.681
38.52,-261.88,-19.933
38.55,-261.354,-19.99
38.58,-260.371,-19.692
38.62,-258.371,-19.715
38.65,-256.721,-19.726
38.68,-255.212,-19.52
38.71,-253.423,-19.257
38.75,-251.247,-19.222
38.78,-248.755,-18.89
38.81,-246.333,-18.684
38.84,-244.333,-18.764
38.88,-242.683,-18.627
38.91,-241.034,-18.558
38.94,-239.349,-18.558
38.97,-237.173,-18.317
39.01,-234.471,-18.054
39.04,-232.19,-17.985
39.07,-230.751,-17.916
39.1,-229.453,-17.825
39.14,-228.049,-17.836
39.17,-226.961,-17.836
39.2,-225.838,-17.733
39.23,-223.697,-17.344
39.27,-221.03,-16.977
39.3,-218.292,-16.794
39.33,-216.116,-16.656
39.37,-214.326,-16.496
39.4,-212.747,-16.393
39.43,-211.168,-16.278
39.46,-209.203,-16.129
39.5,-206.956,-15.832
39.53,-204.57,-15.625
39.56,-202.359,-15.522
39.59,-200.674,-15.35
39.63,-199.236,-15.213
39.66,-197.656,-15.121
39.69,-195.831,-14.858
39.72,-193.34,-14.514
39.76,-190.216,-14.148
39.79,-186.952,-13.85
39.82,-184.145,-13.609
39.85,-181.512,-13.392
39.89,-179.337,-13.311
39.92,-177.582,-13.197
39.95,-175.16,-12.899
39.98,-171.826,-12.555
40.02,-168.282,-12.292
40.05,-165.263,-12.086
40.08,-162.596,-11.845
40.11,-160.034,-11.616
40.15,-157.753,-11.536
40.18,-155.682,-11.444
40.21,-153.471,-11.112
40.24,-150.839,-10.883
40.28,-147.891,-10.631
40.31,-144.557,-10.23
40.34,-141.118,-9.943
40.37,-138.17,-9.749
40.41,-135.397,-9.565
40.44,-132.941,-9.325
40.47,-130.273,-9.142
40.5,-127.676,-8.901
40.54,-124.658,-8.546
40.57,-121.184,-8.202
40.6,-117.604,-7.973
40.63,-114.481,-7.778
40.67,-111.743,-7.538
40.7,-108.725,-7.206
40.73,-104.9,-6.782
40.77,-100.478,-6.427
40.8,-95.775,-6.026
40.83,-91.107,-5.682
40.86,-86.826,-5.441
40.9,-83.105,-5.258
40.93,-79.666,-5.052
40.96,-76.192,-4.846
40.99,-72.682,-4.605
41.03,-69.102,-4.376
41.06,-65.593,-4.135
41.09,-62.259,-3.929
41.12,-58.784,-3.631
41.16,-55.205,-3.311
41.19,-51.52,-3.093
41.22,-48.361,-2.921
41.25,-45.308,-2.669
41.29,-42.29,-2.44
41.32,-39.026,-2.154
41.35,-35.622,-1.844
41.38,-32.288,-1.581
41.42,-28.462,-1.249
41.45,-24.426,-0.894
41.48,-20.531,-0.699
41.51,-16.986,-0.504
41.55,-13.266,-0.172
41.58,-9.055,0.229
41.61,-4.282,0.515
41.64,0.351,0.561
41.68,4.352,0.642
41.71,8.177,0.756
41.74,11.932,0.997
41.77,15.126,1.283
41.81,17.793,1.524
41.84,20.11,2.005
41.87,23.444,2.543
41.9,27.444,2.612
41.94,30.568,2.772
41.97,33.551,3.219
42.0,36.71,3.448
42.04,39.903,3.563
42.07,43.448,3.987
42.1,47.729,4.376
42.13,51.801,4.513
42.17,55.591,4.777
42.2,59.1,5.132
42.23,62.469,5.292
42.26,65.593,5.453
42.3,68.752,5.831
42.33,72.331,6.14
42.36,76.051,6.381
42.39,79.42,6.621
42.43,82.333,6.805
42.46,85.211,7.034
42.49,88.335,7.4
42.52,91.739,7.664
42.56,95.038,7.893
42.59,98.021,8.179
42.62,101.004,8.466
42.65,104.163,8.752
42.69,107.672,9.084
42.72,111.533,9.428
42.75,115.393,9.772
42.78,119.078,10.058
42.82,122.623,10.264
42.85,125.781,10.493
42.88,128.448,10.654
42.91,131.116,10.871
42.95,134.169,11.249
42.98,138.135,11.662
43.01,141.995,11.902
43.04,145.154,11.994
43.08,147.891,12.303
43.11,150.243,12.406
43.14,152.594,12.532
43.17,155.367,12.968
43.21,158.104,13.048
43.24,159.157,12.842
43.27,160.104,13.128
43.3,162.877,13.758
43.34,166.632,14.079
43.37,170.001,14.274
43.4,172.774,14.571
43.44,175.02,14.778
43.47,177.126,14.961
43.5,180.109,15.316
43.53,184.109,15.706
43.57,188.005,16.015
43.6,191.409,16.233
43.63,194.217,16.37
43.66,196.288,16.393
43.7,198.077,16.439
43.73,199.973,16.519
43.76,202.148,16.771
43.79,204.851,16.989
43.83,207.378,17.103
43.86,209.273,17.264
43.89,210.782,17.355
43.92,211.835,17.367
43.96,212.782,17.435
43.99,214.291,17.71
44.02,216.818,18.088
44.05,220.117,18.432
44.09,223.416,18.787
44.12,225.662,18.821
44.15,226.61,18.776
44.18,227.171,18.833
44.22,228.4,18.902
44.25,230.014,18.982
44.28,231.839,19.142
44.31,233.769,19.474
44.35,235.629,19.612
44.38,237.454,19.726
44.41,239.244,19.99
44.44,240.823,19.956
44.48,241.701,19.898
44.51,243.175,20.219
44.54,245.982,20.586
44.57,248.79,20.631
44.61,250.966,20.838
44.64,253.177,21.09
44.67,255.598,21.158
44.71,257.002,20.987
44.74,257.774,20.964
44.77,259.178,21.09
44.8,261.319,21.227
44.84,263.6,21.388
44.87,265.671,21.502
44.9,267.426,21.548
44.93,268.9,21.571
44.97,269.672,21.422
45.0,270.128,21.284
45.03,270.9,21.376
45.06,272.339,21.468
45.1,273.813,21.64
45.13,275.392,21.766
45.16,276.761,21.788
45.19,277.884,21.823
45.23,278.586,21.777
45.26,279.182,21.708
45.29,279.814,21.743
45.32,280.762,21.834
45.36,282.201,21.949
45.39,283.675,22.109
45.42,285.429,22.258
45.45,286.903,22.27
45.49,288.097,22.247
45.52,288.939,22.189
45.55,289.465,22.063
45.58,289.886,21.972
45.62,290.553,22.018
45.65,291.641,22.063
45.68,292.378,21.949
45.71,292.519,21.926
45.75,292.94,21.983
45.78,293.642,21.96
45.81,293.993,21.914
45.84,294.344,21.972
45.88,295.045,22.018
45.91,295.572,21.937
45.94,295.432,21.8
45.97,294.765,21.594
46.01,293.747,21.41
46.04,292.905,21.307
46.07,292.308,21.204
46.11,291.817,21.273
46.14,291.747,21.479
46.17,292.027,21.594
46.2,291.922,21.525
46.24,291.01,21.41
46.27,289.781,21.273
46.3,288.553,21.021
46.33,287.149,20.895
46.37,286.061,20.895
46.4,285.289,20.929
46.43,284.622,20.941
46.46,283.394,20.861
46.5,281.779,20.7
46.53,279.498,20.448
46.56,277.112,20.265
46.59,274.936,20.173
46.63,273.427,20.185
46.66,272.234,20.265
46.69,271.111,20.334
46.72,269.952,20.311
46.76,268.338,20.265
46.79,265.881,19.99
46.82,263.144,19.726
46.85,260.828,19.704
46.89,259.599,19.818
46.92,258.827,19.795
46.95,257.634,19.726
46.98,255.984,19.795
47.02,254.616,19.807
47.05,252.65,19.383
47.08,249.808,19.005
47.11,248.264,19.36
47.15,248.193,19.383
47.18,246.895,18.913
47.21,243.701,18.73
47.24,242.227,18.959
47.28,243.315,19.337
47.31,244.333,19.165
47.34,242.894,18.821
47.37,240.332,18.638
47.41,238.297,18.432
47.44,236.752,18.111
47.47,234.962,17.79
47.51,232.506,17.538
47.54,229.558,17.241
47.57,226.645,16.977
47.6,223.872,16.84
47.64,220.749,16.519
47.67,216.573,16.015
47.7,212.958,16.038
47.73,212.115,16.53
47.77,212.502,16.611
47.8,211.028,16.175
47.83,208.606,16.267
47.86,208.115,16.656
47.9,207.939,16.152
47.93,205.833,15.591
47.96,202.991,15.488
47.99,200.885,15.293
48.03,198.569,14.766
48.06,195.305,14.354
48.09,191.901,14.125
48.12,189.058,13.953
48.16,186.426,13.724
48.19,183.759,13.46
48.22,181.267,13.403
48.25,179.091,13.311
48.29,176.073,12.865
48.32,171.861,12.315
48.35,167.685,12.235
48.38,164.877,12.223
48.42,162.421,11.799
48.45,159.438,11.57
48.48,157.121,11.708
48.51,155.753,11.696
48.55,153.682,11.272
48.58,150.313,10.814
48.61,146.803,10.677
48.64,144.417,10.642
48.68,142.557,10.333
48.71,139.89,9.863
48.74,136.345,9.577
48.78,132.8,9.405
48.81,129.396,8.993
48.84,125.571,8.58
48.87,121.851,8.408
48.91,118.832,8.259
48.94,115.884,7.939
48.97,112.55,7.664
49.0,109.532,7.561
49.04,106.9,7.389
49.07,103.601,6.954
49.1,99.179,6.427
49.13,94.09,6.003
49.17,89.177,5.739
49.2,84.86,5.487
49.23,80.93,5.212
49.26,77.701,5.144
49.3,75.244,5.132
49.33,72.542,4.811
49.36,68.436,4.273
49.39,63.908,4.021
49.43,60.434,4.055
49.46,57.942,3.815
49.49,54.924,3.379
49.52,51.59,3.242
49.56,48.396,3.059
49.59,44.852,2.6
49.62,40.43,2.188
49.65,36.148,1.982
49.69,32.463,1.799
49.72,29.164,1.524
49.75,25.655,1.249
49.78,22.215,1.077
49.82,18.741,0.859
49.85,15.021,0.561
49.88,10.915,0.252
49.91,6.738,0.103
49.95,2.773,-0.069
49.98,-1.263,-0.229
50.01,-5.51,-0.355
50.04,-9.09,-0.378
50.08,-11.792,-0.458
50.11,-14.003,-0.79
50.14,-16.67,-1.352
50.18,-19.759,-1.913
50.21,-23.338,-2.371
50.24,-27.585,-2.864
50.27,-32.533,-3.414
50.31,-36.218,-3.07
50.34,-37.517,-2.807
50.37,-39.622,-3.723
50.4,-42.921,-4.021
50.44,-45.905,-3.689
50.47,-48.361,-4.216
50.5,-52.011,-4.88
50.53,-56.468,-5.121
50.57,-60.504,-5.361
50.6,-64.189,-5.739
50.63,-67.558,-5.968
50.66,-70.787,-6.163
50.7,-73.84,-6.507
50.73,-77.315,-6.828
50.76,-80.579,-6.965
50.79,-83.878,-7.251
50.83,-87.387,-7.698
50.86,-91.072,-7.893
50.89,-94.301,-8.065
50.92,-97.284,-8.351
50.96,-100.443,-8.649
50.99,-103.777,-8.912
51.02,-106.97,-9.164
51.05,-110.269,-9.462
51.09,-113.814,-9.852
51.12,-117.78,-10.195
51.15,-121.71,-10.447
51.18,-124.834,-10.619
51.22,-127.361,-10.768
51.25,-129.958,-11.009
51.28,-132.414,-11.192
51.31,-134.976,-11.364
51.35,-137.889,-11.73
51.38,-141.504,-12.154
51.41,-145.189,-12.406
51.44,-148.277,-12.532
51.48,-151.155,-12.83
51.51,-154.349,-13.197
51.54,-157.753,-13.414
51.58,-160.982,-13.598
51.61,-164.07,-13.873
51.64,-167.159,-14.136
51.67,-169.861,-14.216
51.71,-171.896,-14.331
51.74,-174.037,-14.514
51.77,-176.424,-14.686
51.8,-178.845,-14.869
51.84,-181.407,-15.121
51.87,-184.496,-15.522
51.9,-187.794,-15.889
51.93,-190.883,-16.026
51.97,-193.304,-16.118
52.0,-195.235,-16.267
52.03,-196.849,-16.393
52.06,-198.709,-16.462
52.1,-200.674,-16.633
52.13,-203.026,-16.966
52.16,-205.623,-17.115
52.19,-207.693,-17.195
52.23,-209.062,-17.286
52.26,-210.15,-17.447
52.29,-211.484,-17.527
52.32,-213.239,-17.733
52.36,-215.414,-18.008
52.39,-217.906,-18.272
52.42,-220.468,-18.512
52.45,-222.679,-18.753
52.49,-224.539,-18.833
52.52,-225.908,-18.844
52.55,-227.101,-18.947
52.58,-229.207,-19.199
52.62,-231.909,-19.463
52.65,-234.717,-19.726
52.68,-237.349,-19.956
52.71,-239.771,-20.024
52.75,-241.455,-20.104
52.78,-243.35,-20.208
52.81,-245.175,-20.23
52.85,-246.719,-20.15
52.88,-248.474,-20.379
52.91,-251.036,-20.609
52.94,-253.352,-20.677
52.98,-254.932,-20.7
53.01,-256.125,-20.769
53.04,-257.353,-20.792
53.07,-258.511,-20.757
53.11,-259.88,-20.849
53.14,-261.389,-20.987
53.17,-263.179,-21.113
53.2,-264.723,-21.216
53.24,-266.092,-21.307
53.27,-267.145,-21.273
53.3,-267.601,-21.193
53.33,-268.233,-21.261
53.37,-269.566,-21.41
53.4,-271.146,-21.582
53.43,-273.006,-21.8
53.46,-274.831,-21.857
53.5,-276.164,-21.914
53.53,-277.533,-21.903
53.56,-278.27,-21.937
53.59,-279.358,-21.937
53.63,-280.376,-21.788
53.66,-281.183,-21.811
53.69,-282.271,-21.983
53.72,-283.71,-22.075
53.76,-285.078,-22.109
53.79,-286.272,-22.166
53.82,-287.184,-22.086
53.85,-287.711,-21.983
53.89,-287.851,-21.834
53.92,-287.816,-21.777
53.95,-288.623,-21.857
53.98,-289.536,-21.949
54.02,-290.097,-21.937
54.05,-290.273,-21.926
54.08,-290.729,-21.983
54.11,-291.36,-21.937
54.15,-291.536,-21.823
54.18,-291.782,-21.892
54.21,-292.764,-22.006
54.25,-293.852,-22.029
54.28,-294.589,-22.018
54.31,-295.081,-22.063
54.34,-295.396,-21.972
54.38,-295.256,-21.731
54.41,-294.379,-21.491
54.44,-293.782,-21.422
54.47,-293.782,-21.399
54.51,-293.607,-21.422
54.54,-293.115,-21.399
54.57,-292.238,-21.273
54.6,-290.588,-21.032
54.64,-288.518,-20.792
54.67,-286.588,-20.586
54.7,-285.043,-20.574
54.73,-284.131,-20.735
54.77,-283.394,-20.792
54.8,-282.341,-20.712
54.83,-280.446,-20.631
54.86,-278.235,-20.494
54.9,-276.234,-20.253
54.93,-274.199,-20.185
54.96,-273.146,-20.345
54.99,-272.83,-20.505
55.03,-272.234,-20.54
55.06,-271.111,-20.551
55.09,-269.742,-20.425
55.12,-267.671,-20.082
55.16,-265.144,-19.852
55.19,-263.109,-19.726
55.22,-261.635,-19.646
55.25,-260.126,-19.623
55.29,-258.617,-19.635
55.32,-257.213,-19.6
55.35,-255.774,-19.543
55.38,-253.879,-19.28
55.42,-251.492,-19.096
55.45,-249.527,-19.096
55.48,-248.579,-19.073
55.51,-247.386,-18.959
55.55,-245.702,-18.844
55.58,-243.561,-18.684
55.61,-241.49,-18.432
55.65,-238.016,-17.939
55.68,-234.647,-17.745
55.71,-232.787,-17.951
55.74,-231.664,-17.848
55.78,-230.084,-17.676
55.81,-228.154,-17.733
55.84,-226.294,-17.584
55.87,-224.644,-17.458
55.91,-222.644,-17.252
55.94,-220.609,-17.092
55.97,-218.011,-16.794
56.0,-215.379,-16.462
56.04,-212.993,-16.473
56.07,-211.694,-16.381
56.1,-210.712,-16.416
56.13,-209.448,-16.301
56.17,-207.202,-15.923
56.2,-204.57,-15.648
56.23,-202.499,-15.591
56.26,-201.096,-15.408
56.3,-199.446,-15.156
56.33,-197.235,-14.972
56.36,-194.919,-14.789
56.39,-192.567,-14.468
56.43,-189.935,-14.102
56.46,-186.952,-13.873
56.49,-184.18,-13.655
56.52,-181.688,-13.506
56.56,-179.688,-13.392
56.59,-177.933,-13.3
56.62,-175.616,-13.002
56.65,-172.704,-12.681
56.69,-169.475,-12.349
56.72,-166.457,-12.246
56.75,-163.579,-11.856
56.78,-160.315,-11.421
56.82,-157.648,-11.559
56.85,-155.823,-11.467
56.88,-153.928,-11.112
56.92,-151.295,-10.929
56.95,-148.312,-10.711
56.98,-145.294,-10.344
57.01,-141.925,-10.035
57.05,-138.591,-9.703
57.08,-135.397,-9.439
57.11,-132.52,-9.268
57.14,-129.782,-9.073
57.18,-126.974,-8.775
57.21,-123.711,-8.466
57.24,-120.447,-8.202
57.27,-117.078,-7.962
57.31,-114.024,-7.767
57.34,-111.357,-7.549
57.37,-108.409,-7.251
57.4,-104.829,-6.873
57.44,-100.583,-6.507
57.47,-95.95,-6.106
57.5,-91.318,-5.693
57.53,-86.685,-5.396
57.57,-82.684,-5.235
57.6,-79.175,-5.075
57.63,-75.946,-4.846
57.66,-72.612,-4.639
57.7,-69.313,-4.433
57.73,-65.733,-4.158
57.76,-62.329,-3.941
57.79,-59.206,-3.78
57.83,-56.609,-3.62
57.86,-54.012,-3.368
57.89,-50.993,-3.047
57.92,-47.449,-2.715
57.96,-43.658,-2.406
57.99,-39.517,-1.97
58.02,-35.236,-1.638
58.05,-31.305,-1.455
58.09,-27.866,-1.249
58.12,-24.461,-0.997
58.15,-20.882,-0.71
58.18,-16.846,-0.367
58.22,-12.494,-0.115
58.25,-8.282,0.137
58.28,-4.247,0.355
58.32,-0.351,0.47
58.35,3.369,0.573
58.38,7.054,0.687
58.41,10.564,0.894
58.45,13.933,1.18
58.48,17.021,1.524
58.51,20.145,2.051
58.54,23.479,2.532
58.58,26.918,2.566
58.61,30.077,2.818
58.64,33.727,3.356
58.67,38.043,3.62
58.71,41.939,3.677
58.74,44.676,3.78
58.77,47.308,4.078
58.8,50.572,4.41
58.84,54.222,4.639
58.87,57.767,4.857
58.9,61.241,5.212
58.93,64.961,5.544
58.97,68.436,5.762
59.0,71.805,5.991
59.03,74.928,6.301
59.06,78.087,6.518
59.1,81.035,6.701
59.13,84.229,7.045
59.16,87.633,7.435
59.19,91.318,7.687
59.23,94.897,7.939
59.26,98.126,8.214
59.29,101.215,8.511
59.32,104.514,8.763
59.36,107.777,9.038
59.39,111.217,9.313
59.42,114.867,9.668
59.45,118.517,9.955
59.49,122.061,10.23
59.52,125.15,10.413
59.55,128.133,10.654
59.58,131.046,10.894
59.62,133.994,11.1
59.65,136.977,11.318
59.68,140.03,11.604
59.72,143.82,12.074
59.75,148.383,12.521
59.78,152.068,12.59
59.81,154.84,12.761
59.85,157.297,13.014
59.88,159.859,13.071
59.91,162.21,13.254
59.94,164.877,13.483
59.98,167.615,13.792
60.01,170.352,13.907
60.04,172.458,14.045
60.07,174.388,14.297
60.11,176.669,14.549
60.14,179.196,14.732
60.17,181.934,15.11
60.2,185.303,15.488
60.24,188.602,15.717
60.27,191.515,15.912
60.3,194.006,16.141
60.33,196.077,16.21
60.37,198.007,16.278
60.4,199.902,16.427
60.43,202.219,16.633
60.46,204.57,16.817
60.5,206.641,16.966
60.53,208.501,17.103
60.56,210.291,17.309
60.59,211.484,17.275
60.63,211.94,17.16
60.66,213.905,17.745
60.69,217.485,18.249
60.72,220.679,18.272
60.76,222.469,18.409
60.79,223.943,18.569
60.82,225.206,18.65
60.85,226.469,18.581
60.89,227.838,18.741
60.92,229.768,19.016
60.95,232.12,19.211
60.99,234.331,19.394
61.02,236.542,19.715
61.05,238.472,19.807
61.08,239.876,19.795
61.12,241.35,19.933
61.15,243.069,20.001
61.18,244.789,20.093
61.21,246.649,20.265
61.25,248.825,20.471
61.28,251.106,20.654
61.31,253.317,20.792
61.34,255.283,20.872
61.38,256.335,20.735
61.41,256.967,20.677
61.44,258.195,20.883
61.47,260.617,21.113
61.51,262.968,21.239
61.54,264.899,21.41
61.57,266.478,21.479
61.6,267.636,21.433
61.64,268.303,21.307
61.67,268.97,21.261
61.7,270.198,21.353
61.73,271.777,21.502
61.77,273.497,21.662
61.8,275.076,21.766
61.83,276.55,21.811
61.86,277.989,21.914
61.9,279.182,21.903
61.93,280.165,21.811
61.96,280.972,21.8
61.99,282.201,21.903
62.03,283.71,21.949
62.06,285.289,22.075
62.09,286.903,22.212
62.12,288.342,22.178
62.16,289.009,22.109
62.19,289.536,21.995
62.22,289.816,21.811
62.25,289.922,21.754
62.29,290.413,21.777
62.32,291.325,21.823
62.35,291.817,21.8
62.39,292.097,21.892
62.42,292.238,21.8
62.45,292.413,21.754
62.48,292.975,21.892
62.52,293.361,21.8
62.55,293.642,21.743
62.58,293.782,21.823
62.61,294.203,21.811
62.65,294.8,21.903
62.68,294.098,21.479
62.71,293.221,21.514
62.74,292.87,21.502
62.78,292.203,21.124
62.81,291.08,21.273
62.84,292.027,21.72
62.87,292.448,21.536
62.91,290.939,21.124
62.94,288.342,21.067
62.97,287.254,20.987
63.0,286.798,20.918
63.04,285.921,20.792
63.07,284.692,20.918
63.1,283.78,20.964
63.13,282.657,20.872
63.17,281.148,20.7
63.2,279.042,20.517
63.23,276.691,20.368
63.26,274.655,20.219
63.3,272.865,20.208
63.33,271.672,20.368
63.36,270.9,20.448
63.39,269.882,20.425
63.43,268.127,20.379
63.46,265.987,20.162
63.49,263.565,19.898
63.52,261.6,19.807
63.56,260.371,19.852
63.59,259.424,19.864
63.62,258.546,19.921
63.65,257.423,19.898
63.69,255.704,19.669
63.72,253.317,19.44
63.75,251.106,19.257
63.79,249.457,19.165
63.82,248.685,19.268
63.85,248.228,19.337
63.88,247.246,19.188
63.92,245.386,19.051
63.95,243.14,18.764
63.98,240.262,18.283
64.01,236.893,17.951
64.05,234.12,17.894
64.08,232.26,17.871
64.11,230.576,17.768
64.14,228.68,17.802
64.18,227.136,17.836
64.21,225.452,17.63
64.24,223.1,17.412
64.27,220.959,17.286
64.31,219.135,17.183
64.34,217.415,17.0
64.37,215.309,16.759
64.4,212.852,16.485
64.44,210.255,16.29
64.47,207.518,16.084
64.5,204.184,15.614
64.53,200.359,15.328
64.57,197.34,15.339
64.6,195.305,15.247
64.63,193.62,15.098
64.66,191.866,15.144
64.7,190.602,15.19
64.73,189.409,15.041
64.76,187.689,14.812
64.79,185.724,14.594
64.83,183.759,14.365
64.86,181.512,14.067
64.89,179.196,13.815
64.92,177.231,13.666
64.96,175.195,13.38
64.99,172.528,12.991
65.02,169.545,12.739
65.06,166.772,12.544
65.09,164.07,12.257
65.12,161.473,11.971
65.15,158.736,11.834
65.19,156.876,11.685
65.22,155.612,11.799
65.25,153.471,11.272
65.28,149.611,10.619
65.32,145.189,10.516
65.35,141.785,10.299
65.38,138.977,9.909
65.41,135.994,9.691
65.45,132.52,9.348
65.48,129.396,9.256
65.51,126.904,9.176
65.54,124.623,8.901
65.58,121.675,8.592
65.61,117.885,8.191
65.64,113.779,7.87
65.67,110.164,7.652
65.71,107.076,7.423
65.74,103.812,7.08
65.77,100.056,6.724
65.8,95.81,6.392
65.84,91.563,6.106
65.87,87.808,5.888
65.9,84.544,5.728
65.93,81.351,5.464
65.97,78.087,5.189
66.0,74.437,4.937
66.03,70.822,4.697
66.06,67.137,4.376
66.1,63.382,4.067
66.13,59.837,3.883
66.16,56.573,3.677
66.19,53.204,3.356
66.23,49.554,3.036
66.26,45.764,2.807
66.29,42.044,2.543
66.32,38.289,2.211
66.36,34.464,1.97
66.39,30.919,1.799
66.42,27.515,1.512
66.46,23.795,1.237
66.49,20.32,1.065
66.52,16.986,0.894
66.55,13.582,0.619
66.59,9.756,0.321
66.62,5.58,0.034
66.65,1.228,-0.172
66.68,-3.053,-0.206
66.72,-7.054,-0.321
66.75,-10.739,-0.527
66.78,-13.898,-0.71
66.81,-16.705,-1.054
66.85,-19.864,-1.73
66.88,-23.619,-2.348
66.91,-27.515,-2.738
66.94,-31.27,-3.024
66.98,-35.165,-3.253
67.01,-38.57,-3.368
67.04,-41.693,-3.654
67.07,-44.992,-3.987
67.11,-48.151,-4.124
67.14,-50.958,-4.307
67.17,-53.766,-4.628
67.2,-57.1,-5.006
67.24,-60.785,-5.315
67.27,-64.4,-5.579
67.3,-67.804,-5.877
67.33,-71.173,-6.175
67.37,-74.753,-6.518
67.4,-78.683,-6.85
67.43,-82.544,-7.16
67.46,-86.334,-7.435
67.5,-89.774,-7.641
67.53,-93.002,-7.904
67.56,-96.477,-8.214
67.59,-99.986,-8.431
67.63,-103.215,-8.66
67.66,-106.128,-8.855
67.69,-109.041,-9.119
67.72,-112.34,-9.474
67.76,-115.709,-9.68
67.79,-118.727,-9.886
67.82,-122.026,-10.344
67.86,-125.5,-10.539
67.89,-128.448,-10.654
67.92,-131.221,-10.963
67.95,-134.204,-11.295
67.99,-137.433,-11.513
68.02,-141.364,-11.971
68.05,-145.119,-12.2
68.08,-147.751,-12.143
68.12,-149.4,-12.303
68.15,-152.208,-12.807
68.18,-156.033,-13.208
68.21,-158.595,-12.945
68.25,-159.824,-13.025
68.28,-162.105,-13.621
68.31,-166.141,-14.079
68.34,-170.036,-14.171
68.38,-172.774,-14.388
68.41,-174.809,-14.583
68.44,-177.196,-14.755
68.47,-180.6,-15.282
68.51,-184.039,-15.35
68.54,-186.32,-15.224
68.57,-189.198,-15.889
68.6,-192.427,-16.141
68.64,-194.357,-15.763
68.67,-194.743,-15.774
68.7,-196.674,-16.45
68.73,-200.043,-16.553
68.77,-202.043,-16.381
68.8,-203.517,-16.759
68.83,-206.395,-17.309
68.86,-208.606,-17.16
68.9,-209.132,-16.84
68.93,-209.343,-17.206
68.96,-211.659,-17.619
68.99,-214.467,-17.722
69.03,-216.502,-17.825
69.06,-218.257,-18.249
69.09,-220.924,-18.615
69.13,-223.135,-18.604
69.16,-224.294,-18.489
69.19,-225.452,-18.821
69.22,-227.733,-19.028
69.26,-229.979,-19.016
69.29,-231.383,-19.154
69.32,-233.208,-19.543
69.35,-235.384,-19.566
69.39,-237.875,-19.807
69.42,-240.578,-20.15
69.45,-242.578,-20.047
69.48,-243.175,-19.921
69.52,-244.193,-20.127
69.55,-246.088,-20.208
69.58,-247.948,-20.219
69.61,-249.702,-20.46
69.65,-252.089,-20.803
69.68,-254.581,-20.941
69.71,-256.195,-20.883
69.74,-257.318,-20.918
69.78,-258.722,-21.067
69.81,-260.722,-21.124
69.84,-262.863,-21.273
69.87,-265.004,-21.456
69.91,-266.759,-21.468
69.94,-267.882,-21.376
69.97,-268.513,-21.307
70.0,-269.321,-21.296
70.04,-270.479,-21.319
70.07,-271.812,-21.422
70.1,-273.462,-21.628
70.13,-275.041,-21.766
70.17,-276.445,-21.811
70.2,-277.744,-21.869
70.23,-278.902,-21.869
70.26,-279.884,-21.811
70.3,-280.656,-21.777
70.33,-281.674,-21.8
70.36,-283.078,-21.926
70.39,-284.622,-22.029
70.43,-285.991,-22.121
70.46,-287.079,-22.098
70.49,-287.781,-22.052
70.53,-288.202,-21.949
70.56,-288.377,-21.834
70.59,-288.728,-21.777
70.62,-289.641,-21.937
70.66,-290.729,-22.063
70.69,-291.571,-22.006
70.72,-291.957,-21.995
70.75,-292.799,-22.132
70.79,-294.168,-22.235
70.82,-294.379,-21.823
70.85,-293.326,-21.708
70.88,-294.379,-22.201
70.92,-296.695,-22.212
70.95,-296.8,-21.788
70.98,-295.186,-21.662
71.01,-294.379,-21.548
71.05,-294.168,-21.376
71.08,-293.185,-21.101
71.11,-291.922,-21.158
71.14,-291.747,-21.445
71.18,-292.273,-21.514
71.21,-292.062,-21.342
71.24,-290.588,-21.25
71.27,-288.728,-21.101
71.31,-287.114,-20.815
71.34,-285.359,-20.654
71.37,-283.885,-20.7
71.4,-283.113,-20.815
71.44,-282.446,-20.895
71.47,-281.429,-20.883
71.5,-279.99,-20.792
71.53,-278.13,-20.666
71.57,-276.27,-20.494
71.6,-274.304,-20.276
71.63,-272.62,-20.322
71.66,-271.883,-20.551
71.7,-271.497,-20.586
71.73,-270.163,-20.437
71.76,-268.233,-20.357
71.8,-266.302,-20.162
71.83,-264.232,-19.898
71.86,-262.161,-19.738
71.89,-260.406,-19.681
71.93,-258.862,-19.715
71.96,-257.704,-19.658
71.99,-256.195,-19.589
72.02,-254.265,-19.497
72.06,-251.949,-19.222
72.09,-248.895,-18.97
72.12,-246.895,-19.062
72.15,-245.877,-19.028
72.19,-244.543,-18.936
72.22,-242.227,-18.787
72.25,-240.437,-18.867
72.28,-239.42,-18.879
72.32,-238.086,-18.512
72.35,-234.962,-18.123
72.38,-231.944,-17.905
72.41,-230.4,-18.111
72.45,-229.979,-18.088
72.48,-228.926,-17.871
72.51,-226.961,-17.802
72.54,-224.75,-17.699
72.58,-222.574,-17.321
72.61,-220.152,-17.0
72.64,-217.661,-16.897
72.67,-215.66,-16.725
72.71,-213.519,-16.542
72.74,-211.554,-16.519
72.77,-210.08,-16.404
72.8,-208.325,-16.233
72.84,-205.833,-15.946
72.87,-203.061,-15.671
72.9,-200.815,-15.522
72.93,-199.165,-15.476
72.97,-197.972,-15.35
73.0,-196.498,-15.213
73.03,-194.533,-15.064
73.06,-192.111,-14.778
73.1,-189.374,-14.377
73.13,-186.601,-14.102
73.16,-183.794,-13.896
73.2,-181.267,-13.666
73.23,-179.161,-13.563
73.26,-177.477,-13.495
73.29,-175.266,-13.208
73.33,-172.318,-12.819
73.36,-169.054,-12.544
73.39,-166.071,-12.383
73.42,-163.509,-12.074
73.46,-161.052,-11.902
73.49,-159.297,-11.902
73.52,-157.578,-11.765
73.55,-153.998,-11.02
73.59,-150.032,-10.825
73.62,-146.698,-10.848
73.65,-144.627,-10.47
73.68,-141.785,-10.173
73.72,-138.17,-9.737
73.75,-134.801,-9.691
73.78,-132.484,-9.68
73.81,-130.519,-9.325
73.85,-127.922,-9.073
73.88,-125.009,-8.878
73.91,-122.096,-8.626
73.94,-118.236,-8.133
73.98,-113.814,-7.606
74.01,-109.813,-7.515
74.04,-106.9,-7.366
74.07,-104.198,-7.057
74.11,-100.969,-6.736
74.14,-96.933,-6.427
74.17,-91.949,-5.9
74.2,-86.685,-5.556
74.24,-82.263,-5.476
74.27,-79.105,-5.327
74.3,-76.016,-5.04
74.33,-72.823,-4.846
74.37,-69.383,-4.685
74.4,-65.663,-4.307
74.43,-61.732,-3.998
74.46,-58.012,-3.849
74.5,-54.994,-3.723
74.53,-52.257,-3.46
74.56,-49.414,-3.242
74.6,-46.045,-2.875
74.63,-42.149,-2.497
74.66,-37.903,-2.211
74.69,-34.323,-2.039
74.73,-30.779,-1.741
74.76,-26.988,-1.317
74.79,-22.952,-1.077
74.82,-19.443,-0.985
74.86,-16.46,-0.825
74.89,-13.161,-0.389
74.92,-8.879,-0.046
74.95,-4.562,0.195
74.99,-0.456,0.344
75.02,3.439,0.481
75.05,7.265,0.596
75.08,10.915,0.779
75.12,14.249,1.088
75.15,17.267,1.42
75.18,19.794,1.81
75.21,22.426,2.303
75.25,26.251,2.623
75.28,30.077,2.921
75.31,33.656,3.196
75.34,37.271,3.471
75.38,41.307,3.861
75.41,45.518,4.113
75.44,49.309,4.204
75.47,52.362,4.342
75.51,55.24,4.628
75.54,58.434,4.88
75.57,62.013,5.178
75.6,65.733,5.487
75.64,69.313,5.728
75.67,72.507,5.934
75.7,75.525,6.232
75.73,78.683,6.484
75.77,81.772,6.736
75.8,85.176,7.057
75.83,88.651,7.412
75.87,92.371,7.687
75.9,95.74,7.95
75.93,98.933,8.202
75.96,102.022,8.443
76.0,105.11,8.706
76.03,108.234,8.981
76.06,111.497,9.256
76.09,115.007,9.6
76.13,118.552,9.909
76.16,122.307,10.184
76.19,125.816,10.482
76.22,128.87,10.677
76.26,131.607,10.848
76.29,134.45,11.135
76.32,137.714,11.456
76.35,140.942,11.604
76.39,144.522,12.086
76.42,148.067,12.338
76.45,150.523,12.154
76.48,153.226,12.773
76.52,157.016,13.197
76.55,160.49,13.117
76.58,162.561,13.14
76.61,164.491,13.472
76.65,166.983,13.747
76.68,169.791,13.861
76.71,172.107,13.999
76.74,174.248,14.251
76.78,175.932,14.342
76.81,178.108,14.606
76.84,181.021,15.156
76.87,184.531,15.362
76.91,187.444,15.534
76.94,190.146,15.9
76.97,193.094,16.187
77.0,195.586,16.175
77.04,197.235,16.278
77.07,199.236,16.507
77.1,201.622,16.668
77.13,204.079,16.897
77.17,206.219,17.023
77.2,208.36,17.218
77.23,210.887,17.527
77.27,212.958,17.527
77.3,213.94,17.435
77.33,214.888,17.642
77.36,217.029,18.02
77.4,219.872,18.214
77.43,222.223,18.329
77.46,224.013,18.558
77.49,225.522,18.673
77.53,226.855,18.695
77.56,228.61,18.947
77.59,230.119,18.947
77.62,231.348,18.936
77.66,232.787,19.314
77.69,235.524,19.681
77.72,238.472,19.852
77.75,240.332,19.875
77.79,241.28,19.921
77.82,242.403,20.001
77.85,244.193,20.116
77.88,246.333,20.322
77.92,248.544,20.494
77.95,250.58,20.563
77.98,252.264,20.712
78.01,254.405,20.964
78.05,256.335,20.952
78.08,257.704,20.929
78.11,259.248,21.124
78.14,261.494,21.284
78.18,263.53,21.353
78.21,265.32,21.433
78.24,266.934,21.479
78.27,268.373,21.548
78.31,269.531,21.41
78.34,270.268,21.273
78.37,271.075,21.41
78.4,272.725,21.525
78.44,274.269,21.582
78.47,275.743,21.708
78.5,277.217,21.823
78.53,278.761,21.823
78.57,279.709,21.8
78.6,280.411,21.777
78.63,281.183,21.766
78.67,282.376,21.88
78.7,283.815,21.903
78.73,285.149,22.029
78.76,286.623,22.144
78.8,287.886,22.109
78.83,288.658,22.04
78.86,289.079,21.96
78.89,289.36,21.788
78.93,289.465,21.766
78.96,290.202,21.811
78.99,291.115,21.846
79.02,291.852,21.892
79.06,292.624,21.983
79.09,293.466,22.04
79.12,294.624,22.189
79.15,294.87,21.949
79.19,293.958,21.571
79.22,293.852,21.811
79.25,295.01,21.949
79.28,295.326,21.559
79.32,294.695,21.64
79.35,293.15,21.33
79.38,292.133,21.25
79.41,291.676,21.296
79.45,291.22,21.17
79.48,290.974,21.422
79.51,292.238,21.823
79.54,292.729,21.743
79.58,291.185,21.261
79.61,288.799,21.055
79.64,287.956,21.158
79.67,287.114,20.849
79.71,285.008,20.379
79.74,282.903,20.723
79.77,282.552,20.952
79.8,282.201,20.735
79.84,280.586,20.631
79.87,278.41,20.689
79.9,276.41,20.437
79.94,274.164,20.208
79.97,272.549,20.265
80.0,271.742,20.379
80.03,270.935,20.379
80.07,269.637,20.379
80.1,268.022,20.357
80.13,266.127,20.139
80.16,263.951,19.921
80.2,262.056,19.841
80.23,260.722,19.864
80.26,259.354,19.83
80.29,257.95,19.749
80.33,256.862,19.841
80.36,255.844,19.738
80.39,253.387,19.291
80.42,249.808,18.879
80.46,247.878,19.177
80.49,247.842,19.314
80.52,247.211,19.005
80.55,244.789,18.833
80.59,242.368,18.867
80.62,240.613,18.661
80.65,238.297,18.283
80.68,235.629,18.088
80.72,233.313,18.054
80.75,231.558,17.974
80.78,229.803,17.768
80.81,227.663,17.699
80.85,225.978,17.733
80.88,224.574,17.596
80.91,222.679,17.355
80.94,220.433,17.229
80.98,218.398,17.103
81.01,216.467,16.874
81.04,214.432,16.645
81.07,212.256,16.485
81.11,210.115,16.313
81.14,207.834,16.084
81.17,205.026,15.797
81.2,202.219,15.625
81.24,199.937,15.522
81.27,198.358,15.408
81.3,197.025,15.339
81.34,195.621,15.259
81.37,194.182,15.179
81.4,192.392,14.949
81.43,190.216,14.617
81.47,187.724,14.354
81.5,185.338,14.113
81.53,182.951,13.781
81.56,180.53,13.552
81.6,178.214,13.38
81.63,175.932,13.082
81.66,173.055,12.773
81.69,170.036,12.544
81.73,167.334,12.395
81.76,164.632,12.097
81.79,161.859,11.799
81.82,159.157,11.696
81.86,156.665,11.49
81.89,154.138,11.215
81.92,151.506,10.974
81.95,148.312,10.654
81.99,144.978,10.344
82.02,141.504,10.104
82.05,138.451,9.852
82.08,135.608,9.646
82.12,132.309,9.256
82.15,129.431,9.164
82.18,127.22,9.164
82.21,125.255,8.855
82.25,122.412,8.5
82.28,118.657,8.122
82.31,114.551,7.778
82.34,111.147,7.561
82.38,108.234,7.389
82.41,104.9,6.896
82.44,100.056,6.335
82.47,94.617,5.98
82.51,89.633,5.785
82.54,85.597,5.544
82.57,82.123,5.35
82.6,78.789,5.166
82.64,75.455,4.926
82.67,72.05,4.754
82.7,68.997,4.651
82.74,66.505,4.513
82.77,63.873,4.239
82.8,60.82,3.929
82.83,57.486,3.654
82.87,54.117,3.379
82.9,50.432,3.024
82.93,46.642,2.669
82.96,42.606,2.36
83.0,38.991,2.222
83.03,35.938,2.039
83.06,32.674,1.627
83.09,28.638,1.26
83.13,24.426,1.042
83.16,20.636,0.894
83.19,16.951,0.607
83.22,12.95,0.286
83.26,8.633,0.057
83.29,4.001,-0.218
83.32,-0.562,-0.344
83.35,-4.492,-0.206
83.39,-7.721,-0.241
83.42,-10.669,-0.573
83.45,-13.406,-0.779
83.48,-15.933,-1.146
83.52,-18.951,-1.764
83.55,-22.742,-2.44
83.58,-27.058,-2.83
83.61,-31.445,-3.139
83.65,-35.797,-3.23
83.68,-38.78,-3.311
83.71,-41.202,-3.563
83.74,-43.904,-3.769
83.78,-46.747,-4.067
83.81,-50.151,-4.342
83.84,-53.731,-4.697
83.87,-57.697,-5.098
83.91,-61.557,-5.361
83.94,-65.067,-5.59
83.97,-68.471,-5.911
84.01,-72.086,-6.266
84.04,-75.771,-6.518
84.07,-79.21,-6.713
84.1,-82.368,-6.976
84.14,-85.632,-7.274
84.17,-89.177,-7.595
84.2,-92.967,-7.904
84.23,-96.582,-8.202
84.27,-100.021,-8.397
84.3,-102.794,-8.58
84.33,-105.391,-8.786
84.36,-108.163,-9.096
84.4,-111.708,-9.52
84.43,-115.533,-9.794
84.46,-119.183,-9.989
84.49,-122.482,-10.321
84.53,-125.5,-10.505
84.56,-128.027,-10.654
84.59,-130.73,-10.952
84.62,-133.888,-11.272
84.66,-137.363,-11.513
84.69,-140.907,-11.834
84.72,-144.592,-12.269
84.75,-147.961,-12.418
84.79,-150.523,-12.464
84.82,-152.629,-12.67
84.85,-155.753,-13.128
84.88,-159.402,-13.414
84.92,-162.631,-13.506
84.95,-165.263,-13.689
84.98,-167.755,-13.953
85.01,-170.387,-14.171
85.05,-173.09,-14.365
85.08,-175.441,-14.514
85.11,-177.441,-14.606
85.14,-179.161,-14.743
85.18,-181.372,-15.087
85.21,-184.46,-15.396
85.24,-187.654,-15.648
85.27,-190.637,-15.935
85.31,-193.234,-16.164
85.34,-195.515,-16.267
85.37,-197.411,-16.324
85.41,-199.236,-16.439
85.44,-201.06,-16.576
85.47,-203.061,-16.828
85.5,-205.518,-17.057
85.54,-208.08,-17.298
85.57,-210.396,-17.447
85.6,-211.975,-17.493
85.63,-212.888,-17.573
85.67,-214.186,-17.687
85.7,-215.976,-17.905
85.73,-218.398,-18.226
85.76,-221.135,-18.501
85.8,-223.872,-18.764
85.83,-226.224,-18.936
85.86,-227.768,-18.936
85.89,-228.891,-18.913
85.93,-230.295,-19.073
85.96,-232.295,-19.28
85.99,-234.892,-19.474
86.02,-237.103,-19.658
86.06,-239.139,-19.841
86.09,-240.823,-19.944
86.12,-242.262,-19.91
86.15,-243.561,-19.933
86.19,-245.175,-20.127
86.22,-247.246,-20.345
86.25,-249.422,-20.528
86.28,-251.668,-20.712
86.32,-253.879,-20.849
86.35,-255.353,-20.815
86.38,-256.195,-20.757
86.41,-257.213,-20.849
86.45,-258.932,-20.964
86.48,-260.898,-21.044
86.51,-262.688,-21.17
86.54,-264.197,-21.33
86.58,-265.776,-21.445
86.61,-267.18,-21.41
86.64,-268.233,-21.365
86.67,-269.321,-21.445
86.71,-270.584,-21.525
86.74,-272.093,-21.594
86.77,-273.848,-21.766
86.81,-275.638,-21.811
86.84,-277.077,-21.846
86.87,-278.41,-21.903
86.9,-279.358,-21.834
86.94,-279.99,-21.8
86.97,-280.656,-21.777
87.0,-281.534,-21.834
87.03,-283.043,-21.96
87.07,-284.517,-22.052
87.1,-285.815,-22.166
87.13,-287.009,-22.109
87.16,-287.675,-22.04
87.2,-288.097,-21.983
87.23,-288.307,-21.846
87.26,-288.483,-21.8
87.29,-289.465,-21.972
87.33,-290.659,-22.029
87.36,-291.22,-21.983
87.39,-291.396,-22.029
87.42,-292.308,-22.109
87.46,-292.624,-21.8
87.49,-292.238,-21.72
87.52,-292.378,-21.995
87.55,-292.87,-21.754
87.59,-293.536,-21.937
87.62,-294.308,-22.121
87.65,-294.344,-21.743
87.68,-293.291,-21.525
87.72,-292.694,-21.674
87.75,-292.694,-21.502
87.78,-292.097,-21.319
87.81,-291.711,-21.548
87.85,-292.273,-21.674
87.88,-292.203,-21.502
87.91,-291.115,-21.399
87.94,-289.641,-21.227
87.98,-288.026,-20.929
88.01,-286.096,-20.712
88.04,-284.517,-20.7
88.08,-283.675,-20.815
88.11,-283.113,-20.849
88.14,-281.885,-20.757
88.17,-279.884,-20.677
88.21,-277.708,-20.505
88.24,-275.638,-20.414
88.27,-274.059,-20.368
88.3,-273.006,-20.368
88.34,-271.883,-20.483
88.37,-271.075,-20.494
88.4,-269.987,-20.437
88.43,-268.338,-20.368
88.47,-266.302,-20.15
88.5,-264.127,-19.875
88.53,-262.021,-19.749
88.56,-260.406,-19.738
88.6,-259.213,-19.692
88.63,-257.704,-19.669
88.66,-256.265,-19.681
88.69,-254.791,-19.543
88.73,-252.299,-19.234
88.76,-249.492,-19.028
88.79,-247.597,-19.039
88.82,-246.333,-19.016
88.86,-245.105,-18.97
88.89,-243.21,-18.821
88.92,-241.034,-18.673
88.95,-238.998,-18.592
88.99,-237.103,-18.352
89.02,-234.892,-18.123
89.05,-232.857,-18.054
89.08,-231.277,-18.031
89.12,-229.628,-17.894
89.15,-227.663,-17.768
89.18,-226.294,-17.882
89.21,-225.381,-17.779
89.25,-223.276,-17.252
89.28,-219.942,-16.977
89.31,-217.274,-16.908
89.34,-215.52,-16.725
89.38,-214.011,-16.565
89.41,-212.431,-16.496
89.44,-210.747,-16.381
89.48,-208.641,-16.141
89.51,-205.939,-15.854
89.54,-203.271,-15.602
89.57,-201.025,-15.442
89.61,-199.236,-15.339
89.64,-197.656,-15.19
89.67,-196.042,-15.075
89.7,-194.287,-14.961
89.74,-192.041,-14.663
89.77,-189.304,-14.274
89.8,-186.426,-14.067
89.83,-183.829,-13.884
89.87,-181.723,-13.575
89.9,-179.442,-13.437
89.93,-177.477,-13.403
89.96,-175.301,-13.036
90.0,-172.247,-12.67
90.03,-168.878,-12.464
90.06,-165.965,-12.257
90.09,-163.438,-11.948
90.13,-160.841,-11.799
90.16,-159.157,-11.799
90.19,-157.648,-11.708
90.22,-154.524,-10.929
90.26,-150.558,-10.688
90.29,-147.014,-10.688
90.32,-144.312,-10.23
90.35,-141.048,-9.909
90.39,-137.398,-9.611
90.42,-133.818,-9.439
90.45,-131.291,-9.416
90.48,-129.501,-9.279
90.52,-127.29,-9.004
90.55,-124.518,-8.729
90.58,-121.5,-8.523
90.61,-117.85,-8.133
90.65,-113.884,-7.595
90.68,-110.129,-7.515
90.71,-107.216,-7.332
90.74,-104.128,-6.919
90.78,-100.653,-6.644
90.81,-96.828,-6.369
90.84,-92.195,-5.842
90.88,-86.755,-5.315
90.91,-81.631,-5.098
90.94,-77.631,-5.063
90.97,-74.683,-4.88
91.01,-71.84,-4.685
91.04,-69.067,-4.594
91.07,-66.225,-4.387
91.1,-62.996,-4.044
91.14,-59.486,-3.769
91.17,-56.187,-3.597
91.2,-53.169,-3.368
91.23,-50.116,-3.036
91.27,-46.571,-2.704
91.3,-42.43,-2.325
91.33,-37.938,-1.913
91.36,-33.446,-1.65
91.4,-29.655,-1.512
91.43,-26.567,-1.294
91.46,-23.303,-1.008
91.49,-19.794,-0.768
91.53,-16.039,-0.561
91.56,-12.529,-0.309
91.59,-8.739,-0.034
91.62,-4.878,0.241
91.66,-0.667,0.47
91.69,3.65,0.63
91.72,7.861,0.71
91.75,11.371,0.813
91.79,14.284,1.031
91.82,16.635,1.398
91.85,18.916,1.833
91.88,21.794,2.44
91.92,26.286,2.887
91.95,30.708,3.082
91.98,34.464,3.345
92.01,38.008,3.586
92.05,41.167,3.815
92.08,44.571,4.078
92.11,48.186,4.41
92.15,52.362,4.697
92.18,56.293,4.937
92.21,59.872,5.155
92.24,63.347,5.476
92.28,66.962,5.751
92.31,70.436,5.957
92.34,73.56,6.152
92.37,76.437,6.427
92.41,79.35,6.644
92.44,82.298,6.828
92.47,85.141,7.137
92.5,88.44,7.526
92.54,92.09,7.813
92.57,95.67,8.111
92.6,98.863,8.34
92.63,101.776,8.546
92.67,104.654,8.844
92.7,107.777,9.142
92.73,111.357,9.439
92.76,114.937,9.783
92.8,118.376,10.069
92.83,121.675,10.31
92.86,124.869,10.551
92.89,127.501,10.699
92.93,130.203,10.952
92.96,133.327,11.295
92.99,137.012,11.673
93.02,140.697,11.902
93.06,144.522,12.257
93.09,147.961,12.555
93.12,150.418,12.418
93.15,153.156,12.887
93.19,156.735,13.3
93.22,159.789,13.22
93.25,161.754,13.277
93.28,163.754,13.678
93.32,166.071,13.827
93.35,169.124,14.136
93.38,172.072,14.411
93.41,174.599,14.468
93.45,176.318,14.64
93.48,177.792,14.812
93.51,180.635,15.236
93.55,184.566,15.706
93.58,188.531,15.969
93.61,191.69,16.129
93.64,194.217,16.381
93.68,196.603,16.507
93.71,198.639,16.507
93.74,200.464,16.633
93.77,202.71,16.851
93.81,205.061,17.023
93.84,206.992,17.069
93.87,208.536,17.206
93.9,210.01,17.367
93.94,211.063,17.321
93.97,211.273,17.195
94.0,212.958,17.871
94.03,216.257,18.352
94.07,219.205,18.237
94.1,220.714,18.569
94.13,222.89,19.016
94.16,225.346,19.073
94.2,227.277,19.016
94.23,229.172,19.314
94.26,230.821,19.268
94.29,232.26,19.28
94.33,233.98,19.612
94.36,236.296,19.715
94.39,238.226,19.852
94.42,239.946,19.967
94.46,241.174,19.956
94.49,242.192,20.047
94.52,243.982,20.242
94.55,246.193,20.437
94.59,248.404,20.609
94.62,250.58,20.792
94.65,252.721,20.987
94.68,255.142,21.158
94.72,256.897,21.101
94.75,258.195,21.124
94.78,259.985,21.261
94.81,262.091,21.388
94.85,264.232,21.433
94.88,265.987,21.468
94.91,267.32,21.491
94.95,268.373,21.468
94.98,269.005,21.296
95.01,269.496,21.239
95.04,270.409,21.388
95.08,272.093,21.548
95.11,273.813,21.697
95.14,275.427,21.846
95.17,276.796,21.949
95.21,278.165,21.983
95.24,279.253,21.937
95.27,280.095,21.846
95.3,280.762,21.846
95.34,281.955,21.949
95.37,283.359,22.018
95.4,284.903,22.155
95.43,286.447,22.235
95.47,287.605,22.212
95.5,288.307,22.121
95.53,288.763,21.983
95.56,288.834,21.846
95.6,289.044,21.823
95.63,289.711,21.88
95.66,290.729,21.937
95.69,291.396,21.972
95.73,292.133,22.086
95.76,292.975,22.075
95.79,294.098,22.201
95.82,294.308,21.983
95.86,293.571,21.72
95.89,293.993,21.972
95.92,295.396,22.075
95.95,295.186,21.559
95.99,294.063,21.582
96.02,293.501,21.628
96.05,293.466,21.422
96.08,292.027,21.113
96.12,290.553,21.067
96.15,290.659,21.468
96.18,292.624,21.777
96.22,293.08,21.64
96.25,291.606,21.433
96.28,289.536,21.216
96.31,288.167,20.975
96.35,287.465,20.929
96.38,286.517,20.735
96.41,285.008,20.757
96.44,283.815,20.849
96.48,282.692,20.689
96.51,280.762,20.517
96.54,278.481,20.379
96.57,276.094,20.196
96.61,273.813,20.093
96.64,272.163,20.104
96.67,271.216,20.299
96.7,270.584,20.379
96.74,269.496,20.414
96.77,268.022,20.357
96.8,266.162,20.139
96.83,263.951,19.933
96.87,262.021,19.841
96.9,260.687,19.772
96.93,259.354,19.749
96.96,258.16,19.749
97.0,256.967,19.715
97.03,255.318,19.589
97.06,253.387,19.326
97.09,251.106,19.199
97.13,248.965,19.016
97.16,247.351,18.902
97.19,245.947,18.936
97.22,244.649,18.913
97.26,242.789,18.73
97.29,240.402,18.466
97.32,237.91,18.295
97.35,235.629,18.111
97.39,233.278,17.928
97.42,231.242,17.813
97.45,229.347,17.79
97.48,227.803,17.745
97.52,226.364,17.71
97.55,224.75,17.516
97.58,222.398,17.218
97.62,219.696,16.989
97.65,217.169,16.874
97.68,215.134,16.679
97.71,213.519,16.519
97.75,211.8,16.439
97.78,210.185,16.347
97.81,208.08,16.152
97.84,205.623,15.889
97.88,203.166,15.683
97.91,201.341,15.568
97.94,199.762,15.408
97.97,198.253,15.293
98.01,196.674,15.179
98.04,194.884,14.961
98.07,192.567,14.686
98.1,189.935,14.365
98.14,187.303,14.09
98.17,184.706,13.884
98.2,182.32,13.598
98.23,179.968,13.392
98.27,177.898,13.266
98.3,175.511,13.014
98.33,172.598,12.635
98.36,169.37,12.429
98.4,166.772,12.28
98.43,164.105,11.971
98.46,161.613,11.742
98.49,158.911,11.57
98.53,155.542,11.112
98.56,153.156,11.158
98.59,151.366,11.169
98.62,149.33,10.596
98.66,145.821,10.264
98.69,141.364,9.806
98.72,137.819,9.703
98.75,135.468,9.703
98.79,133.221,9.256
98.82,129.782,8.867
98.85,125.992,8.672
98.88,122.903,8.557
98.92,120.412,8.34
98.95,117.78,8.03
98.98,114.551,7.675
99.02,111.076,7.435
99.05,107.602,7.217
99.08,104.373,6.885
99.11,100.793,6.507
99.15,96.687,6.14
99.18,92.195,5.739
99.21,87.492,5.418
99.24,83.246,5.224
99.28,79.771,5.075
99.31,76.437,4.811
99.34,72.998,4.559
99.37,69.489,4.365
99.41,66.33,4.181
99.44,63.277,3.987
99.47,60.364,3.757
99.5,57.205,3.437
99.54,53.59,3.139
99.57,50.116,2.887
99.6,46.782,2.646
99.63,43.272,2.325
99.67,39.728,2.039
99.7,36.008,1.73
99.73,32.007,1.42
99.76,27.901,1.134
99.8,23.865,0.871
99.83,20.145,0.699
99.86,16.67,0.515
99.89,13.02,0.229
99.93,8.949,-0.034
99.96,4.492,-0.241
99.99,0.281,-0.263
100.02,-3.72,-0.229
100.06,-7.335,-0.378
100.09,-10.599,-0.573
100.12,-13.371,-0.733
100.15,-16.074,-1.191
100.19,-19.197,-1.787
100.22,-22.742,-2.325
100.25,-26.778,-2.738
100.29,-30.954,-3.082
100.32,-35.341,-3.185
100.35,-38.64,-3.288
100.38,-41.377,-3.586
100.42,-44.36,-3.815
100.45,-47.449,-4.078
100.48,-50.853,-4.399
100.51,-54.257,-4.662
100.55,-57.732,-4.937
100.58,-61.382,-5.27
100.61,-65.031,-5.613
100.64,-68.611,-5.888
100.68,-72.226,-6.209
100.71,-75.735,-6.472
100.74,-78.999,-6.679
100.77,-82.158,-6.942
100.81,-85.562,-7.251
100.84,-89.142,-7.561
100.87,-92.897,-7.881
100.9,-96.442,-8.156
100.94,-99.846,-8.374
100.97,-102.689,-8.557
101.0,-105.391,-8.741
101.03,-108.199,-9.027
101.07,-111.533,-9.394
101.1,-115.077,-9.68
101.13,-118.692,-9.909
101.16,-123.5,-10.631
101.2,-129.431,-11.249
101.23,-134.59,-11.307
101.26,-137.328,-11.204
101.29,-138.907,-11.295
101.33,-141.223,-11.696
101.36,-144.838,-11.914
101.39,-148.488,-12.005
101.42,-151.225,-12.189
101.46,-153.156,-12.303
101.49,-154.98,-12.475
101.52,-157.578,-12.853
101.55,-161.403,-13.323
101.59,-165.579,-13.621
101.62,-168.913,-13.77
101.65,-171.335,-13.907
101.69,-173.476,-14.171
101.72,-175.827,-14.342
101.75,-178.038,-14.4
101.78,-179.863,-14.514
101.82,-182.144,-14.835
101.85,-185.127,-15.259
101.88,-188.531,-15.522
101.91,-191.444,-15.683
101.95,-193.901,-15.877
101.98,-195.972,-16.038
102.01,-197.867,-16.072
102.04,-199.306,-16.129
102.08,-201.201,-16.393
102.11,-203.833,-16.633
102.14,-206.325,-16.794
102.17,-208.15,-16.954
102.21,-209.729,-17.172
102.24,-211.484,-17.229
102.27,-212.817,-17.252
102.3,-213.87,-17.39
102.34,-215.66,-17.733
102.37,-218.187,-18.065
102.4,-220.854,-18.26
102.43,-222.925,-18.398
102.47,-224.82,-18.661
102.5,-226.891,-18.821
102.53,-228.54,-18.787
102.56,-229.733,-18.833
102.6,-231.523,-19.131
102.63,-234.261,-19.429
102.66,-236.858,-19.555
102.69,-238.858,-19.646
102.73,-240.472,-19.841
102.76,-242.297,-19.91
102.79,-243.947,-19.91
102.82,-245.21,-19.99
102.86,-247.105,-20.173
102.89,-249.387,-20.345
102.92,-251.212,-20.402
102.96,-252.686,-20.494
102.99,-254.335,-20.643
103.02,-256.02,-20.735
103.05,-257.564,-20.769
103.09,-258.476,-20.723
103.12,-259.88,-20.918
103.15,-262.512,-21.33
103.18,-265.425,-21.422
103.22,-267.039,-21.41
103.25,-268.163,-21.468
103.28,-269.145,-21.445
103.31,-269.952,-21.261
103.35,-270.724,-21.239
103.38,-272.058,-21.433
103.41,-273.918,-21.685
103.44,-275.603,-21.662
103.48,-276.936,-21.766
103.51,-278.235,-21.892
103.54,-279.323,-21.823
103.57,-279.814,-21.674
103.61,-279.884,-21.662
103.64,-273.076,-19.692
103.67,-257.739,-16.885
103.7,-246.754,-17.516
103.74,-248.965,-19.852
103.77,-256.476,-20.689
103.8,-258.827,-21.388
103.83,-259.354,-23.152
103.87,-264.372,-24.32
103.9,-271.04,-24.446
103.93,-276.901,-24.836
103.96,-281.674,-25.053
104.0,-284.798,-24.435
104.03,-287.289,-24.114
104.06,-290.378,-23.885
104.09,-293.045,-23.312
104.13,-294.168,-22.819
104.16,-293.993,-22.35
104.19,-293.08,-21.8
104.22,-292.273,-21.536
104.26,-291.922,-21.456
104.29,-291.922,-21.456
104.32,-291.992,-21.559
104.36,-291.782,-21.628
104.39,-291.466,-21.571
104.42,-291.045,-21.582
104.45,-291.36,-21.743
104.49,-292.448,-21.914
104.52,-293.15,-21.892
104.55,-293.15,-21.788
104.58,-292.519,-21.628
104.62,-291.115,-21.239
104.65,-289.044,-20.849
104.68,-286.833,-20.666
104.71,-285.394,-20.62
104.75,-284.552,-20.677
104.78,-283.675,-20.723
104.81,-282.341,-20.712
104.84,-280.586,-20.631
104.88,-278.445,-20.46
104.91,-276.129,-20.322
104.94,-274.129,-20.242
104.97,-273.111,-20.391
105.01,-272.69,-20.505
105.04,-271.883,-20.528
105.07,-270.584,-20.517
105.1,-268.864,-20.471
105.14,-267.004,-20.185
105.17,-264.653,-19.818
105.2,-262.407,-19.795
105.23,-261.284,-19.807
105.27,-260.231,-19.669
105.3,-258.336,-19.612
105.33,-256.827,-19.715
105.36,-255.879,-19.635
105.4,-254.054,-19.371
105.43,-251.949,-19.268
105.46,-250.404,-19.222
105.49,-249.211,-19.165
105.53,-247.842,-19.039
105.56,-246.017,-18.879
105.59,-243.912,-18.73
105.62,-241.736,-18.524
105.66,-239.034,-18.146
105.69,-236.086,-17.916
105.72,-233.734,-17.951
105.76,-232.33,-17.859
105.79,-230.576,-17.745
105.82,-228.259,-17.642
105.85,-226.575,-17.699
105.89,-225.206,-17.607
105.92,-223.03,-17.195
105.95,-220.012,-16.885
105.98,-217.45,-16.851
106.02,-216.222,-16.828
106.05,-214.993,-16.691
106.08,-213.344,-16.542
106.11,-211.378,-16.45
106.15,-208.711,-16.118
106.18,-205.728,-15.728
106.21,-203.201,-15.648
106.24,-201.762,-15.614
106.28,-200.499,-15.431
106.31,-198.955,-15.282
106.34,-196.884,-15.156
106.37,-194.814,-14.949
106.41,-192.462,-14.663
106.44,-189.76,-14.285
106.47,-186.882,-14.022
106.5,-184.355,-13.861
106.54,-182.144,-13.678
106.57,-180.354,-13.609
106.6,-178.6,-13.426
106.63,-176.213,-13.071
106.67,-173.019,-12.75
106.7,-169.791,-12.452
106.73,-166.737,-12.235
106.76,-164.175,-12.017
106.8,-161.824,-11.822
106.83,-159.648,-11.708
106.86,-157.542,-11.57
106.89,-155.261,-11.284
106.93,-152.559,-11.009
106.96,-149.365,-10.699
106.99,-145.856,-10.31
107.03,-142.171,-10.012
107.06,-138.731,-9.772
107.09,-135.538,-9.52
107.12,-132.414,-9.268
107.16,-129.256,-8.993
107.19,-125.781,-8.718
107.22,-122.202,-8.454
107.25,-118.973,-8.305
107.29,-116.621,-8.225
107.32,-114.656,-8.088
107.35,-112.656,-7.847
107.38,-109.743,-7.469
107.42,-105.672,-6.988
107.45,-100.829,-6.541
107.48,-95.88,-6.129
107.51,-91.248,-5.819
107.55,-87.177,-5.567
107.58,-83.632,-5.384
107.61,-80.263,-5.212
107.64,-76.788,-4.983
107.68,-73.244,-4.731
107.71,-69.664,-4.536
107.74,-66.049,-4.239
107.77,-62.364,-3.952
107.81,-58.784,-3.723
107.84,-55.626,-3.551
107.87,-52.538,-3.322
107.9,-49.449,-3.001
107.94,-46.185,-2.784
107.97,-42.851,-2.589
108.0,-39.307,-2.177
108.03,-35.551,-1.879
108.07,-31.972,-1.684
108.1,-28.743,-1.455
108.13,-25.409,-1.123
108.16,-21.584,-0.756
108.2,-17.442,-0.435
108.23,-13.582,-0.298
108.26,-9.756,-0.08
108.29,-5.721,0.367
108.33,-0.912,0.619
108.36,3.58,0.653
108.39,7.721,0.768
108.43,11.371,0.939
108.46,14.459,1.123
108.49,17.126,1.512
108.52,20.145,2.085
108.56,23.654,2.52
108.59,27.69,2.669
108.62,31.34,2.933
108.65,34.814,3.334
108.69,38.429,3.597
108.72,42.044,3.78
108.75,45.554,4.078
108.78,49.344,4.41
108.82,53.029,4.639
108.85,56.468,4.788
108.88,59.592,5.018
108.91,62.856,5.384
108.95,66.576,5.659
108.98,69.804,5.831
109.01,72.366,5.911
109.04,74.963,6.289
109.08,78.262,6.69
109.11,81.667,6.908
109.14,85.001,7.137
109.17,88.37,7.549
109.21,92.09,7.87
109.24,95.564,8.099
109.27,98.582,8.305
109.3,101.425,8.557
109.34,104.373,8.844
109.37,107.742,9.176
109.4,111.041,9.359
109.43,114.551,9.772
109.47,118.481,10.184
109.5,122.131,10.264
109.53,124.869,10.459
109.56,127.396,10.734
109.6,130.168,10.929
109.63,132.906,11.135
109.66,135.678,11.398
109.69,138.766,11.696
109.73,142.276,12.154
109.76,146.136,12.487
109.79,149.506,12.59
109.83,152.383,12.842
109.86,155.261,13.197
109.89,158.279,13.334
109.92,160.982,13.472
109.96,163.368,13.666
109.99,165.965,13.918
110.02,168.703,14.148
110.05,171.405,14.377
110.09,174.037,14.56
110.12,176.248,14.743
110.15,178.564,15.007
110.18,181.653,15.373
110.22,185.268,15.694
110.25,188.496,15.946
110.28,191.409,16.129
110.31,193.901,16.301
110.35,196.007,16.381
110.38,197.937,16.45
110.41,199.867,16.553
110.44,202.008,16.817
110.48,204.465,17.046
110.51,206.781,17.137
110.54,208.536,17.252
110.57,210.185,17.47
110.61,211.519,17.481
110.64,212.677,17.481
110.67,214.046,17.745
110.7,216.257,18.111
110.74,218.959,18.34
110.77,221.31,18.524
110.8,223.381,18.799
110.83,225.487,19.016
110.87,226.961,18.959
110.9,228.259,19.051
110.93,230.014,19.303
110.96,232.436,19.509
111.0,234.682,19.635
111.03,236.787,19.807
111.06,238.507,19.921
111.1,240.192,20.001
111.13,241.104,19.83
111.16,242.227,20.001
111.19,244.719,20.528
111.23,247.807,20.574
111.26,249.562,20.586
111.29,251.001,20.803
111.32,253.142,21.032
111.36,255.598,21.021
111.39,257.072,20.941
111.42,257.985,21.021
111.45,259.354,21.124
111.49,261.143,21.181
111.52,262.898,21.284
111.55,264.548,21.433
111.58,266.338,21.491
111.62,267.671,21.502
111.65,268.513,21.445
111.68,269.426,21.445
111.71,270.584,21.536
111.75,272.234,21.674
111.78,274.059,21.8
111.81,275.568,21.857
111.84,276.901,21.949
111.88,278.235,21.972
111.91,279.182,21.937
111.94,279.955,21.903
111.97,280.867,21.88
112.01,282.025,21.96
112.04,283.569,22.018
112.07,285.078,22.178
112.1,286.623,22.281
112.14,287.851,22.212
112.17,288.448,22.155
112.2,288.834,22.018
112.23,289.009,21.914
112.27,289.255,21.857
112.3,290.308,21.983
112.33,291.501,22.121
112.36,291.571,21.777
112.4,291.22,21.834
112.43,291.536,21.995
112.46,292.343,21.914
112.5,292.659,21.88
112.53,292.764,21.949
112.56,293.571,22.086
112.59,294.624,22.04
112.63,294.87,21.937
112.66,294.8,21.903
112.69,294.484,21.754
112.72,293.852,21.525
112.76,292.975,21.388
112.79,292.413,21.353
112.82,292.659,21.479
112.85,292.905,21.525
112.89,292.554,21.479
112.92,291.325,21.296
112.95,289.676,21.067
112.98,287.921,20.861
113.02,286.307,20.712
113.05,284.903,20.677
113.08,284.061,20.849
113.11,283.394,20.872
113.15,282.095,20.757
113.18,280.025,20.666
113.21,277.779,20.505
113.24,275.568,20.299
113.28,273.392,20.23
113.31,272.198,20.334
113.34,271.497,20.471
113.37,270.795,20.528
113.41,269.672,20.54
113.44,268.373,20.471
113.47,266.618,20.208
113.5,264.407,19.99
113.54,262.582,19.921
113.57,261.354,19.887
113.6,260.196,19.852
113.63,258.827,19.795
113.67,257.353,19.738
113.7,255.914,19.646
113.73,254.335,19.417
113.76,252.089,19.199
113.8,249.808,19.096
113.83,248.018,19.016
113.86,246.333,18.856
113.9,244.368,18.73
113.93,242.297,18.684
113.96,240.192,18.432
113.99,237.279,18.1
114.03,234.261,17.974
114.06,232.155,17.997
114.09,230.576,17.894
114.12,229.031,17.905
114.16,227.347,17.813
114.19,225.311,17.607
114.22,223.311,17.619
114.25,221.732,17.435
114.29,219.556,17.103
114.32,217.415,17.0
114.35,215.836,17.0
114.38,214.748,16.84
114.42,213.168,16.656
114.45,211.519,16.553
114.48,209.518,16.324
114.51,207.202,15.946
114.55,204.5,15.671
114.58,202.113,15.522
114.61,200.183,15.328
114.64,198.428,15.179
114.68,196.638,15.053
114.71,194.603,14.904
114.74,192.146,14.652
114.77,189.549,14.251
114.81,186.671,14.033
114.84,184.109,13.896
114.87,181.723,13.609
114.9,179.477,13.495
114.94,177.441,13.38
114.97,175.266,13.059
115.0,172.423,12.716
115.03,169.264,12.498
115.07,166.562,12.349
115.1,164.035,12.005
115.13,161.578,11.822
115.17,158.981,11.685
115.2,156.56,11.364
115.23,154.068,11.215
115.26,151.295,10.906
115.3,148.137,10.551
115.33,144.557,10.253
115.36,140.907,9.863
115.39,137.257,9.531
115.43,133.958,9.405
115.46,131.537,9.325
115.49,129.642,9.199
115.52,127.501,8.947
115.56,124.728,8.66
115.59,121.675,8.42
115.62,118.587,8.156
115.65,115.674,7.87
115.69,112.726,7.595
115.72,109.602,7.24
115.75,105.812,6.839
115.78,101.495,6.461
115.82,96.722,6.037
115.85,91.949,5.659
115.88,87.177,5.373
115.91,82.965,5.166
115.95,79.385,5.018
115.98,76.051,4.788
116.01,72.612,4.571
116.04,69.138,4.365
116.08,65.698,4.17
116.11,62.54,3.998
116.14,59.627,3.792
116.17,56.679,3.528
116.21,53.485,3.242
116.24,50.151,2.956
116.27,46.747,2.669
116.3,43.272,2.44
116.34,39.868,2.142
116.37,36.324,1.787
116.4,32.253,1.455
116.43,28.217,1.18
116.47,24.532,0.974
116.5,20.882,0.722
116.53,16.776,0.355
116.57,12.213,0.057
116.6,7.686,-0.08
116.63,3.65,-0.149
116.66,-0.175,-0.218
