Trigger_Date,2023/06/15
Trigger_Time,T 15:46:25.166 PDT
Samples_Per_Cycle,512
Microseconds_Per_Sample,32.555
Time (ms),Voltage (V),Current (A)
-16.67,-3.088,-0.229
-16.64,-4.527,0.229
-16.6,-5.054,0.16
-16.57,-7.265,-0.733
-16.54,-11.862,-1.375
-16.51,-16.951,-1.501
-16.47,-21.233,-1.81
-16.44,-25.233,-2.532
-16.41,-30.006,-3.299
-16.37,-34.744,-3.631
-16.34,-38.745,-3.517
-16.31,-40.816,-3.311
-16.28,-42.044,-3.631
-16.24,-44.36,-4.032
-16.21,-46.782,-4.067
-16.18,-48.817,-4.147
-16.15,-51.064,-4.582
-16.11,-54.468,-5.109
-16.08,-58.574,-5.476
-16.05,-62.785,-5.831
-16.02,-66.821,-6.209
-15.98,-71.103,-6.633
-15.95,-75.314,-6.988
-15.92,-79.21,-7.137
-15.89,-82.509,-7.309
-15.85,-85.703,-7.629
-15.82,-88.721,-7.801
-15.79,-91.634,-7.962
-15.76,-94.547,-8.271
-15.72,-97.705,-8.557
-15.69,-100.899,-8.741
-15.66,-104.163,-9.119
-15.63,-107.602,-9.474
-15.59,-111.217,-9.737
-15.56,-114.937,-10.081
-15.53,-118.446,-10.367
-15.5,-121.64,-10.562
-15.46,-125.044,-10.929
-15.43,-128.378,-11.169
-15.4,-131.361,-11.238
-15.37,-134.344,-11.639
-15.33,-137.608,-11.902
-15.3,-140.837,-12.051
-15.27,-143.575,-12.269
-15.24,-146.452,-12.578
-15.2,-149.576,-12.842
-15.17,-152.734,-13.105
-15.14,-155.858,-13.3
-15.11,-158.595,-13.483
-15.07,-161.473,-13.781
-15.04,-164.351,-14.01
-15.01,-166.913,-14.102
-14.98,-169.264,-14.319
-14.94,-171.616,-14.606
-14.91,-173.967,-14.709
-14.88,-176.143,-14.846
-14.84,-178.494,-15.167
-14.81,-181.548,-15.499
-14.78,-184.846,-15.774
-14.75,-188.04,-16.061
-14.71,-191.585,-16.473
-14.68,-195.27,-16.771
-14.65,-198.674,-16.977
-14.62,-201.903,-17.08
-14.58,-204.675,-17.252
-14.55,-207.272,-17.367
-14.52,-209.378,-17.321
-14.49,-211.133,-17.355
-14.45,-213.168,-17.561
-14.42,-215.45,-17.676
-14.39,-217.625,-17.802
-14.36,-219.907,-18.088
-14.32,-222.223,-18.295
-14.29,-224.364,-18.317
-14.26,-226.154,-18.478
-14.23,-228.049,-18.615
-14.19,-229.558,-18.604
-14.16,-230.576,-18.661
-14.13,-231.593,-18.787
-14.1,-232.822,-18.879
-14.06,-233.91,-18.925
-14.03,-235.103,-19.085
-14.0,-236.647,-19.36
-13.97,-238.472,-19.589
-13.93,-240.262,-19.726
-13.9,-241.736,-19.933
-13.87,-243.771,-20.208
-13.84,-246.193,-20.368
-13.8,-248.158,-20.345
-13.77,-249.702,-20.483
-13.74,-251.668,-20.723
-13.71,-253.879,-20.803
-13.67,-255.704,-20.872
-13.64,-257.178,-20.952
-13.61,-258.827,-21.032
-13.58,-260.652,-21.124
-13.54,-262.302,-21.147
-13.51,-263.39,-21.124
-13.48,-264.513,-21.181
-13.45,-265.776,-21.239
-13.41,-266.653,-21.193
-13.38,-267.32,-21.17
-13.35,-268.127,-21.239
-13.31,-269.391,-21.319
-13.28,-270.549,-21.399
-13.25,-271.567,-21.582
-13.22,-272.865,-21.754
-13.18,-274.339,-21.777
-13.15,-275.638,-21.788
-13.12,-276.761,-21.903
-13.09,-278.059,-22.018
-13.05,-279.533,-22.109
-13.02,-281.007,-22.109
-12.99,-282.446,-22.155
-12.96,-283.745,-22.212
-12.92,-284.657,-22.132
-12.89,-285.219,-22.006
-12.86,-285.71,-21.937
-12.83,-286.096,-21.811
-12.79,-286.237,-21.766
-12.76,-286.588,-21.8
-12.73,-287.114,-21.823
-12.7,-287.149,-21.811
-12.66,-287.114,-21.8
-12.63,-287.43,-21.914
-12.6,-288.167,-21.972
-12.57,-288.553,-21.903
-12.53,-288.728,-21.937
-12.5,-289.22,-22.04
-12.47,-289.957,-22.052
-12.44,-290.132,-21.892
-12.4,-289.886,-21.811
-12.37,-289.536,-21.743
-12.34,-289.395,-21.708
-12.31,-285.359,-20.609
-12.27,-274.585,-18.478
-12.24,-263.776,-18.111
-12.21,-258.582,-18.661
-12.18,-253.458,-17.848
-12.14,-244.719,-17.516
-12.11,-239.595,-19.326
-12.08,-242.894,-21.135
-12.05,-248.685,-22.018
-12.01,-253.844,-23.415
-11.98,-261.389,-25.168
-11.95,-270.865,-26.05
-11.91,-278.937,-26.153
-11.88,-284.306,-25.901
-11.85,-287.184,-25.065
-11.82,-287.675,-23.598
-11.78,-286.131,-22.132
-11.75,-282.903,-20.792
-11.72,-278.34,-19.566
-11.69,-272.935,-18.821
-11.65,-268.584,-18.753
-11.62,-265.741,-18.867
-11.59,-263.144,-18.947
-11.56,-260.933,-19.257
-11.52,-260.02,-19.841
-11.49,-260.161,-20.219
-11.46,-259.845,-20.276
-11.43,-259.213,-20.391
-11.39,-258.687,-20.471
-11.36,-258.266,-20.288
-11.33,-256.686,-19.818
-11.3,-254.054,-19.474
-11.26,-251.843,-19.303
-11.23,-249.878,-19.016
-11.2,-247.527,-18.73
-11.17,-245.0,-18.592
-11.13,-243.175,-18.65
-11.1,-241.946,-18.673
-11.07,-240.683,-18.638
-11.04,-239.525,-18.627
-11.0,-238.472,-18.695
-10.97,-237.56,-18.627
-10.94,-236.366,-18.375
-10.91,-234.366,-18.077
-10.87,-232.05,-17.848
-10.84,-229.874,-17.642
-10.81,-227.277,-17.241
-10.78,-224.188,-16.851
-10.74,-221.556,-16.908
-10.71,-219.556,-16.771
-10.68,-217.169,-16.473
-10.65,-214.888,-16.473
-10.61,-213.554,-16.599
-10.58,-212.466,-16.416
-10.55,-210.571,-16.175
-10.52,-208.501,-16.118
-10.48,-206.816,-15.969
-10.45,-205.026,-15.706
-10.42,-202.921,-15.431
-10.38,-200.499,-15.213
-10.35,-198.183,-15.018
-10.32,-195.691,-14.743
-10.29,-192.918,-14.411
-10.25,-190.216,-14.216
-10.22,-187.619,-14.09
-10.19,-185.092,-13.781
-10.16,-182.46,-13.563
-10.12,-180.074,-13.483
-10.09,-177.827,-13.266
-10.06,-175.406,-12.979
-10.03,-172.633,-12.75
-9.99,-169.791,-12.601
-9.96,-167.264,-12.326
-9.93,-164.211,-11.983
-9.9,-161.192,-11.753
-9.86,-158.174,-11.536
-9.83,-155.156,-11.238
-9.8,-151.892,-10.94
-9.77,-148.418,-10.677
-9.73,-145.119,-10.436
-9.7,-141.714,-10.184
-9.67,-138.451,-9.932
-9.64,-135.397,-9.783
-9.6,-132.484,-9.6
-9.57,-129.852,-9.371
-9.54,-127.255,-9.199
-9.51,-124.763,-9.05
-9.47,-122.412,-8.832
-9.44,-119.991,-8.603
-9.41,-117.429,-8.34
-9.38,-114.516,-8.053
-9.34,-111.497,-7.778
-9.31,-108.374,-7.435
-9.28,-104.829,-7.022
-9.25,-100.688,-6.633
-9.21,-96.371,-6.278
-9.18,-91.949,-5.877
-9.15,-87.387,-5.522
-9.12,-83.0,-5.258
-9.08,-78.824,-5.04
-9.05,-74.963,-4.846
-9.02,-71.524,-4.662
-8.99,-67.979,-4.433
-8.95,-64.68,-4.193
-8.92,-61.487,-4.067
-8.89,-58.714,-3.952
-8.85,-56.117,-3.723
-8.82,-53.099,-3.368
-8.79,-49.87,-3.116
-8.76,-46.712,-2.898
-8.72,-43.378,-2.577
-8.69,-39.763,-2.188
-8.66,-35.938,-1.902
-8.63,-32.077,-1.604
-8.59,-28.181,-1.283
-8.56,-24.251,-0.951
-8.53,-19.934,-0.664
-8.5,-15.968,-0.447
-8.46,-12.178,-0.229
-8.43,-8.247,0.023
-8.4,-4.422,0.218
-8.37,-0.562,0.321
-8.33,2.773,0.332
-8.3,4.527,0.023
-8.27,5.019,-0.08
-8.24,6.633,0.63
-8.2,10.529,1.352
-8.17,15.372,1.535
-8.14,19.653,1.787
-8.11,23.83,2.486
-8.07,28.743,3.265
-8.04,34.113,3.517
-8.01,38.043,3.402
-7.98,40.535,3.517
-7.94,42.816,3.746
-7.91,45.589,4.009
-7.88,48.326,4.044
-7.85,50.397,4.078
-7.81,52.783,4.571
-7.78,56.468,5.04
-7.75,60.188,5.201
-7.72,63.487,5.396
-7.68,66.751,5.877
-7.65,70.612,6.301
-7.62,74.367,6.495
-7.59,77.631,6.701
-7.55,80.789,7.022
-7.52,84.158,7.366
-7.49,87.668,7.652
-7.45,91.072,7.859
-7.42,94.336,8.145
-7.39,97.635,8.443
-7.36,101.215,8.786
-7.32,104.724,9.016
-7.29,108.199,9.302
-7.26,111.673,9.634
-7.23,115.042,9.875
-7.19,118.201,10.058
-7.16,121.114,10.299
-7.13,124.167,10.608
-7.1,127.361,10.848
-7.06,130.379,11.032
-7.03,133.221,11.307
-7.0,136.485,11.639
-6.97,139.714,11.902
-6.93,142.908,12.109
-6.9,145.856,12.361
-6.87,149.049,12.704
-6.84,152.208,12.922
-6.8,155.016,13.082
-6.77,157.683,13.311
-6.74,160.561,13.621
-6.71,163.368,13.792
-6.67,165.755,13.907
-6.64,168.036,14.09
-6.61,170.282,14.319
-6.58,172.563,14.503
-6.54,175.125,14.732
-6.51,177.722,15.064
-6.48,180.74,15.385
-6.45,183.864,15.625
-6.41,187.022,15.912
-6.38,190.076,16.21
-6.35,193.199,16.45
-6.32,195.972,16.622
-6.28,198.604,16.771
-6.25,201.166,16.897
-6.22,203.271,16.989
-6.19,204.991,17.023
-6.15,206.676,17.16
-6.12,208.36,17.264
-6.09,209.694,17.275
-6.06,211.063,17.458
-6.02,212.958,17.733
-5.99,215.169,17.951
-5.96,217.134,18.146
-5.92,219.275,18.409
-5.89,221.872,18.73
-5.86,224.399,18.913
-5.83,226.469,19.028
-5.79,228.54,19.222
-5.76,230.646,19.406
-5.73,232.751,19.474
-5.7,234.401,19.474
-5.66,235.98,19.6
-5.63,237.91,19.772
-5.6,239.595,19.807
-5.57,240.823,19.841
-5.53,242.297,20.116
-5.5,244.543,20.276
-5.47,246.509,20.334
-5.44,248.018,20.437
-5.4,249.948,20.677
-5.37,252.264,20.849
-5.34,254.16,20.838
-5.31,255.247,20.838
-5.27,256.441,20.952
-5.24,258.441,21.17
-5.21,260.301,21.135
-5.18,261.389,21.113
-5.14,262.582,21.296
-5.11,264.407,21.456
-5.08,265.671,21.307
-5.05,266.373,21.284
-5.01,267.25,21.433
-4.98,268.373,21.491
-4.95,269.637,21.491
-4.92,270.654,21.617
-4.88,271.953,21.754
-4.85,273.286,21.777
-4.82,274.48,21.811
-4.79,275.568,21.892
-4.75,276.831,22.018
-4.72,278.27,22.063
-4.69,279.533,22.144
-4.66,281.078,22.281
-4.62,282.622,22.281
-4.59,283.78,22.235
-4.56,284.727,22.201
-4.53,285.359,22.109
-4.49,285.956,22.018
-4.46,286.377,21.937
-4.43,286.658,21.903
-4.39,287.465,22.04
-4.36,287.675,21.8
-4.33,287.114,21.685
-4.3,287.325,21.995
-4.26,288.026,21.857
-4.23,288.097,21.823
-4.2,287.851,21.88
-4.17,288.026,21.96
-4.13,288.799,21.995
-4.1,289.149,21.914
-4.07,288.869,21.914
-4.04,288.939,21.926
-4.0,288.974,21.8
-3.97,288.623,21.708
-3.94,288.026,21.617
-3.91,287.64,21.64
-3.87,287.465,21.651
-3.84,287.325,21.548
-3.81,286.517,21.514
-3.78,285.71,21.525
-3.74,285.184,21.422
-3.71,284.166,21.204
-3.68,282.692,21.055
-3.65,281.323,21.021
-3.61,280.27,20.987
-3.58,279.007,20.861
-3.55,277.217,20.792
-3.52,275.743,20.803
-3.48,274.339,20.735
-3.45,272.62,20.597
-3.42,270.724,20.563
-3.39,269.461,20.631
-3.35,268.443,20.54
-3.32,266.969,20.494
-3.29,265.601,20.609
-3.26,264.653,20.586
-3.22,263.53,20.437
-3.19,262.126,20.402
-3.16,260.968,20.379
-3.13,259.775,20.23
-3.09,258.301,20.104
-3.06,256.827,20.001
-3.03,255.388,19.898
-3.0,253.809,19.726
-2.96,251.913,19.555
-2.93,250.159,19.394
-2.9,248.404,19.291
-2.86,246.474,19.165
-2.83,244.649,19.016
-2.8,242.964,18.947
-2.77,241.28,18.856
-2.73,239.525,18.73
-2.7,237.77,18.661
-2.67,236.05,18.478
-2.64,234.225,18.398
-2.6,232.646,18.34
-2.57,230.962,18.134
-2.54,228.996,17.951
-2.51,227.066,17.859
-2.47,225.066,17.642
-2.44,222.82,17.367
-2.41,220.714,17.264
-2.38,218.784,17.115
-2.34,216.818,16.908
-2.31,214.783,16.805
-2.28,212.923,16.656
-2.25,211.308,16.576
-2.21,209.904,16.473
-2.18,208.08,16.221
-2.15,205.974,16.095
-2.12,204.43,16.026
-2.08,203.026,15.774
-2.05,200.92,15.431
-2.02,198.569,15.236
-1.99,196.428,15.075
-1.95,194.006,14.743
-1.92,191.374,14.445
-1.89,188.567,14.159
-1.86,185.478,13.873
-1.82,182.495,13.644
-1.79,179.933,13.506
-1.76,177.126,13.22
-1.73,173.721,12.796
-1.69,170.528,12.739
-1.66,168.141,12.635
-1.63,165.439,12.315
-1.6,162.386,11.937
-1.56,159.648,12.04
-1.53,157.578,11.834
-1.5,155.647,11.627
-1.46,153.05,11.433
-1.43,150.488,11.112
-1.4,147.856,11.009
-1.37,145.224,10.619
-1.33,142.065,10.23
-1.3,138.38,9.921
-1.27,134.871,9.657
-1.24,131.502,9.336
-1.2,128.027,9.038
-1.17,124.448,8.763
-1.14,121.078,8.523
-1.11,118.06,8.443
-1.07,115.428,8.237
-1.04,112.726,7.996
-1.01,110.059,7.824
-0.98,107.216,7.561
-0.94,103.847,7.16
-0.91,100.021,6.793
-0.88,95.95,6.472
-0.85,91.563,6.014
-0.81,86.72,5.602
-0.78,81.982,5.338
-0.75,77.771,5.086
-0.72,73.84,4.846
-0.68,70.12,4.639
-0.65,66.505,4.445
-0.62,63.593,4.376
-0.59,61.031,4.261
-0.55,58.258,3.975
-0.52,55.345,3.757
-0.49,52.538,3.597
-0.46,49.625,3.299
-0.42,46.326,2.921
-0.39,42.711,2.6
-0.36,38.921,2.348
-0.33,35.341,2.073
-0.29,31.902,1.753
-0.26,28.076,1.386
-0.23,24.11,1.111
-0.2,20.215,0.916
-0.16,16.74,0.722
-0.13,13.196,0.424
-0.1,9.16,0.126
-0.07,4.948,-0.08
-0.03,0.807,-0.229
0.0,-3.018,-0.252
0.03,-4.913,0.16
0.07,-5.334,0.286
0.1,-6.879,-0.527
0.13,-11.055,-1.306
0.16,-16.179,-1.501
0.2,-20.601,-1.718
0.23,-24.847,-2.463
0.26,-29.796,-3.242
0.29,-34.99,-3.574
0.33,-39.447,-3.46
0.36,-41.939,-3.402
0.39,-43.483,-3.654
0.42,-45.729,-3.918
0.46,-48.291,-4.113
0.49,-50.291,-4.101
0.52,-52.046,-4.319
0.55,-54.678,-4.926
0.59,-58.434,-5.338
0.62,-62.259,-5.487
0.65,-65.558,-5.865
0.68,-69.383,-6.381
0.72,-73.735,-6.782
0.75,-78.017,-7.057
0.78,-81.772,-7.24
0.81,-85.211,-7.561
0.85,-88.826,-7.904
0.88,-92.23,-8.042
0.91,-95.178,-8.214
0.94,-98.126,-8.534
0.98,-101.144,-8.775
1.01,-104.408,-9.016
1.04,-107.707,-9.313
1.07,-110.936,-9.577
1.11,-114.34,-9.886
1.14,-117.955,-10.299
1.17,-121.57,-10.573
1.2,-125.044,-10.768
1.24,-128.413,-11.089
1.27,-131.607,-11.249
1.3,-134.801,-11.582
1.33,-138.17,-11.879
1.37,-141.434,-12.086
1.4,-144.241,-12.212
1.43,-147.049,-12.475
1.46,-150.032,-12.75
1.5,-152.945,-12.887
1.53,-155.542,-13.14
1.56,-158.244,-13.426
1.6,-161.122,-13.621
1.63,-163.895,-13.85
1.66,-166.492,-14.033
1.69,-168.843,-14.205
1.73,-171.335,-14.48
1.76,-174.072,-14.72
1.79,-176.775,-14.915
1.82,-180.144,-15.419
1.86,-184.425,-15.843
1.89,-188.181,-15.9
1.92,-191.234,-16.175
1.95,-194.743,-16.599
1.99,-198.288,-16.714
2.02,-200.885,-16.679
2.05,-202.71,-16.725
2.08,-204.254,-16.759
2.12,-205.728,-16.737
2.15,-206.746,-16.656
2.18,-206.921,-16.622
2.21,-207.062,-16.702
2.25,-207.729,-16.863
2.28,-208.501,-16.989
2.31,-209.097,-17.16
2.34,-210.045,-17.493
2.38,-211.8,-17.894
2.41,-214.186,-18.226
2.44,-216.783,-18.569
2.47,-219.556,-18.993
2.51,-222.855,-19.383
2.54,-226.224,-19.646
2.57,-229.347,-19.841
2.6,-232.19,-19.956
2.64,-234.927,-20.082
2.67,-237.279,-20.139
2.7,-239.314,-19.99
2.73,-240.788,-19.967
2.77,-242.157,-19.944
2.8,-243.21,-19.875
2.83,-244.228,-19.99
2.86,-245.702,-20.082
2.9,-247.035,-20.15
2.93,-248.474,-20.345
2.96,-250.229,-20.574
3.0,-252.019,-20.677
3.03,-253.668,-20.815
3.06,-255.423,-21.078
3.09,-257.494,-21.181
3.13,-259.248,-21.17
3.16,-260.442,-21.284
3.19,-261.88,-21.41
3.22,-263.741,-21.422
3.26,-264.969,-21.307
3.29,-265.811,-21.388
3.32,-266.899,-21.479
3.35,-267.882,-21.388
3.39,-268.794,-21.456
3.42,-270.128,-21.662
3.45,-271.356,-21.582
3.48,-272.374,-21.662
3.52,-273.708,-21.926
3.55,-275.427,-21.96
3.58,-276.656,-21.972
3.61,-277.708,-22.029
3.65,-278.972,-22.201
3.68,-280.762,-22.189
3.71,-281.92,-22.04
3.74,-282.481,-22.063
3.78,-283.64,-22.212
3.81,-285.114,-22.189
3.84,-285.464,-21.995
3.87,-285.008,-21.777
3.91,-285.289,-21.972
3.94,-286.412,-21.926
3.97,-286.868,-21.811
4.0,-286.552,-21.869
4.04,-287.044,-22.029
4.07,-288.062,-22.063
4.1,-288.623,-21.914
4.13,-288.307,-21.846
4.17,-288.307,-21.914
4.2,-288.939,-21.937
4.23,-288.939,-21.788
4.26,-288.202,-21.64
4.3,-286.868,-21.456
4.33,-285.114,-21.193
4.36,-283.324,-20.987
4.39,-281.429,-20.883
4.43,-280.025,-20.952
4.46,-279.323,-21.147
4.49,-279.147,-21.422
4.53,-279.779,-21.754
4.56,-281.007,-22.075
4.59,-282.692,-22.327
4.62,-284.236,-22.453
4.66,-285.64,-22.464
4.69,-286.833,-22.384
4.72,-287.43,-22.189
4.75,-287.149,-21.8
4.79,-286.096,-21.388
4.82,-284.377,-20.895
4.85,-281.744,-20.402
4.88,-278.551,-19.99
4.92,-275.252,-19.807
4.95,-272.795,-19.749
4.98,-270.338,-19.692
5.01,-267.847,-19.795
5.05,-266.162,-19.967
5.08,-264.653,-20.104
5.11,-263.284,-20.104
5.14,-261.74,-20.162
5.18,-260.582,-20.208
5.21,-259.459,-20.127
5.24,-258.125,-19.978
5.27,-256.371,-19.887
5.31,-254.897,-19.761
5.34,-253.036,-19.555
5.37,-250.58,-19.28
5.4,-248.474,-19.234
5.44,-246.719,-19.257
5.47,-245.245,-19.005
5.5,-243.034,-18.833
5.53,-240.929,-18.833
5.57,-239.735,-18.902
5.6,-238.577,-18.81
5.63,-236.998,-18.638
5.66,-235.349,-18.581
5.7,-234.015,-18.535
5.73,-232.611,-18.317
5.76,-230.681,-18.031
5.79,-228.61,-17.916
5.83,-226.75,-17.745
5.86,-224.609,-17.47
5.89,-222.153,-17.252
5.92,-219.836,-17.092
5.96,-217.625,-16.966
5.99,-215.695,-16.805
6.02,-213.765,-16.668
6.06,-212.08,-16.599
6.09,-210.361,-16.507
6.12,-208.746,-16.37
6.15,-207.062,-16.21
6.19,-205.377,-16.026
6.22,-203.342,-15.763
6.25,-201.236,-15.58
6.28,-199.306,-15.396
6.32,-197.27,-15.121
6.35,-194.814,-14.881
6.38,-192.392,-14.663
6.41,-189.935,-14.423
6.45,-187.373,-14.148
6.48,-184.531,-13.85
6.51,-181.863,-13.678
6.54,-179.407,-13.575
6.58,-176.95,-13.3
6.61,-174.107,-13.014
6.64,-171.44,-12.842
6.67,-168.527,-12.601
6.71,-165.579,-12.292
6.74,-162.877,-12.177
6.77,-160.35,-11.971
6.8,-158.069,-11.788
6.84,-155.367,-11.433
6.87,-152.594,-11.295
6.9,-150.172,-11.169
6.93,-147.821,-10.86
6.97,-144.733,-10.493
7.0,-141.293,-10.184
7.03,-137.819,-9.921
7.06,-134.555,-9.646
7.1,-131.256,-9.336
7.13,-127.922,-9.119
7.16,-124.869,-8.901
7.19,-121.78,-8.66
7.23,-118.832,-8.454
7.26,-115.99,-8.237
7.29,-113.217,-8.053
7.32,-110.585,-7.847
7.36,-107.637,-7.515
7.39,-104.198,-7.148
7.42,-100.302,-6.782
7.45,-96.196,-6.415
7.49,-91.739,-5.991
7.52,-87.141,-5.648
7.55,-82.684,-5.373
7.59,-78.333,-5.121
7.62,-74.226,-4.846
7.65,-70.401,-4.639
7.68,-66.786,-4.456
7.72,-63.593,-4.296
7.75,-60.68,-4.135
7.78,-57.907,-3.987
7.81,-55.205,-3.792
7.85,-52.362,-3.505
7.88,-49.168,-3.219
7.91,-46.01,-3.001
7.94,-42.992,-2.715
7.98,-39.693,-2.337
8.01,-35.902,-1.982
8.04,-31.866,-1.661
8.07,-27.831,-1.363
8.11,-23.83,-1.088
8.14,-19.794,-0.768
8.17,-15.617,-0.447
8.2,-11.441,-0.229
8.24,-7.37,-0.046
8.27,-3.51,0.16
8.3,0.351,0.344
8.33,3.369,0.241
8.37,4.562,-0.206
8.4,5.089,-0.034
8.43,7.545,0.905
8.46,12.143,1.432
8.5,16.986,1.512
8.53,21.057,1.89
8.56,25.339,2.704
8.59,30.498,3.345
8.63,35.481,3.54
8.66,39.096,3.563
8.69,41.483,3.643
8.72,43.799,3.826
8.76,46.255,4.044
8.79,48.642,4.113
8.82,50.713,4.25
8.85,53.239,4.605
8.89,56.328,5.029
8.92,60.118,5.361
8.95,63.908,5.659
8.99,67.558,6.014
9.02,71.419,6.438
9.05,75.455,6.713
9.08,79.034,6.942
9.12,82.298,7.183
9.15,85.527,7.492
9.18,88.651,7.732
9.21,91.599,7.927
9.25,94.441,8.156
9.28,97.53,8.477
9.31,100.793,8.741
9.34,103.952,8.981
9.38,107.146,9.29
9.41,110.515,9.646
9.44,114.095,9.943
9.47,117.464,10.195
9.51,120.517,10.425
9.54,123.57,10.688
9.57,126.939,11.032
9.6,129.887,11.158
9.64,132.835,11.433
9.67,135.994,11.799
9.7,139.363,11.983
9.73,142.557,12.315
9.77,146.066,12.658
9.8,149.646,12.876
9.83,152.734,13.105
9.86,155.858,13.369
9.9,159.016,13.563
9.93,161.964,13.724
9.96,164.491,13.896
9.99,166.702,14.045
10.03,168.738,14.182
10.06,170.949,14.365
10.09,173.055,14.48
10.12,175.02,14.72
10.16,177.547,15.11
10.19,180.811,15.419
10.22,183.723,15.671
10.25,186.707,16.026
10.29,189.83,16.313
10.32,192.989,16.542
10.35,195.866,16.725
10.38,198.323,16.874
10.42,200.639,16.989
10.45,202.675,17.092
10.48,204.57,17.137
10.52,206.114,17.206
10.55,207.729,17.321
10.58,209.343,17.447
10.61,210.887,17.584
10.65,212.642,17.836
10.68,214.677,18.134
10.71,217.064,18.352
10.74,219.415,18.558
10.78,221.732,18.833
10.81,223.978,18.982
10.84,225.697,19.073
10.87,227.768,19.291
10.91,229.874,19.394
10.94,231.664,19.44
10.97,233.208,19.543
11.0,234.857,19.669
11.04,236.823,19.807
11.07,238.402,19.887
11.1,240.016,20.001
11.13,242.297,20.379
11.17,244.719,20.471
11.2,246.404,20.448
11.23,248.158,20.689
11.26,250.475,20.941
11.3,252.615,20.895
11.33,253.984,20.895
11.36,255.458,21.032
11.39,257.178,21.135
11.43,258.827,21.113
11.46,260.196,21.193
11.49,261.6,21.273
11.52,263.144,21.33
11.56,264.548,21.399
11.59,265.53,21.353
11.62,266.267,21.307
11.65,267.18,21.491
11.69,268.584,21.548
11.72,269.882,21.559
11.75,270.619,21.594
11.78,271.812,21.743
11.82,273.251,21.88
11.85,274.725,21.834
11.88,275.392,21.892
11.91,276.445,21.995
11.95,277.884,22.109
11.98,279.393,22.109
12.01,280.411,22.121
12.05,281.639,22.247
12.08,283.113,22.304
12.11,284.306,22.189
12.14,284.798,22.063
12.18,284.868,21.983
12.21,285.359,22.063
12.24,286.201,22.006
12.27,286.447,21.892
12.31,286.307,21.846
12.34,286.763,22.029
12.37,287.325,21.972
12.4,287.535,21.914
12.44,287.5,21.983
12.47,287.921,22.052
12.5,288.553,22.018
12.53,288.974,22.029
12.57,289.079,22.029
12.6,289.255,21.983
12.63,289.255,21.914
12.66,289.149,21.834
12.7,288.799,21.708
12.73,288.167,21.628
12.76,287.781,21.64
12.79,287.711,21.64
12.83,287.289,21.491
12.86,286.412,21.468
12.89,285.675,21.468
12.92,284.868,21.353
12.96,283.71,21.181
12.99,282.271,21.021
13.02,281.042,20.987
13.05,279.884,20.975
13.09,278.621,20.918
13.12,277.287,20.849
13.15,275.848,20.769
13.18,274.339,20.769
13.22,272.971,20.689
13.25,271.321,20.574
13.28,269.812,20.62
13.31,268.689,20.597
13.35,267.32,20.483
13.38,265.987,20.483
13.41,264.758,20.505
13.45,263.6,20.402
13.48,262.512,20.357
13.51,261.53,20.299
13.54,260.126,20.173
13.58,258.617,20.047
13.61,257.108,19.921
13.64,255.493,19.795
13.67,253.528,19.612
13.71,251.668,19.383
13.74,249.422,19.199
13.77,247.281,19.154
13.8,245.561,18.993
13.84,243.526,18.821
13.87,241.806,18.959
13.9,240.683,18.936
13.93,239.139,18.684
13.97,237.244,18.604
14.0,235.735,18.65
14.03,234.225,18.466
14.06,232.295,18.168
14.1,230.365,18.042
14.13,228.505,17.928
14.16,226.891,17.768
14.19,224.855,17.527
14.23,222.679,17.321
14.26,220.573,17.275
14.29,219.099,17.218
14.32,217.555,16.966
14.36,215.485,16.759
14.39,213.519,16.748
14.42,212.186,16.633
14.45,210.326,16.267
14.49,207.974,16.061
14.52,205.833,15.992
14.55,203.693,15.614
14.58,201.587,15.454
14.62,199.832,15.396
14.65,197.726,15.11
14.68,195.34,14.823
14.71,192.883,14.675
14.75,190.848,14.48
14.78,188.426,14.205
14.81,185.408,13.781
14.84,182.53,13.689
14.88,179.933,13.495
14.91,177.301,13.162
14.94,174.283,12.887
14.98,171.545,12.704
15.01,168.948,12.601
15.04,166.176,12.28
15.07,163.614,12.028
15.11,161.192,12.051
15.14,158.701,11.627
15.17,155.998,11.421
15.2,153.261,11.272
15.24,150.769,10.94
15.27,147.821,10.699
15.3,144.803,10.425
15.33,141.258,10.035
15.37,137.679,9.737
15.4,134.274,9.531
15.43,130.975,9.233
15.46,127.711,8.947
15.5,124.377,8.729
15.53,121.114,8.5
15.56,118.166,8.34
15.59,115.639,8.202
15.63,113.147,7.95
15.66,110.445,7.721
15.69,107.567,7.492
15.72,104.303,7.137
15.76,100.758,6.759
15.79,96.828,6.415
15.82,92.651,5.991
15.85,87.949,5.556
15.89,83.316,5.292
15.92,78.859,5.018
15.95,74.788,4.697
15.98,70.892,4.513
16.02,67.488,4.422
16.05,64.575,4.239
16.08,61.873,4.078
16.11,59.03,3.883
16.15,56.223,3.643
16.18,53.45,3.494
16.21,50.748,3.242
16.24,47.519,2.807
16.28,43.658,2.451
16.31,39.763,2.177
16.34,35.832,1.833
16.37,31.937,1.512
16.41,27.831,1.203
16.44,23.83,0.928
16.47,19.864,0.699
16.51,15.933,0.481
16.54,12.073,0.229
16.57,8.002,0.023
16.6,3.966,-0.149
16.64,-0.105,-0.309
16.67,-3.51,-0.172
16.7,-4.668,0.298
16.73,-4.913,0.137
16.77,-7.019,-0.756
16.8,-11.476,-1.352
16.83,-16.179,-1.432
16.86,-20.425,-1.776
16.9,-24.637,-2.6
16.93,-29.796,-3.356
16.96,-34.814,-3.666
16.99,-38.956,-3.528
17.03,-41.237,-3.494
17.06,-42.746,-3.815
17.09,-44.922,-3.987
17.12,-46.887,-4.067
17.16,-48.782,-4.261
17.19,-50.993,-4.559
17.22,-54.012,-5.029
17.25,-57.907,-5.464
17.29,-62.119,-5.831
17.32,-66.26,-6.209
17.35,-70.576,-6.644
17.38,-74.998,-6.999
17.42,-79.21,-7.32
17.45,-83.0,-7.515
17.48,-86.264,-7.641
17.51,-89.282,-7.893
17.55,-92.336,-8.156
17.58,-95.178,-8.271
17.61,-97.916,-8.489
17.64,-100.723,-8.809
17.68,-103.882,-9.107
17.71,-107.286,-9.405
17.74,-110.796,-9.749
17.77,-114.41,-10.092
17.81,-118.166,-10.402
17.84,-121.71,-10.665
17.87,-125.15,-10.963
17.91,-128.589,-11.272
17.94,-131.853,-11.49
17.97,-135.046,-11.673
18.0,-138.029,-11.834
18.04,-141.153,-12.212
18.07,-144.276,-12.361
18.1,-146.698,-12.441
18.13,-149.33,-12.784
18.17,-152.454,-13.174
18.2,-155.682,-13.3
18.23,-158.244,-13.472
18.26,-160.771,-13.758
18.3,-163.86,-14.09
18.33,-166.843,-14.251
18.36,-169.264,-14.342
18.39,-171.44,-14.571
18.43,-173.792,-14.881
18.46,-176.529,-15.018
18.49,-179.372,-15.27
18.52,-182.425,-15.66
18.56,-185.689,-15.946
18.59,-188.882,-16.175
18.62,-192.111,-16.416
18.65,-194.989,-16.622
18.69,-197.586,-16.759
18.72,-199.937,-16.817
18.75,-201.797,-16.885
18.78,-203.271,-16.966
18.82,-204.816,-17.0
18.85,-206.079,-16.989
18.88,-206.816,-17.046
18.91,-207.658,-17.275
18.95,-209.203,-17.47
18.98,-210.817,-17.619
19.01,-212.361,-17.939
19.04,-214.572,-18.352
19.08,-217.45,-18.684
19.11,-220.398,-18.936
19.14,-223.1,-19.188
19.17,-225.732,-19.406
19.21,-228.329,-19.612
19.24,-231.102,-19.761
19.27,-233.383,-19.738
19.3,-235.278,-19.795
19.34,-237.173,-19.864
19.37,-238.718,-19.795
19.4,-239.7,-19.818
19.44,-240.823,-19.818
19.47,-242.227,-19.956
19.5,-243.877,-20.15
19.53,-245.526,-20.185
19.57,-246.86,-20.345
19.6,-248.509,-20.54
19.63,-250.439,-20.78
19.66,-252.405,-20.952
19.7,-254.265,-20.987
19.73,-255.598,-21.055
19.76,-257.072,-21.204
19.79,-258.862,-21.273
19.83,-260.301,-21.296
19.86,-261.6,-21.388
19.89,-263.144,-21.468
19.92,-264.548,-21.468
19.96,-265.776,-21.456
19.99,-266.759,-21.548
20.02,-267.987,-21.628
20.05,-269.356,-21.697
20.09,-270.619,-21.8
20.12,-271.918,-21.823
20.15,-273.181,-21.903
20.18,-274.515,-21.926
20.22,-275.673,-21.937
20.25,-276.901,-22.018
20.28,-277.954,-22.075
20.31,-279.358,-22.155
20.35,-280.656,-22.178
20.38,-281.885,-22.27
20.41,-283.113,-22.201
20.44,-283.815,-22.075
20.48,-284.201,-22.086
20.51,-284.798,-22.04
20.54,-285.149,-21.903
20.57,-285.464,-21.96
20.61,-285.605,-21.857
20.64,-286.061,-21.903
20.67,-286.728,-22.086
20.7,-287.254,-21.949
20.74,-287.675,-22.086
20.77,-287.956,-22.04
20.8,-288.342,-21.983
20.83,-288.869,-22.075
20.87,-289.465,-22.075
20.9,-289.606,-21.937
20.93,-289.22,-21.846
20.97,-288.763,-21.754
21.0,-288.062,-21.559
21.03,-287.079,-21.376
21.06,-285.991,-21.319
21.1,-285.324,-21.41
21.13,-285.324,-21.433
21.16,-285.078,-21.525
21.19,-285.219,-21.697
21.23,-285.324,-21.72
21.26,-285.394,-21.731
21.29,-285.429,-21.708
21.32,-285.043,-21.605
21.36,-284.447,-21.456
21.39,-283.569,-21.284
21.42,-282.376,-21.044
21.45,-280.586,-20.792
21.49,-278.41,-20.62
21.52,-276.375,-20.414
21.55,-274.023,-20.219
21.58,-271.707,-20.173
21.62,-269.917,-20.196
21.65,-268.338,-20.15
21.68,-266.583,-20.208
21.71,-265.39,-20.357
21.75,-264.372,-20.414
21.78,-263.354,-20.379
21.81,-262.021,-20.368
21.84,-260.968,-20.288
21.88,-259.669,-20.173
21.91,-258.231,-20.001
21.94,-256.441,-19.841
21.97,-254.756,-19.715
22.01,-253.001,-19.52
22.04,-250.826,-19.257
22.07,-248.755,-19.268
22.1,-247.07,-19.131
22.14,-245.105,-18.913
22.17,-243.175,-18.925
22.2,-241.771,-18.925
22.23,-240.437,-18.821
22.27,-238.963,-18.73
22.3,-237.595,-18.65
22.33,-236.296,-18.558
22.36,-234.962,-18.398
22.4,-233.208,-18.18
22.43,-231.032,-17.951
22.46,-229.207,-17.916
22.5,-227.628,-17.722
22.53,-225.276,-17.332
22.56,-222.609,-17.115
22.59,-220.538,-17.092
22.63,-218.748,-16.931
22.66,-216.608,-16.679
22.69,-214.397,-16.599
22.72,-212.747,-16.599
22.76,-211.343,-16.416
22.79,-209.273,-16.152
22.82,-207.027,-15.992
22.85,-205.026,-15.877
22.89,-203.166,-15.625
22.92,-200.955,-15.419
22.95,-198.849,-15.236
22.98,-196.779,-15.098
23.02,-194.743,-14.881
23.05,-192.392,-14.594
23.08,-189.83,-14.388
23.11,-187.338,-14.205
23.15,-184.811,-13.896
23.18,-182.179,-13.598
23.21,-179.442,-13.403
23.24,-176.775,-13.162
23.28,-174.002,-12.899
23.31,-171.23,-12.67
23.34,-168.317,-12.487
23.37,-165.509,-12.246
23.41,-162.631,-12.005
23.44,-159.999,-11.834
23.47,-157.648,-11.742
23.5,-154.7,-11.238
23.54,-151.682,-11.1
23.57,-148.698,-10.997
23.6,-146.242,-10.619
23.63,-143.469,-10.482
23.67,-140.346,-10.104
23.7,-137.187,-9.863
23.73,-134.274,-9.703
23.76,-131.677,-9.439
23.8,-128.624,-9.153
23.83,-125.571,-8.89
23.86,-122.482,-8.672
23.9,-119.604,-8.42
23.93,-116.551,-8.122
23.96,-113.287,-7.836
23.99,-110.129,-7.641
24.03,-107.076,-7.32
24.06,-103.496,-6.965
24.09,-99.565,-6.644
24.12,-95.634,-6.312
24.16,-91.493,-5.945
24.19,-87.106,-5.602
24.22,-82.755,-5.338
24.25,-78.613,-5.086
24.29,-74.753,-4.8
24.32,-70.998,-4.582
24.35,-67.383,-4.376
24.38,-64.049,-4.17
24.42,-60.995,-4.032
24.45,-58.083,-3.849
24.48,-55.275,-3.62
24.51,-52.292,-3.368
24.55,-49.168,-3.093
24.58,-46.045,-2.818
24.61,-42.781,-2.555
24.64,-39.236,-2.188
24.68,-35.341,-1.833
24.71,-31.27,-1.535
24.74,-27.269,-1.249
24.77,-23.303,-0.939
24.81,-19.197,-0.642
24.84,-15.091,-0.401
24.87,-11.195,-0.183
24.9,-7.44,0.0
24.94,-3.825,0.183
24.97,-0.07,0.344
25.0,3.264,0.355
25.03,4.808,-0.069
25.07,5.405,-0.057
25.1,7.475,0.825
25.13,11.932,1.489
25.16,16.881,1.627
25.2,21.198,1.913
25.23,25.269,2.692
25.26,30.182,3.448
25.29,35.06,3.62
25.33,38.605,3.586
25.36,40.71,3.643
25.39,42.43,3.826
25.43,44.606,4.032
25.46,46.782,4.147
25.49,48.712,4.273
25.52,50.993,4.594
25.56,54.117,5.086
25.59,58.047,5.487
25.62,62.083,5.842
25.65,66.154,6.266
25.69,70.541,6.679
25.72,74.893,7.011
25.75,78.964,7.251
25.78,82.474,7.446
25.82,85.667,7.675
25.85,88.966,7.985
25.88,92.195,8.179
25.91,95.003,8.282
25.95,97.81,8.557
25.98,100.899,8.89
26.01,104.303,9.153
26.04,107.848,9.508
26.08,111.252,9.794
26.11,114.867,10.092
26.14,118.481,10.459
26.17,122.096,10.711
26.21,125.22,10.894
26.24,128.519,11.192
26.27,131.677,11.49
26.3,134.906,11.582
26.34,137.854,11.925
26.37,140.942,12.166
26.4,143.715,12.269
26.43,146.452,12.544
26.47,149.471,12.899
26.5,152.454,13.048
26.53,155.156,13.266
26.56,157.788,13.552
26.6,160.42,13.747
26.63,163.052,13.999
26.66,165.72,14.216
26.69,168.141,14.331
26.73,170.317,14.56
26.76,172.774,14.823
26.79,175.301,15.007
26.82,177.933,15.259
26.86,180.811,15.602
26.89,183.829,15.889
26.92,186.917,16.152
26.96,189.97,16.404
26.99,192.883,16.576
27.02,195.515,16.759
27.05,198.148,16.943
27.09,200.359,17.069
27.12,202.499,17.183
27.15,204.5,17.275
27.18,206.219,17.367
27.22,207.658,17.435
27.25,209.238,17.607
27.28,211.028,17.779
27.31,212.817,17.962
27.35,214.748,18.226
27.38,216.959,18.455
27.41,219.275,18.673
27.44,221.767,18.959
27.48,224.048,19.131
27.51,226.083,19.199
27.54,228.224,19.452
27.57,230.4,19.6
27.61,232.33,19.612
27.64,233.804,19.669
27.67,235.664,19.864
27.7,237.981,20.093
27.74,239.911,20.104
27.77,241.455,20.116
27.8,242.859,20.322
27.83,244.965,20.54
27.87,247.0,20.517
27.9,248.053,20.448
27.93,249.422,20.735
27.96,251.492,20.941
28.0,253.107,20.803
28.03,253.949,20.861
28.06,255.353,21.147
28.09,257.388,21.216
28.13,258.722,21.158
28.16,259.88,21.33
28.19,261.635,21.548
28.22,263.776,21.64
28.26,265.109,21.571
28.29,265.987,21.594
28.32,267.11,21.743
28.36,268.689,21.788
28.39,269.987,21.731
28.42,271.04,21.777
28.45,272.234,21.857
28.49,273.602,21.903
28.52,274.69,21.914
28.55,275.778,22.04
28.58,277.147,22.109
28.62,278.41,22.166
28.65,279.709,22.27
28.68,281.183,22.315
28.71,282.516,22.338
28.75,283.675,22.315
28.78,284.517,22.247
28.81,285.184,22.212
28.84,285.675,22.144
28.88,286.026,21.983
28.91,286.201,21.983
28.94,286.903,22.075
28.97,287.395,21.949
29.01,287.289,21.892
29.04,287.219,22.018
29.07,287.605,21.926
29.1,287.956,22.006
29.14,288.097,21.972
29.17,288.237,21.937
29.2,288.412,22.063
29.23,288.939,22.052
29.27,289.044,21.926
29.3,288.763,21.914
29.33,288.693,21.926
29.36,288.623,21.8
29.4,288.097,21.674
29.43,287.711,21.743
29.46,287.64,21.72
29.49,287.395,21.594
29.53,286.552,21.525
29.56,285.71,21.502
29.59,285.008,21.399
29.62,283.92,21.193
29.66,282.376,21.09
29.69,281.183,21.067
29.72,280.2,21.009
29.75,278.902,20.929
29.79,277.428,20.883
29.82,275.989,20.849
29.85,274.655,20.78
29.89,273.111,20.712
29.92,271.567,20.631
29.95,270.198,20.597
29.98,268.97,20.586
30.02,267.531,20.528
30.05,266.267,20.517
30.08,265.179,20.517
30.11,263.951,20.402
30.15,262.512,20.253
30.18,261.143,20.196
30.21,259.705,20.093
30.24,258.125,19.898
30.28,256.3,19.807
30.31,254.581,19.738
30.34,252.966,19.566
30.37,251.036,19.348
30.41,248.965,19.314
30.44,247.421,19.28
30.47,245.772,19.119
30.5,243.982,19.005
30.54,242.087,18.959
30.57,240.543,18.89
30.6,239.139,18.753
30.63,236.963,18.478
30.67,235.068,18.421
30.7,233.594,18.409
30.73,232.155,18.191
30.76,230.19,18.031
30.8,228.47,17.974
30.83,227.242,17.905
30.86,225.978,17.733
30.89,224.258,17.504
30.93,222.469,17.401
30.96,221.1,17.298
30.99,219.626,17.069
31.02,217.661,16.759
31.06,215.52,16.576
31.09,213.379,16.416
31.12,211.098,16.106
31.15,208.43,15.832
31.19,205.904,15.648
31.22,203.377,15.396
31.25,200.955,15.213
31.28,198.849,15.098
31.32,196.709,14.949
31.35,194.673,14.812
31.38,192.708,14.64
31.42,190.356,14.4
31.45,187.935,14.193
31.48,185.583,13.953
31.51,183.092,13.666
31.55,180.53,13.472
31.58,177.968,13.22
31.61,175.02,12.876
31.64,171.967,12.658
31.68,169.334,12.498
31.71,166.492,12.177
31.74,163.368,11.834
31.77,160.42,11.753
31.81,157.893,11.559
31.84,155.226,11.249
31.87,152.208,10.997
31.9,149.26,10.768
31.94,146.312,10.585
31.97,143.188,10.184
32.0,139.854,9.898
32.03,136.45,9.691
32.07,133.467,9.474
32.1,130.414,9.21
32.13,127.396,8.947
32.16,124.483,8.775
32.2,121.745,8.603
32.23,119.148,8.374
32.26,116.621,8.191
32.29,114.165,7.985
32.33,111.357,7.629
32.36,108.093,7.286
32.39,104.549,6.988
32.42,100.829,6.621
32.46,96.758,6.209
32.49,92.336,5.808
32.52,87.492,5.384
32.55,83.07,5.201
32.59,79.175,5.04
32.62,75.42,4.697
32.65,71.629,4.433
32.68,68.155,4.365
32.72,64.891,4.135
32.75,61.732,3.883
32.78,58.749,3.723
32.82,55.591,3.482
32.85,52.397,3.208
32.88,49.203,2.978
32.91,45.764,2.669
32.95,42.255,2.36
32.98,38.85,2.142
33.01,35.481,1.867
33.04,31.937,1.546
33.08,28.322,1.249
33.11,24.286,0.916
33.14,20.25,0.63
33.17,16.284,0.435
33.21,12.494,0.206
33.24,8.388,-0.069
33.27,4.282,-0.241
33.3,0.035,-0.378
33.34,-3.51,-0.218
33.37,-4.808,0.241
33.4,-5.124,0.126
33.43,-7.23,-0.756
33.47,-11.722,-1.398
33.5,-16.74,-1.524
33.53,-20.952,-1.81
33.56,-24.953,-2.532
33.6,-29.726,-3.265
33.63,-34.709,-3.551
33.66,-38.78,-3.311
33.69,-40.57,-3.276
33.73,-42.29,-3.723
33.76,-44.781,-3.941
33.79,-47.028,-3.929
33.82,-48.888,-4.124
33.86,-51.274,-4.582
33.89,-54.643,-5.063
33.92,-58.749,-5.441
33.95,-63.031,-5.762
33.99,-67.102,-6.152
34.02,-71.278,-6.587
34.05,-75.385,-6.931
34.08,-79.42,-7.171
34.12,-82.965,-7.309
34.15,-85.773,-7.458
34.18,-88.51,-7.721
34.21,-91.704,-8.03
34.25,-94.722,-8.191
34.28,-97.389,-8.385
34.31,-100.372,-8.741
34.35,-103.777,-9.084
34.38,-107.391,-9.348
34.41,-111.006,-9.703
34.44,-114.656,-10.058
34.48,-118.271,-10.356
34.51,-121.815,-10.596
34.54,-125.325,-10.86
34.57,-128.519,-11.089
34.61,-131.642,-11.307
34.64,-134.695,-11.627
34.67,-137.819,-11.799
34.7,-141.048,-12.097
34.74,-144.312,-12.372
34.77,-146.979,-12.429
34.8,-149.365,-12.624
34.83,-152.348,-13.082
34.87,-155.612,-13.266
34.9,-158.35,-13.38
34.93,-160.701,-13.609
34.96,-163.403,-13.953
35.0,-166.351,-14.171
35.03,-169.019,-14.308
35.06,-171.51,-14.514
35.09,-173.932,-14.732
35.13,-176.424,-14.949
35.16,-179.196,-15.213
35.19,-182.214,-15.511
35.22,-185.303,-15.786
35.26,-188.286,-16.026
35.29,-191.234,-16.313
35.32,-194.287,-16.507
35.35,-196.709,-16.645
35.39,-198.99,-16.782
35.42,-201.236,-16.897
35.45,-203.131,-16.943
35.48,-204.675,-16.977
35.52,-206.079,-17.069
35.55,-207.448,-17.195
35.58,-208.641,-17.298
35.61,-210.045,-17.47
35.65,-211.8,-17.699
35.68,-213.765,-17.916
35.71,-215.695,-18.249
35.74,-218.327,-18.558
35.78,-221.065,-18.81
35.81,-223.662,-19.096
35.84,-226.364,-19.291
35.88,-228.751,-19.406
35.91,-231.067,-19.555
35.94,-233.067,-19.589
35.97,-234.892,-19.623
36.01,-236.577,-19.692
36.04,-238.226,-19.738
36.07,-239.525,-19.83
36.1,-240.683,-19.818
36.14,-242.192,-19.99
36.17,-243.806,-20.139
36.2,-245.351,-20.185
36.23,-246.825,-20.402
36.27,-248.93,-20.666
36.3,-251.001,-20.769
36.33,-252.756,-20.861
36.36,-254.37,-20.998
36.4,-256.16,-21.135
36.43,-257.739,-21.147
36.46,-259.108,-21.181
36.49,-260.477,-21.296
36.53,-262.091,-21.33
36.56,-263.425,-21.284
36.59,-264.442,-21.273
36.62,-265.285,-21.376
36.66,-266.478,-21.479
36.69,-267.636,-21.525
36.72,-268.724,-21.662
36.75,-270.128,-21.811
36.79,-271.707,-21.788
36.82,-272.76,-21.811
36.85,-273.953,-21.949
36.88,-275.252,-21.995
36.92,-276.445,-22.052
36.95,-277.603,-22.098
36.98,-279.007,-22.178
37.01,-280.481,-22.178
37.05,-281.744,-22.189
37.08,-282.692,-22.201
37.11,-283.534,-22.178
37.14,-284.412,-22.121
37.18,-284.938,-22.018
37.21,-285.008,-21.937
37.24,-285.605,-22.018
37.27,-285.745,-21.857
37.31,-286.061,-21.949
37.34,-286.798,-22.086
37.37,-287.219,-21.937
37.41,-287.57,-22.098
37.44,-287.851,-21.983
37.47,-287.886,-21.926
37.5,-288.412,-22.086
37.54,-289.22,-22.063
37.57,-289.255,-21.914
37.6,-288.904,-21.937
37.63,-289.044,-21.903
37.67,-288.763,-21.708
37.7,-287.886,-21.651
37.73,-287.605,-21.685
37.76,-287.605,-21.651
37.8,-287.254,-21.64
37.83,-287.044,-21.674
37.86,-286.903,-21.674
37.89,-286.377,-21.605
37.93,-285.815,-21.514
37.96,-285.008,-21.388
37.99,-283.955,-21.273
38.02,-283.043,-21.147
38.06,-281.674,-20.998
38.09,-280.797,-21.055
38.12,-281.464,-21.399
38.15,-282.306,-21.456
38.19,-282.306,-21.399
38.22,-282.306,-21.559
38.25,-283.183,-21.651
38.28,-283.324,-21.319
38.32,-281.955,-20.941
38.35,-279.884,-20.689
38.38,-277.708,-20.219
38.41,-274.304,-19.646
38.45,-270.303,-19.303
38.48,-266.513,-19.142
38.51,-263.319,-19.005
38.54,-260.161,-18.902
38.58,-257.458,-19.062
38.61,-255.458,-19.211
38.64,-253.563,-19.326
38.67,-251.843,-19.383
38.71,-250.334,-19.44
38.74,-248.93,-19.474
38.77,-247.527,-19.383
38.81,-245.912,-19.28
38.84,-244.438,-19.199
38.87,-243.14,-19.131
38.9,-241.806,-19.005
38.94,-239.946,-18.81
38.97,-238.156,-18.684
39.0,-236.647,-18.592
39.03,-234.962,-18.295
39.07,-232.822,-18.123
39.1,-230.611,-17.985
39.13,-228.575,-17.79
39.16,-226.434,-17.619
39.2,-224.504,-17.47
39.23,-222.328,-17.275
39.26,-220.293,-17.172
39.29,-218.503,-17.115
39.33,-216.994,-16.989
39.36,-215.274,-16.782
39.39,-213.484,-16.725
39.42,-211.589,-16.519
39.46,-209.483,-16.29
39.49,-207.483,-16.141
39.52,-205.588,-15.946
39.55,-203.552,-15.706
39.59,-201.517,-15.545
39.62,-199.692,-15.396
39.65,-197.726,-15.156
39.68,-195.27,-14.915
39.72,-192.848,-14.663
39.75,-190.286,-14.457
39.78,-187.724,-14.159
39.81,-184.566,-13.815
39.85,-181.442,-13.621
39.88,-178.986,-13.518
39.91,-176.318,-13.174
39.94,-173.055,-12.842
39.98,-170.001,-12.739
40.01,-167.439,-12.635
40.04,-164.772,-12.292
40.07,-161.578,-11.96
40.11,-158.736,-11.971
40.14,-156.77,-11.891
40.17,-154.279,-11.513
40.2,-151.19,-11.158
40.24,-148.032,-10.974
40.27,-145.505,-10.86
40.3,-143.013,-10.573
40.34,-139.854,-10.138
40.37,-136.38,-9.875
40.4,-133.221,-9.783
40.43,-130.344,-9.508
40.47,-127.15,-9.096
40.5,-123.676,-8.855
40.53,-120.447,-8.718
40.56,-115.709,-7.95
40.6,-108.62,-6.931
40.63,-100.232,-6.518
40.66,-93.95,-6.53
40.69,-90.019,-6.553
40.73,-85.878,-5.911
40.76,-81.14,-5.785
40.79,-78.368,-6.392
40.82,-78.262,-6.667
40.86,-78.613,-6.541
40.89,-78.648,-6.553
40.92,-78.157,-6.575
40.95,-77.49,-6.346
40.99,-76.086,-5.934
41.02,-73.454,-5.384
41.05,-69.734,-4.788
41.08,-65.172,-4.239
41.12,-60.715,-3.815
41.15,-56.398,-3.448
41.18,-52.257,-3.07
41.21,-47.94,-2.715
41.25,-44.009,-2.577
41.28,-40.956,-2.486
41.31,-38.113,-2.234
41.34,-34.814,-1.925
41.38,-31.41,-1.753
41.41,-28.427,-1.638
41.44,-25.304,-1.272
41.47,-21.654,-0.882
41.51,-17.688,-0.63
41.54,-13.547,-0.332
41.57,-9.476,-0.023
41.6,-5.37,0.218
41.64,-1.263,0.367
41.67,2.351,0.401
41.7,4.247,0.069
41.73,4.562,-0.183
41.77,5.58,0.435
41.8,8.949,1.214
41.83,13.477,1.443
41.87,17.583,1.592
41.9,21.794,2.268
41.93,26.883,3.15
41.96,32.603,3.712
42.0,37.833,3.735
42.03,41.061,3.757
42.06,43.588,4.078
42.09,46.501,4.296
42.13,49.274,4.33
42.16,51.379,4.365
42.19,53.204,4.571
42.22,55.521,4.926
42.26,58.714,5.327
42.29,62.259,5.613
42.32,66.084,5.968
42.35,69.839,6.392
42.39,73.805,6.713
42.42,77.701,7.034
42.45,81.526,7.4
42.48,85.001,7.606
42.52,88.335,7.824
42.55,91.423,8.099
42.58,94.301,8.248
42.61,97.073,8.489
42.65,99.986,8.775
42.68,102.899,8.981
42.71,106.093,9.313
42.74,109.637,9.76
42.78,113.358,9.978
42.81,116.692,10.195
42.84,119.885,10.551
42.87,123.289,10.871
42.91,127.01,11.135
42.94,130.414,11.341
42.97,133.151,11.524
43.0,136.134,11.834
43.04,139.714,12.189
43.07,142.873,12.28
43.1,145.61,12.509
43.13,148.804,12.922
43.17,151.927,13.082
43.2,154.7,13.197
43.23,157.262,13.472
43.27,159.999,13.678
43.3,162.561,13.827
43.33,165.018,14.056
43.36,167.264,14.285
43.4,169.72,14.445
43.43,171.967,14.686
43.46,174.493,14.984
43.49,177.441,15.247
43.53,180.565,15.557
43.56,183.583,15.877
43.59,186.812,16.152
43.62,190.041,16.404
43.66,193.059,16.576
43.69,195.656,16.737
43.72,198.288,16.92
43.75,200.745,17.023
43.79,202.675,17.046
43.82,204.43,17.16
43.85,206.36,17.344
43.88,208.009,17.367
43.92,209.378,17.447
43.95,210.957,17.699
43.98,212.958,17.939
44.01,215.134,18.168
44.05,217.274,18.398
44.08,219.485,18.638
44.11,222.188,18.925
44.14,224.539,19.051
44.18,226.259,19.131
44.21,228.329,19.371
44.24,230.646,19.52
44.27,232.541,19.509
44.31,234.015,19.589
44.34,235.84,19.784
44.37,237.805,19.91
44.4,239.455,19.978
44.44,240.999,20.104
44.47,242.894,20.265
44.5,244.859,20.437
44.53,246.895,20.597
44.57,248.93,20.757
44.6,250.931,20.861
44.63,252.791,20.975
44.66,254.581,21.067
44.7,256.16,21.009
44.73,257.353,21.055
44.76,258.897,21.17
44.8,260.266,21.147
44.83,261.424,21.181
44.86,262.512,21.273
44.89,263.565,21.307
44.93,264.688,21.33
44.96,265.706,21.376
44.99,266.513,21.445
45.02,267.566,21.559
45.06,268.829,21.685
45.09,270.163,21.788
45.12,271.461,21.857
45.15,272.795,21.96
45.19,274.234,21.995
45.22,275.497,22.098
45.25,276.936,22.224
45.28,278.41,22.258
45.32,279.919,22.315
45.35,281.499,22.384
45.38,282.938,22.384
45.41,284.271,22.361
45.45,285.254,22.27
45.48,285.956,22.212
45.51,286.482,22.189
45.54,286.342,21.88
45.58,286.377,21.903
45.61,287.079,22.04
45.64,287.535,21.892
45.67,287.114,21.777
45.71,287.009,21.972
45.74,287.781,22.029
45.77,287.816,21.846
45.8,287.219,21.823
45.84,287.43,22.006
45.87,288.026,21.995
45.9,287.991,21.88
45.93,287.781,21.926
45.97,287.816,21.972
46.0,287.886,21.903
46.03,287.711,21.766
46.06,287.254,21.731
46.1,287.219,21.857
46.13,287.535,21.846
46.16,287.36,21.743
46.19,286.868,21.72
46.23,286.377,21.662
46.26,285.851,21.468
46.29,284.657,21.227
46.33,283.008,21.09
46.36,281.604,21.032
46.39,280.481,20.929
46.42,279.007,20.78
46.46,277.182,20.746
46.49,275.568,20.757
46.52,274.129,20.712
46.55,272.62,20.643
46.59,270.97,20.654
46.62,269.812,20.677
46.65,268.759,20.643
46.68,267.531,20.62
46.72,266.338,20.62
46.75,265.355,20.62
46.78,264.302,20.494
46.81,262.793,20.368
46.85,261.389,20.299
46.88,260.126,20.173
46.91,258.511,19.978
46.94,256.757,19.887
46.98,255.212,19.852
47.01,253.738,19.669
47.04,251.949,19.463
47.07,250.053,19.417
47.11,248.509,19.406
47.14,247.176,19.28
47.17,245.526,19.062
47.2,243.666,19.028
47.24,242.052,18.947
47.27,240.508,18.753
47.3,238.402,18.501
47.33,236.366,18.409
47.37,235.068,18.489
47.4,233.629,18.237
47.43,231.418,17.962
47.46,228.891,17.859
47.5,227.312,17.894
47.53,225.943,17.642
47.56,223.697,17.286
47.59,221.03,17.218
47.63,219.345,17.218
47.66,217.801,17.0
47.69,215.8,16.737
47.73,213.66,16.645
47.76,212.01,16.611
47.79,210.396,16.347
47.82,208.15,16.061
47.86,206.009,15.946
47.89,204.008,15.74
47.92,201.973,15.488
47.95,199.832,15.293
47.99,197.691,15.098
48.02,195.445,14.881
48.05,193.129,14.675
48.08,190.778,14.434
48.12,188.181,14.193
48.15,185.654,13.976
48.18,183.197,13.735
48.21,180.6,13.518
48.25,177.933,13.266
48.28,175.055,12.979
48.31,172.107,12.693
48.34,169.334,12.544
48.38,166.702,12.303
48.41,163.824,11.983
48.44,160.806,11.811
48.47,157.928,11.627
48.51,155.437,11.41
48.54,152.629,11.089
48.57,149.681,10.883
48.6,146.628,10.654
48.64,143.68,10.367
48.67,140.486,10.069
48.7,137.257,9.806
48.73,134.029,9.565
48.77,131.186,9.371
48.8,128.343,9.13
48.83,125.36,8.832
48.86,122.237,8.603
48.9,119.289,8.397
48.93,116.376,8.145
48.96,113.673,7.962
48.99,110.901,7.71
49.03,107.918,7.332
49.06,104.268,7.011
49.09,100.372,6.69
49.12,96.336,6.312
49.16,92.09,5.945
49.19,87.492,5.556
49.22,83.0,5.235
49.26,78.824,5.063
49.29,74.998,4.823
49.32,71.103,4.525
49.35,67.453,4.376
49.39,64.189,4.227
49.42,61.171,3.998
49.45,58.118,3.815
49.48,55.17,3.608
49.52,52.222,3.334
49.55,49.133,3.082
49.58,46.01,2.83
49.61,42.746,2.509
49.65,39.096,2.142
49.68,35.025,1.799
49.71,30.989,1.489
49.74,27.129,1.237
49.78,23.233,0.985
49.81,19.408,0.699
49.84,15.442,0.47
49.87,11.722,0.298
49.91,8.037,0.137
49.94,4.668,0.0
49.97,1.018,-0.16
50.0,-2.316,-0.16
50.04,-3.931,0.115
50.07,-4.527,0.183
50.1,-6.177,-0.504
50.13,-10.213,-1.237
50.17,-15.091,-1.432
50.2,-19.373,-1.627
50.23,-23.373,-2.303
50.26,-28.322,-3.162
50.3,-33.727,-3.563
50.33,-38.219,-3.46
50.36,-40.956,-3.368
50.39,-43.027,-3.723
50.43,-45.518,-4.021
50.46,-48.08,-4.021
50.49,-49.976,-4.113
50.52,-52.046,-4.445
50.56,-54.994,-4.869
50.59,-58.609,-5.235
50.62,-62.575,-5.613
50.65,-66.576,-5.98
50.69,-70.647,-6.369
50.72,-74.612,-6.724
50.75,-78.648,-7.011
50.79,-82.404,-7.263
50.82,-85.773,-7.469
50.85,-88.826,-7.687
50.88,-91.844,-7.927
50.92,-94.757,-8.133
50.95,-97.635,-8.363
50.98,-100.723,-8.626
51.01,-104.022,-8.981
51.05,-107.532,-9.29
51.08,-111.076,-9.577
51.11,-114.516,-9.921
51.14,-118.201,-10.207
51.18,-121.605,-10.447
51.21,-125.009,-10.722
51.24,-128.343,-11.089
51.27,-131.677,-11.238
51.31,-134.731,-11.478
51.34,-137.784,-11.719
51.37,-140.977,-12.028
51.4,-144.347,-12.246
51.44,-147.224,-12.372
51.47,-149.751,-12.635
51.5,-152.559,-12.899
51.53,-155.367,-13.105
51.57,-158.069,-13.369
51.6,-161.017,-13.609
51.63,-163.719,-13.781
51.66,-166.176,-13.987
51.7,-168.668,-14.216
51.73,-171.23,-14.457
51.76,-173.756,-14.617
51.79,-176.003,-14.835
51.83,-178.67,-15.19
51.86,-181.793,-15.476
51.89,-184.846,-15.66
51.92,-187.584,-15.923
51.96,-190.532,-16.221
51.99,-193.655,-16.393
52.02,-196.252,-16.53
52.05,-198.604,-16.702
52.09,-201.06,-16.817
52.12,-202.885,-16.943
52.15,-204.71,-16.989
52.18,-206.255,-17.046
52.22,-207.869,-17.218
52.25,-209.448,-17.344
52.28,-211.133,-17.481
52.32,-212.888,-17.733
52.35,-215.063,-17.997
52.38,-217.345,-18.249
52.41,-219.731,-18.501
52.45,-222.223,-18.73
52.48,-224.644,-18.913
52.51,-226.715,-19.039
52.54,-228.68,-19.165
52.58,-230.856,-19.314
52.61,-232.857,-19.36
52.64,-234.225,-19.383
52.67,-235.77,-19.555
52.71,-237.524,-19.646
52.74,-238.998,-19.646
52.77,-240.192,-19.795
52.8,-241.595,-19.944
52.84,-243.526,-20.139
52.87,-245.561,-20.357
52.9,-247.456,-20.471
52.93,-249.001,-20.551
52.97,-250.931,-20.757
53.0,-252.931,-20.883
53.03,-254.581,-20.872
53.06,-255.879,-20.918
53.1,-257.388,-21.101
53.13,-259.178,-21.101
53.16,-260.477,-21.044
53.19,-261.459,-21.193
53.23,-262.933,-21.33
53.26,-264.513,-21.33
53.29,-265.46,-21.342
53.32,-266.478,-21.456
53.36,-267.812,-21.502
53.39,-269.04,-21.548
53.42,-270.163,-21.697
53.45,-271.426,-21.766
53.49,-272.725,-21.754
53.52,-273.883,-21.811
53.55,-275.182,-21.903
53.58,-276.305,-21.96
53.62,-277.638,-21.995
53.65,-278.937,-22.109
53.68,-280.481,-22.212
53.72,-281.99,-22.189
53.75,-283.043,-22.247
53.78,-283.92,-22.201
53.81,-284.763,-22.109
53.85,-285.429,-22.04
53.88,-285.605,-21.914
53.91,-285.921,-21.892
53.94,-285.921,-21.8
53.98,-286.377,-21.8
54.01,-286.903,-21.995
54.04,-287.254,-21.846
54.07,-287.64,-22.029
54.11,-288.026,-21.96
54.14,-288.097,-21.857
54.17,-288.518,-22.052
54.2,-289.465,-22.075
54.24,-289.606,-21.937
54.27,-289.465,-21.914
54.3,-289.255,-21.937
54.33,-289.36,-21.8
54.37,-288.834,-21.582
54.4,-287.991,-21.582
54.43,-287.64,-21.662
54.46,-287.535,-21.64
54.5,-287.219,-21.582
54.53,-286.868,-21.605
54.56,-286.377,-21.559
54.59,-285.78,-21.445
54.63,-284.903,-21.296
54.66,-283.99,-21.273
54.69,-283.815,-21.365
54.72,-284.061,-21.41
54.76,-283.745,-21.388
54.79,-283.043,-21.33
54.82,-282.06,-21.135
54.85,-280.165,-20.849
54.89,-277.779,-20.528
54.92,-274.936,-20.15
54.95,-271.602,-19.875
54.98,-268.513,-19.692
55.02,-265.46,-19.578
55.05,-262.793,-19.646
55.08,-260.828,-19.807
55.11,-259.354,-19.91
55.15,-257.985,-20.104
55.18,-257.283,-20.322
55.21,-256.757,-20.311
55.25,-255.528,-20.23
55.28,-254.23,-20.276
55.31,-253.352,-20.162
55.34,-251.949,-19.807
55.38,-249.983,-19.52
55.41,-247.878,-19.452
55.44,-246.333,-19.417
55.47,-245.07,-19.222
55.51,-243.315,-19.131
55.54,-241.56,-19.062
55.57,-240.227,-19.005
55.6,-239.069,-18.902
55.64,-237.489,-18.661
55.67,-235.664,-18.558
55.7,-234.015,-18.489
55.73,-232.225,-18.249
55.77,-229.979,-17.962
55.8,-227.592,-17.825
55.83,-225.487,-17.722
55.86,-223.486,-17.47
55.9,-221.31,-17.309
55.93,-218.784,-17.149
55.96,-217.099,-17.172
55.99,-215.906,-17.149
56.03,-214.362,-16.908
56.06,-212.572,-16.771
56.09,-211.273,-16.828
56.12,-210.115,-16.599
56.16,-208.22,-16.255
56.19,-206.149,-16.129
56.22,-204.289,-15.889
56.25,-201.833,-15.522
56.29,-199.376,-15.282
56.32,-197.095,-15.087
56.35,-194.743,-14.869
56.38,-192.216,-14.64
56.42,-189.69,-14.423
56.45,-187.128,-14.193
56.48,-184.496,-13.999
56.51,-181.898,-13.747
56.55,-179.266,-13.529
56.58,-176.669,-13.334
56.61,-173.862,-13.117
56.64,-171.194,-12.887
56.68,-168.738,-12.739
56.71,-166.035,-12.464
56.74,-162.877,-12.143
56.78,-160.034,-12.005
56.81,-157.964,-11.971
56.84,-155.507,-11.524
56.87,-152.805,-11.364
56.91,-149.857,-11.135
56.94,-146.733,-10.699
56.97,-143.645,-10.631
57.0,-140.556,-10.321
57.04,-137.187,-9.898
57.07,-133.502,-9.611
57.1,-130.344,-9.485
57.13,-127.466,-9.245
57.17,-124.413,-8.912
57.2,-121.078,-8.66
57.23,-117.78,-8.511
57.26,-115.182,-8.351
57.3,-112.55,-8.099
57.33,-109.532,-7.755
57.36,-106.093,-7.435
57.39,-102.513,-7.194
57.43,-98.898,-6.85
57.46,-94.968,-6.449
57.49,-90.616,-6.094
57.52,-86.264,-5.797
57.56,-82.474,-5.602
57.59,-79.034,-5.384
57.62,-75.595,-5.109
57.65,-72.437,-4.995
57.69,-69.945,-4.926
57.72,-67.488,-4.662
57.75,-64.645,-4.399
57.78,-61.873,-4.204
57.82,-58.855,-3.918
57.85,-55.45,-3.528
57.88,-51.59,-3.15
57.91,-47.484,-2.795
57.95,-43.097,-2.394
57.98,-38.499,-2.039
58.01,-34.007,-1.73
58.04,-29.62,-1.455
58.08,-25.549,-1.214
58.11,-21.548,-0.997
58.14,-17.828,-0.813
58.18,-14.565,-0.687
58.21,-11.441,-0.504
58.24,-8.177,-0.286
58.27,-4.878,-0.057
58.31,-1.439,0.149
58.34,2.071,0.275
58.37,4.562,0.126
58.4,5.896,-0.069
58.44,7.581,0.424
58.47,11.266,1.237
58.5,16.53,1.684
58.53,21.548,1.947
58.57,25.97,2.486
58.6,30.533,3.242
58.63,35.622,3.643
58.66,40.009,3.597
58.7,42.641,3.586
58.73,44.711,3.78
58.76,46.782,3.964
58.79,48.993,4.044
58.83,51.134,4.204
58.86,53.485,4.491
58.89,56.223,4.823
58.92,59.627,5.201
58.96,63.101,5.579
58.99,66.716,5.877
59.02,70.401,6.266
59.05,74.016,6.598
59.09,77.631,6.862
59.12,80.859,7.08
59.15,83.842,7.309
59.18,86.861,7.629
59.22,90.475,8.03
59.25,93.985,8.237
59.28,97.214,8.42
59.31,100.688,8.867
59.35,104.689,9.245
59.38,108.374,9.416
59.41,111.919,9.703
59.44,115.463,10.127
59.48,119.183,10.253
59.51,122.447,10.528
59.54,125.395,10.722
59.57,128.308,10.929
59.61,131.291,11.215
59.64,134.52,11.49
59.67,137.433,11.65
59.71,140.591,11.971
59.74,143.855,12.28
59.77,146.909,12.441
59.8,149.962,12.739
59.84,152.98,12.991
59.87,155.717,13.117
59.9,158.279,13.38
59.93,161.263,13.678
59.97,163.965,13.781
60.0,166.176,13.941
60.03,168.492,14.251
60.06,171.089,14.423
60.1,173.405,14.56
60.13,175.722,14.858
60.16,178.249,15.133
60.19,181.302,15.419
60.23,184.355,15.728
60.26,187.303,15.98
60.29,190.251,16.221
60.32,193.164,16.462
60.36,195.831,16.633
60.39,198.288,16.748
60.42,200.569,16.943
60.45,202.71,17.057
60.49,204.57,17.092
60.52,206.43,17.252
60.55,208.15,17.378
60.58,209.694,17.458
60.62,211.238,17.664
60.65,213.203,17.871
60.68,215.204,18.088
60.71,217.485,18.317
60.75,219.626,18.558
60.78,221.907,18.81
60.81,224.083,18.947
60.84,225.838,19.051
60.88,227.838,19.28
60.91,230.154,19.429
60.94,232.085,19.463
60.97,233.559,19.52
61.01,235.313,19.738
61.04,237.63,19.91
61.07,239.349,19.898
61.1,240.613,19.956
61.14,242.648,20.311
61.17,244.894,20.425
61.2,246.579,20.414
61.24,247.702,20.471
61.27,249.387,20.689
61.3,251.527,20.861
61.33,253.036,20.792
61.37,253.949,20.849
61.4,255.458,21.067
61.43,257.423,21.193
61.46,258.968,21.135
61.5,260.091,21.284
61.53,261.88,21.548
61.56,263.986,21.582
61.59,265.32,21.514
61.63,266.302,21.559
61.66,267.601,21.708
61.69,269.11,21.708
61.72,270.338,21.697
61.76,271.356,21.777
61.79,272.69,21.834
61.82,274.059,21.88
61.85,275.182,21.914
61.89,276.129,21.937
61.92,277.322,22.063
61.95,278.691,22.086
61.98,279.955,22.178
62.02,281.534,22.27
62.05,282.867,22.27
62.08,283.92,22.27
62.11,284.692,22.212
62.15,285.324,22.121
62.18,285.675,22.04
62.21,285.991,21.949
62.24,286.272,21.983
62.28,287.044,22.052
62.31,287.465,21.995
62.34,287.57,21.926
62.37,287.5,21.972
62.41,287.57,21.892
62.44,287.886,21.926
62.47,287.816,21.88
62.5,287.781,21.834
62.54,287.956,21.96
62.57,288.377,21.983
62.6,288.518,21.926
62.63,288.553,21.914
62.67,288.588,21.937
62.7,288.588,21.892
62.73,288.377,21.777
62.77,288.202,21.8
62.8,288.307,21.8
62.83,287.956,21.685
62.86,287.325,21.582
62.9,286.447,21.491
62.93,285.464,21.353
62.96,284.271,21.17
62.99,282.727,20.998
63.03,281.288,20.929
63.06,279.99,20.918
63.09,278.586,20.872
63.12,277.182,20.872
63.16,275.883,20.895
63.19,274.515,20.803
63.22,273.006,20.7
63.25,271.286,20.677
63.29,270.093,20.723
63.32,268.97,20.666
63.35,267.566,20.597
63.38,266.197,20.574
63.42,264.864,20.54
63.45,263.705,20.46
63.48,262.407,20.345
63.51,260.828,20.242
63.55,259.283,20.15
63.58,257.704,20.001
63.61,256.02,19.898
63.64,254.37,19.818
63.68,252.721,19.692
63.71,251.001,19.474
63.74,248.895,19.383
63.77,247.176,19.394
63.81,245.702,19.245
63.84,243.912,19.051
63.87,242.332,19.108
63.9,241.139,19.028
63.94,239.42,18.787
63.97,237.454,18.65
64.0,235.805,18.604
64.03,234.296,18.409
64.07,232.33,18.237
64.1,230.681,18.191
64.13,228.856,17.997
64.17,226.855,17.768
64.2,224.925,17.71
64.23,223.065,17.435
64.26,221.17,17.321
64.3,219.591,17.332
64.33,218.152,17.149
64.36,216.432,16.943
64.39,214.748,16.828
64.43,213.133,16.702
64.46,211.273,16.427
64.49,209.027,16.141
64.52,206.606,15.923
64.56,204.254,15.717
64.59,202.008,15.454
64.62,199.586,15.19
64.65,197.165,15.064
64.69,194.778,14.892
64.72,192.497,14.663
64.75,190.286,14.48
64.78,188.005,14.285
64.82,185.373,13.999
64.85,182.741,13.792
64.88,180.319,13.655
64.91,177.898,13.403
64.95,175.055,13.048
64.98,171.861,12.796
65.01,169.054,12.59
65.04,166.176,12.326
65.08,163.123,12.005
65.11,160.034,11.811
65.14,156.911,11.57
65.17,154.138,11.364
65.21,151.576,11.284
65.24,149.049,10.963
65.27,146.277,10.757
65.3,143.013,10.402
65.34,139.854,10.207
65.37,136.977,10.069
65.4,134.239,9.691
65.43,130.975,9.405
65.47,127.747,9.187
65.5,124.834,8.97
65.53,121.921,8.729
65.56,119.008,8.523
65.6,116.2,8.248
65.63,113.358,8.03
65.66,110.55,7.813
65.7,107.426,7.446
65.73,103.847,7.068
65.76,100.021,6.793
65.79,96.231,6.461
65.83,92.055,6.037
65.86,87.492,5.648
65.89,83.035,5.384
65.92,78.894,5.178
65.96,75.069,4.914
65.99,71.349,4.651
66.02,67.804,4.468
66.05,64.54,4.307
66.09,61.346,4.067
66.12,58.047,3.815
66.15,54.959,3.654
66.18,51.906,3.414
66.22,48.782,3.139
66.25,45.483,2.841
66.28,42.044,2.566
66.31,38.64,2.291
66.35,35.06,1.982
66.38,31.305,1.661
66.41,27.374,1.363
66.44,23.514,1.123
66.48,19.794,0.859
66.51,16.074,0.596
66.54,12.213,0.344
66.57,8.388,0.16
66.61,4.703,0.011
66.64,0.983,-0.172
66.67,-2.632,-0.206
66.7,-4.317,0.183
66.74,-4.808,0.206
66.77,-6.598,-0.607
66.8,-10.915,-1.306
66.83,-16.039,-1.478
66.87,-20.601,-1.764
66.9,-24.918,-2.474
66.93,-29.796,-3.276
66.96,-34.85,-3.723
67.0,-39.131,-3.563
67.03,-41.623,-3.379
67.06,-42.851,-3.712
67.09,-45.027,-3.998
67.13,-47.063,-3.998
67.16,-48.888,-4.09
67.19,-50.923,-4.502
67.23,-54.082,-4.995
67.26,-58.223,-5.43
67.29,-62.575,-5.739
67.32,-66.576,-6.129
67.36,-70.857,-6.564
67.39,-75.174,-6.931
67.42,-79.245,-7.183
67.45,-82.86,-7.354
67.49,-86.053,-7.561
67.52,-88.896,-7.79
67.55,-91.879,-7.973
67.58,-94.547,-8.168
67.62,-97.354,-8.466
67.65,-100.653,-8.763
67.68,-104.092,-9.084
67.71,-107.602,-9.394
67.75,-111.111,-9.714
67.78,-114.832,-10.069
67.81,-118.622,-10.356
67.84,-121.991,-10.573
67.88,-125.36,-10.871
67.91,-128.554,-11.112
67.94,-131.572,-11.249
67.97,-134.52,-11.57
68.01,-137.714,-11.822
68.04,-141.048,-12.074
68.07,-144.066,-12.292
68.1,-146.873,-12.487
68.14,-149.786,-12.784
68.17,-152.91,-13.025
68.2,-155.647,-13.208
68.23,-158.455,-13.472
68.27,-161.368,-13.701
68.3,-164.0,-13.85
68.33,-166.422,-14.079
68.36,-168.983,-14.308
68.4,-171.51,-14.491
68.43,-174.002,-14.652
68.46,-176.143,-14.881
68.49,-178.775,-15.202
68.53,-181.828,-15.454
68.56,-184.706,-15.694
68.59,-187.619,-15.969
68.63,-190.602,-16.244
68.66,-193.375,-16.473
68.69,-196.042,-16.668
68.72,-198.604,-16.782
68.76,-200.885,-16.863
68.79,-202.745,-17.011
68.82,-204.605,-17.103
68.85,-206.43,-17.195
68.89,-208.08,-17.275
68.92,-209.518,-17.412
68.95,-211.168,-17.619
68.98,-213.239,-17.802
69.02,-215.204,-17.974
69.05,-217.134,-18.26
69.08,-219.521,-18.524
69.11,-221.907,-18.73
69.15,-224.048,-18.902
69.18,-226.083,-19.085
69.21,-228.224,-19.188
69.24,-230.26,-19.348
69.28,-232.155,-19.452
69.31,-234.015,-19.566
69.34,-235.945,-19.669
69.37,-237.665,-19.669
69.41,-239.174,-19.852
69.44,-241.034,-20.047
69.47,-242.894,-20.093
69.5,-244.579,-20.162
69.54,-246.439,-20.311
69.57,-248.053,-20.46
69.6,-249.843,-20.597
69.63,-251.562,-20.677
69.67,-253.177,-20.769
69.7,-254.16,-20.746
69.73,-255.423,-20.883
69.76,-257.178,-20.952
69.8,-258.336,-20.952
69.83,-259.283,-21.101
69.86,-260.863,-21.342
69.89,-262.793,-21.41
69.93,-264.127,-21.388
69.96,-265.179,-21.514
69.99,-266.618,-21.605
70.02,-268.022,-21.605
70.06,-269.18,-21.662
70.09,-270.514,-21.766
70.12,-271.953,-21.743
70.16,-273.111,-21.777
70.19,-274.445,-21.823
70.22,-275.533,-21.857
70.25,-276.62,-21.937
70.29,-277.779,-21.96
70.32,-279.077,-22.063
70.35,-280.516,-22.098
70.38,-281.744,-22.155
70.42,-282.867,-22.178
70.45,-283.78,-22.109
70.48,-284.377,-22.063
70.51,-285.008,-21.995
70.55,-285.254,-21.903
70.58,-285.745,-21.926
70.61,-285.851,-21.811
70.64,-286.166,-21.811
70.68,-286.868,-22.052
70.71,-287.395,-21.914
70.74,-287.921,-22.063
70.77,-288.377,-22.018
70.81,-288.623,-21.937
70.84,-289.185,-22.086
70.87,-290.027,-22.052
70.9,-290.062,-21.914
70.94,-289.851,-21.869
70.97,-289.816,-21.834
71.0,-289.571,-21.674
71.03,-288.728,-21.525
71.07,-288.097,-21.491
71.1,-287.746,-21.502
71.13,-287.57,-21.491
71.16,-287.254,-21.468
71.2,-286.728,-21.479
71.23,-286.061,-21.491
71.26,-285.324,-21.41
71.29,-284.552,-21.261
71.33,-283.499,-21.101
71.36,-282.376,-21.044
71.39,-281.358,-21.113
71.42,-280.551,-21.067
71.46,-279.463,-20.918
71.49,-277.744,-20.757
71.52,-275.883,-20.643
71.55,-274.164,-20.483
71.59,-271.988,-20.334
71.62,-269.882,-20.253
71.65,-267.987,-20.196
71.69,-266.197,-20.15
71.72,-264.513,-20.139
71.75,-262.968,-20.208
71.78,-261.81,-20.219
71.82,-260.477,-20.208
71.85,-259.283,-20.173
71.88,-257.95,-20.162
71.91,-256.757,-20.07
71.95,-255.318,-19.921
71.98,-254.019,-19.841
72.01,-252.405,-19.715
72.04,-250.896,-19.486
72.08,-249.422,-19.44
72.11,-248.088,-19.452
72.14,-246.754,-19.188
72.17,-245.14,-19.085
72.21,-243.596,-19.039
72.24,-242.017,-18.902
72.27,-240.332,-18.695
72.3,-238.367,-18.421
72.34,-236.015,-18.26
72.37,-233.98,-18.168
72.4,-231.979,-17.962
72.43,-229.628,-17.756
72.47,-227.663,-17.745
72.5,-226.013,-17.687
72.53,-224.258,-17.481
72.56,-222.539,-17.424
72.6,-220.433,-17.252
72.63,-218.784,-17.16
72.66,-217.485,-17.092
72.69,-215.976,-16.84
72.73,-213.905,-16.599
72.76,-212.045,-16.496
72.79,-210.22,-16.29
72.82,-208.08,-15.946
72.86,-205.658,-15.74
72.89,-203.377,-15.58
72.92,-201.201,-15.316
72.95,-198.744,-15.121
72.99,-196.498,-14.984
73.02,-194.287,-14.801
73.05,-191.971,-14.56
73.09,-189.549,-14.354
73.12,-187.022,-14.148
73.15,-184.531,-13.884
73.18,-181.934,-13.666
73.22,-179.337,-13.426
73.25,-176.634,-13.162
73.28,-173.756,-12.979
73.31,-170.984,-12.67
73.35,-168.106,-12.509
73.38,-165.474,-12.326
73.41,-162.561,-11.983
73.44,-159.613,-11.765
73.48,-157.121,-11.776
73.51,-154.559,-11.398
73.54,-151.927,-11.135
73.57,-149.26,-11.066
73.61,-146.593,-10.791
73.64,-143.75,-10.436
73.67,-140.521,-10.207
73.7,-137.573,-9.989
73.74,-134.555,-9.623
73.77,-131.502,-9.405
73.8,-128.519,-9.199
73.83,-125.536,-8.878
73.87,-122.342,-8.603
73.9,-119.113,-8.374
73.93,-116.095,-8.133
73.96,-113.147,-7.927
74.0,-110.269,-7.675
74.03,-106.935,-7.286
74.06,-103.391,-7.034
74.09,-99.776,-6.782
74.13,-96.126,-6.392
74.16,-91.985,-5.968
74.19,-87.598,-5.67
74.22,-83.386,-5.418
74.26,-79.561,-5.189
74.29,-75.735,-4.892
74.32,-71.875,-4.639
74.35,-68.436,-4.513
74.39,-65.523,-4.353
74.42,-62.434,-4.044
74.45,-59.241,-3.803
74.48,-56.012,-3.631
74.52,-52.713,-3.311
74.55,-49.098,-2.967
74.58,-45.448,-2.715
74.62,-41.588,-2.394
74.65,-37.622,-2.062
74.68,-33.727,-1.787
74.71,-29.726,-1.466
74.75,-25.69,-1.203
74.78,-21.864,-1.02
74.81,-18.285,-0.768
74.84,-14.74,-0.527
74.88,-11.195,-0.355
74.91,-7.932,-0.218
74.94,-4.633,0.069
74.97,-0.772,0.344
75.01,3.018,0.412
75.04,5.334,0.069
75.07,6.282,-0.023
75.1,8.142,0.687
75.14,12.283,1.443
75.17,17.442,1.764
75.2,21.899,1.993
75.23,25.655,2.532
75.27,29.62,3.219
75.3,34.428,3.528
75.33,38.078,3.505
75.36,40.079,3.46
75.4,41.623,3.643
75.43,43.694,4.032
75.46,46.291,4.124
75.49,48.466,4.193
75.53,50.888,4.605
75.56,54.187,5.121
75.59,58.328,5.487
75.62,62.54,5.842
75.66,66.681,6.22
75.69,70.998,6.644
75.72,75.349,6.954
75.75,79.105,7.16
75.79,82.719,7.423
75.82,86.159,7.687
75.85,89.352,7.824
75.88,92.3,8.019
75.92,95.248,8.351
75.95,98.442,8.557
75.98,101.566,8.752
76.01,104.724,9.153
76.05,108.058,9.428
76.08,111.462,9.691
76.11,115.253,10.15
76.15,118.867,10.367
76.18,122.096,10.493
76.21,125.009,10.848
76.24,128.203,11.1
76.28,131.291,11.318
76.31,134.344,11.547
76.34,137.433,11.834
76.37,140.276,12.028
76.41,143.259,12.292
76.44,146.312,12.578
76.47,149.435,12.796
76.5,152.383,13.082
76.54,155.191,13.3
76.57,157.893,13.483
76.6,160.631,13.735
76.63,163.298,13.953
76.67,165.895,14.136
76.7,168.387,14.354
76.73,170.879,14.571
76.76,173.125,14.72
76.8,175.406,14.972
76.83,178.143,15.27
76.86,181.021,15.511
76.89,183.829,15.82
76.93,187.057,16.141
76.96,190.146,16.313
76.99,193.024,16.53
77.02,195.726,16.748
77.06,198.428,16.897
77.09,200.745,17.034
77.12,202.991,17.183
77.15,204.886,17.241
77.19,206.676,17.344
77.22,208.29,17.493
77.25,209.869,17.538
77.28,211.238,17.687
77.32,213.063,17.951
77.35,215.028,18.146
77.38,217.099,18.317
77.41,219.135,18.592
77.45,221.732,18.913
77.48,224.118,19.073
77.51,226.118,19.119
77.54,228.014,19.371
77.58,230.4,19.589
77.61,232.576,19.646
77.64,234.19,19.669
77.68,235.875,19.83
77.71,237.84,19.978
77.74,239.525,20.001
77.77,240.858,19.956
77.81,242.508,20.311
77.84,244.719,20.471
77.87,246.404,20.379
77.9,247.386,20.46
77.94,249.141,20.769
77.97,251.387,20.941
78.0,253.072,20.906
78.03,254.23,20.941
78.07,255.704,21.147
78.1,257.669,21.261
78.13,259.213,21.25
78.16,260.547,21.376
78.2,262.267,21.548
78.23,264.127,21.628
78.26,265.46,21.525
78.29,266.232,21.582
78.33,267.531,21.697
78.36,268.9,21.685
78.39,269.987,21.708
78.42,271.075,21.788
78.46,272.374,21.823
78.49,273.602,21.892
78.52,274.831,21.983
78.55,275.954,22.063
78.59,277.252,22.144
78.62,278.586,22.178
78.65,279.919,22.212
78.68,281.288,22.281
78.72,282.552,22.304
78.75,283.604,22.258
78.78,284.447,22.201
78.81,285.114,22.166
78.85,285.675,22.086
78.88,285.956,21.983
78.91,286.377,22.006
78.94,287.044,22.029
78.98,287.5,22.029
79.01,287.711,21.972
79.04,287.851,21.983
79.08,287.886,21.937
79.11,288.377,22.052
79.14,288.728,21.995
79.17,288.763,21.903
79.21,288.904,22.052
79.24,289.395,22.052
79.27,289.5,21.892
79.3,289.149,21.88
79.34,288.974,21.926
79.37,288.939,21.777
79.4,288.377,21.594
79.43,287.746,21.651
79.47,287.5,21.685
79.5,287.254,21.571
79.53,286.447,21.525
79.56,285.71,21.502
79.6,284.798,21.388
79.63,283.745,21.25
79.66,282.411,21.135
79.69,281.183,21.055
79.73,280.13,21.021
79.76,278.867,20.952
79.79,277.428,20.872
79.82,275.848,20.838
79.86,274.48,20.78
79.89,272.935,20.643
79.92,271.181,20.574
79.95,269.777,20.609
79.99,268.654,20.574
80.02,267.285,20.471
80.05,265.881,20.494
80.08,264.723,20.505
80.12,263.6,20.402
80.15,262.337,20.334
80.18,261.003,20.265
80.21,259.564,20.15
80.25,258.02,19.99
80.28,256.335,19.898
80.31,254.721,19.807
80.34,253.247,19.669
80.38,251.527,19.474
80.41,249.562,19.383
80.44,247.913,19.337
80.47,246.193,19.142
80.51,244.193,18.959
80.54,242.578,19.016
80.57,241.139,18.925
80.61,239.455,18.65
80.64,237.244,18.535
80.67,235.594,18.535
80.7,234.085,18.34
80.74,232.295,18.146
80.77,230.54,18.077
80.8,228.751,17.951
80.83,227.277,17.871
80.87,225.838,17.756
80.9,224.118,17.493
80.93,222.083,17.321
80.96,220.293,17.252
81.0,218.784,17.046
81.03,216.783,16.714
81.06,214.432,16.542
81.09,212.221,16.416
81.13,210.15,16.141
81.16,207.658,15.877
81.19,205.167,15.694
81.22,202.815,15.557
81.26,200.71,15.373
81.29,198.709,15.179
81.32,196.674,15.075
81.35,194.708,14.927
81.39,192.638,14.709
81.42,190.497,14.468
81.45,188.11,14.297
81.48,185.759,14.033
81.52,183.372,13.724
81.55,180.635,13.506
81.58,177.933,13.254
81.61,175.055,12.945
81.65,172.177,12.704
81.68,169.194,12.498
81.71,166.246,12.2
81.74,163.263,11.902
81.78,160.385,11.776
81.81,157.367,11.478
81.84,154.594,11.249
81.87,151.927,11.192
81.91,149.435,10.86
81.94,146.628,10.677
81.97,143.61,10.344
82.0,140.556,10.092
82.04,137.608,9.898
82.07,134.625,9.6
82.1,131.467,9.279
82.14,128.238,9.027
82.17,124.939,8.821
82.2,121.956,8.592
82.23,119.218,8.363
82.27,116.27,8.088
82.3,113.217,7.859
82.33,110.41,7.629
82.36,107.391,7.309
82.4,103.952,6.976
82.43,100.232,6.679
82.46,96.336,6.335
82.49,92.055,5.877
82.53,87.317,5.499
82.56,82.79,5.292
82.59,78.683,5.04
82.62,74.718,4.708
82.66,70.717,4.445
82.69,66.997,4.296
82.72,63.803,4.158
82.75,60.89,3.998
82.79,58.083,3.78
82.82,55.205,3.574
82.85,52.292,3.379
82.88,49.484,3.116
82.92,46.326,2.795
82.95,42.851,2.474
82.98,39.201,2.142
83.01,35.341,1.799
83.05,31.34,1.512
83.08,27.409,1.249
83.11,23.619,0.951
83.14,19.688,0.687
83.18,15.758,0.435
83.21,11.862,0.229
83.24,8.282,0.103
83.27,4.913,-0.034
83.31,1.263,-0.195
83.34,-2.386,-0.252
83.37,-4.211,0.08
83.4,-4.878,0.16
83.44,-6.738,-0.607
83.47,-11.125,-1.375
83.5,-16.46,-1.569
83.54,-21.057,-1.776
83.57,-25.198,-2.497
83.6,-30.147,-3.311
83.63,-35.376,-3.62
83.67,-39.377,-3.311
83.7,-41.096,-3.23
83.73,-42.535,-3.631
83.76,-44.817,-3.883
83.8,-47.063,-3.872
83.83,-48.853,-4.032
83.86,-50.923,-4.468
83.89,-54.257,-4.96
83.93,-58.398,-5.361
83.96,-62.575,-5.705
83.99,-66.646,-6.129
84.02,-70.998,-6.553
84.06,-75.244,-6.885
84.09,-79.175,-7.114
84.12,-82.684,-7.309
84.15,-85.843,-7.492
84.19,-88.721,-7.732
84.22,-91.809,-7.985
84.25,-94.792,-8.168
84.28,-97.565,-8.34
84.32,-100.372,-8.66
84.35,-103.777,-9.119
84.38,-107.567,-9.371
84.41,-111.147,-9.577
84.45,-114.621,-9.966
84.48,-118.271,-10.344
84.51,-121.78,-10.573
84.54,-125.29,-10.837
84.58,-128.589,-11.112
84.61,-131.783,-11.284
84.64,-134.906,-11.559
84.67,-137.924,-11.776
84.71,-141.118,-12.074
84.74,-144.241,-12.303
84.77,-147.119,-12.452
84.8,-150.032,-12.704
84.84,-152.875,-12.991
84.87,-155.612,-13.128
84.9,-158.244,-13.357
84.93,-161.017,-13.655
84.97,-163.754,-13.85
85.0,-166.176,-14.033
85.03,-168.668,-14.297
85.07,-171.194,-14.48
85.1,-173.616,-14.663
85.13,-175.932,-14.881
85.16,-178.564,-15.202
85.2,-181.723,-15.545
85.23,-184.987,-15.751
85.26,-187.83,-15.946
85.29,-190.602,-16.221
85.33,-193.41,-16.473
85.36,-196.217,-16.645
85.39,-198.674,-16.737
85.42,-201.096,-16.897
85.46,-203.166,-17.034
85.49,-205.132,-17.069
85.52,-206.711,-17.126
85.55,-208.255,-17.275
85.59,-209.694,-17.412
85.62,-211.343,-17.596
85.65,-213.203,-17.779
85.68,-214.888,-17.974
85.72,-216.888,-18.272
85.75,-219.415,-18.501
85.78,-221.696,-18.673
85.81,-223.802,-18.925
85.85,-226.083,-19.154
85.88,-228.505,-19.268
85.91,-230.611,-19.371
85.94,-232.436,-19.497
85.98,-234.401,-19.6
86.01,-236.191,-19.658
86.04,-237.77,-19.704
86.07,-239.279,-19.852
86.11,-240.999,-19.956
86.14,-242.648,-20.013
86.17,-244.087,-20.15
86.2,-245.737,-20.357
86.24,-247.667,-20.494
86.27,-249.176,-20.54
86.3,-250.685,-20.712
86.33,-252.615,-20.895
86.37,-254.335,-20.895
86.4,-255.634,-20.929
86.43,-257.178,-21.124
86.46,-259.073,-21.204
86.5,-260.617,-21.239
86.53,-262.021,-21.399
86.56,-263.53,-21.479
86.6,-264.934,-21.445
86.63,-265.987,-21.433
86.66,-266.969,-21.491
86.69,-267.917,-21.536
86.73,-269.11,-21.582
86.76,-270.233,-21.685
86.79,-271.461,-21.743
86.82,-272.549,-21.823
86.86,-273.883,-21.903
86.89,-275.111,-21.914
86.92,-276.34,-22.04
86.95,-277.708,-22.086
86.99,-279.182,-22.166
87.02,-280.586,-22.281
87.05,-282.095,-22.281
87.08,-283.183,-22.247
87.12,-284.096,-22.212
87.15,-284.868,-22.075
87.18,-285.184,-21.983
87.21,-285.359,-21.914
87.25,-285.71,-21.983
87.28,-285.815,-21.903
87.31,-286.237,-21.846
87.34,-286.763,-22.052
87.38,-287.149,-21.96
87.41,-287.605,-22.109
87.44,-288.026,-22.063
87.47,-288.237,-21.995
87.51,-288.728,-22.121
87.54,-289.395,-22.098
87.57,-289.465,-21.937
87.6,-289.255,-21.903
87.64,-289.149,-21.914
87.67,-289.044,-21.754
87.7,-288.272,-21.64
87.73,-287.816,-21.628
87.77,-287.57,-21.605
87.8,-287.254,-21.662
87.83,-287.114,-21.662
87.86,-286.833,-21.651
87.9,-286.166,-21.571
87.93,-285.394,-21.456
87.96,-284.377,-21.284
88.0,-283.113,-21.158
88.03,-281.885,-21.078
88.06,-280.727,-20.987
88.09,-279.323,-20.883
88.13,-277.744,-20.838
88.16,-276.199,-20.792
88.19,-274.585,-20.7
88.22,-272.795,-20.586
88.26,-270.935,-20.528
88.29,-269.356,-20.551
88.32,-268.022,-20.494
88.35,-266.583,-20.494
88.39,-265.46,-20.574
88.42,-264.478,-20.586
88.45,-263.46,-20.483
88.48,-262.126,-20.414
88.52,-260.793,-20.345
88.55,-259.494,-20.185
88.58,-258.055,-20.001
88.61,-256.3,-19.898
88.65,-254.581,-19.864
88.68,-253.036,-19.692
88.71,-251.106,-19.417
88.74,-249.316,-19.406
88.78,-247.772,-19.417
88.81,-246.123,-19.177
88.84,-244.263,-19.131
88.87,-242.964,-19.108
88.91,-241.525,-18.936
88.94,-239.63,-18.776
88.97,-237.63,-18.638
89.0,-235.735,-18.535
89.04,-234.12,-18.398
89.07,-232.295,-18.18
89.1,-230.014,-17.951
89.13,-227.979,-17.905
89.17,-226.329,-17.871
89.2,-224.75,-17.619
89.23,-222.714,-17.493
89.26,-220.679,-17.298
89.3,-218.819,-17.206
89.33,-217.274,-17.103
89.36,-215.59,-16.885
89.39,-213.519,-16.702
89.43,-211.729,-16.588
89.46,-209.869,-16.37
89.49,-207.518,-16.049
89.53,-204.956,-15.889
89.56,-202.956,-15.717
89.59,-200.85,-15.442
89.62,-198.499,-15.224
89.66,-196.217,-15.156
89.69,-194.357,-14.984
89.72,-192.146,-14.686
89.75,-189.655,-14.537
89.79,-187.233,-14.354
89.82,-184.706,-14.022
89.85,-181.934,-13.804
89.88,-179.301,-13.632
89.92,-176.81,-13.334
89.95,-173.897,-13.048
89.98,-170.914,-12.842
90.01,-168.071,-12.693
90.05,-165.614,-12.521
90.08,-162.912,-12.166
90.11,-159.894,-11.902
90.14,-157.367,-11.902
90.18,-154.735,-11.547
90.21,-151.997,-11.226
90.24,-149.19,-11.112
90.27,-146.593,-10.917
90.31,-143.645,-10.562
90.34,-140.451,-10.23
90.37,-137.187,-10.012
90.4,-134.099,-9.737
90.44,-131.116,-9.508
90.47,-128.343,-9.302
90.5,-125.36,-9.05
90.53,-122.447,-8.786
90.57,-119.534,-8.58
90.6,-116.586,-8.328
90.63,-113.603,-8.065
90.66,-110.69,-7.836
90.7,-107.497,-7.515
90.73,-104.022,-7.16
90.76,-100.232,-6.839
90.79,-96.161,-6.472
90.83,-91.739,-6.037
90.86,-87.071,-5.728
90.89,-82.684,-5.453
90.92,-78.403,-5.144
90.96,-74.963,-5.063
90.99,-72.928,-5.27
91.02,-71.805,-5.166
91.06,-70.401,-4.857
91.09,-68.295,-4.731
91.12,-66.365,-4.639
91.15,-64.294,-4.284
91.19,-61.241,-3.769
91.22,-56.889,-3.196
91.25,-51.485,-2.669
91.28,-45.554,-2.154
91.32,-39.307,-1.581
91.35,-32.814,-1.134
91.38,-26.427,-0.756
91.41,-20.531,-0.481
91.45,-15.477,-0.424
91.48,-11.16,-0.344
91.51,-7.195,-0.172
91.54,-3.896,-0.195
91.58,-1.509,-0.309
91.61,0.456,-0.229
91.64,2.281,-0.229
91.67,3.264,-0.401
91.71,3.755,-0.378
91.74,5.615,0.252
91.77,9.476,0.894
91.8,13.968,1.02
91.84,17.828,1.203
91.87,21.759,1.925
91.9,26.883,2.875
91.93,31.972,3.437
91.97,36.288,3.528
92.0,39.307,3.677
92.03,41.623,4.044
92.06,44.395,4.181
92.1,46.677,4.25
92.13,48.853,4.399
92.16,51.169,4.72
92.19,54.292,5.121
92.23,57.907,5.453
92.26,61.662,5.808
92.29,65.768,6.243
92.32,69.91,6.553
92.36,73.665,6.793
92.39,77.385,7.16
92.42,81.035,7.48
92.45,84.474,7.584
92.49,87.352,7.813
92.52,90.3,8.122
92.55,93.459,8.351
92.59,96.442,8.523
92.62,99.214,8.786
92.65,102.232,9.084
92.68,105.742,9.474
92.72,109.532,9.817
92.75,113.112,10.024
92.78,116.586,10.379
92.81,120.412,10.814
92.85,123.991,10.94
92.88,126.939,11.089
92.91,129.922,11.444
92.94,133.046,11.662
92.98,135.854,11.765
93.01,138.591,11.994
93.04,141.223,12.28
93.07,144.347,12.544
93.11,147.365,12.761
93.14,150.067,13.002
93.17,153.05,13.311
93.2,156.419,13.689
93.24,159.683,13.861
93.27,162.491,14.033
93.3,165.193,14.331
93.33,168.071,14.56
93.37,170.738,14.629
93.4,172.914,14.823
93.43,173.335,14.56
93.46,170.598,13.724
93.5,167.159,13.724
93.53,166.141,14.216
93.56,166.106,14.022
93.59,164.772,13.941
93.63,164.351,14.801
93.66,167.404,15.866
93.69,172.984,16.656
93.72,179.512,17.538
93.76,186.882,18.661
93.79,195.129,19.509
93.82,202.71,19.875
93.85,208.887,20.047
93.89,213.625,20.013
93.92,216.783,19.566
93.95,218.187,18.959
93.99,218.924,18.558
94.02,219.345,18.168
94.05,219.029,17.779
94.08,218.819,17.836
94.12,220.222,18.317
94.15,222.539,18.615
94.18,224.539,18.879
94.21,226.926,19.486
94.25,230.4,20.001
94.28,233.945,20.196
94.31,236.507,20.242
94.34,238.402,20.357
94.38,240.402,20.46
94.41,241.982,20.253
94.44,242.508,19.956
94.47,242.894,19.99
94.51,243.806,20.127
94.54,245.0,20.139
94.57,246.053,20.23
94.6,247.562,20.631
94.64,250.018,20.998
94.67,252.37,21.158
94.7,254.44,21.296
94.73,256.581,21.559
94.77,259.213,21.8
94.8,261.67,21.766
94.83,263.214,21.674
94.86,264.478,21.72
94.9,266.022,21.72
94.93,267.039,21.468
94.96,267.32,21.376
94.99,267.987,21.468
95.03,268.97,21.479
95.06,269.952,21.479
95.09,270.795,21.64
95.12,272.128,21.8
95.16,273.497,21.857
95.19,274.655,21.96
95.22,275.954,22.086
95.25,277.393,22.189
95.29,278.937,22.235
95.32,280.411,22.258
95.35,281.779,22.361
95.38,283.289,22.384
95.42,284.447,22.304
95.45,285.219,22.212
95.48,285.851,22.109
95.52,286.237,22.029
95.55,286.272,21.914
95.58,286.447,21.834
95.61,286.693,21.88
95.65,286.693,21.811
95.68,286.588,21.743
95.71,286.517,21.811
95.74,286.588,21.857
95.78,286.552,21.743
95.81,286.131,21.674
95.84,286.166,21.88
95.87,286.868,21.949
95.91,287.079,21.857
95.94,286.974,21.914
95.97,287.149,22.006
96.0,287.605,21.926
96.04,287.535,21.8
96.07,287.325,21.8
96.1,287.605,21.823
96.13,287.991,21.777
96.17,287.886,21.674
96.2,287.43,21.64
96.23,287.079,21.491
96.26,286.272,21.284
96.3,284.903,21.124
96.33,283.429,20.918
96.36,281.955,20.826
96.39,280.551,20.769
96.43,279.147,20.654
96.46,277.428,20.597
96.49,275.919,20.597
96.52,274.48,20.597
96.56,273.076,20.54
96.59,271.707,20.505
96.62,270.654,20.574
96.65,269.672,20.54
96.69,268.513,20.528
96.72,267.601,20.528
96.75,266.653,20.448
96.78,265.32,20.253
96.82,263.776,20.127
96.85,262.337,20.047
96.88,260.898,19.875
96.91,259.178,19.669
96.95,257.318,19.566
96.98,255.669,19.509
97.01,254.089,19.348
97.05,252.194,19.222
97.08,250.545,19.199
97.11,249.211,19.131
97.14,247.597,18.959
97.18,245.737,18.833
97.21,244.228,18.856
97.24,243.069,18.753
97.27,241.455,18.409
97.31,239.034,18.283
97.34,237.173,18.26
97.37,235.805,18.111
97.4,233.945,17.813
97.44,231.769,17.699
97.47,229.944,17.687
97.5,228.4,17.458
97.53,226.294,17.195
97.57,223.732,17.034
97.6,221.696,16.966
97.63,219.907,16.737
97.66,217.661,16.462
97.7,214.993,16.255
97.73,212.852,16.187
97.76,211.273,16.175
97.79,209.554,15.912
97.83,207.378,15.683
97.86,205.447,15.683
97.89,204.184,15.58
97.92,202.675,15.293
97.96,200.534,15.087
97.99,198.569,14.961
98.02,196.779,14.732
98.05,194.638,14.365
98.09,191.795,14.079
98.12,189.128,13.838
98.15,186.356,13.54
98.18,183.618,13.266
98.22,180.881,13.036
98.25,178.143,12.784
98.28,175.125,12.544
98.31,172.353,12.326
98.35,169.685,12.177
98.38,166.597,11.73
98.41,163.474,11.57
98.45,160.912,11.547
98.48,158.595,11.261
98.51,155.682,10.94
98.54,152.594,10.734
98.58,149.646,10.585
98.61,146.944,10.264
98.64,143.68,9.909
98.67,140.1,9.6
98.71,136.591,9.394
98.74,133.397,9.164
98.77,130.449,8.901
98.8,127.396,8.683
98.84,124.483,8.546
98.87,121.886,8.34
98.9,119.254,8.111
98.93,116.656,7.893
98.97,114.2,7.687
99.0,111.568,7.412
99.03,108.549,7.045
99.06,104.97,6.667
99.1,101.039,6.346
99.13,96.898,5.98
99.16,92.511,5.556
99.19,87.703,5.121
99.23,83.105,4.857
99.26,78.894,4.628
99.29,74.753,4.376
99.32,70.927,4.181
99.36,67.628,4.021
99.39,64.47,3.826
99.42,61.382,3.608
99.45,58.398,3.471
99.49,55.696,3.334
99.52,53.099,3.082
99.55,50.151,2.772
99.58,46.887,2.463
99.62,43.448,2.188
99.65,39.868,1.867
99.68,36.113,1.512
99.71,32.147,1.214
99.75,28.181,0.928
99.78,24.251,0.642
99.81,20.25,0.389
99.84,16.284,0.16
99.88,12.634,0.0
99.91,8.914,-0.137
99.94,5.124,-0.344
99.98,0.912,-0.424
100.01,-2.737,-0.344
100.04,-4.457,0.023
100.07,-5.019,0.08
100.11,-6.493,-0.63
100.14,-10.458,-1.317
100.17,-15.302,-1.604
100.2,-19.513,-1.741
100.24,-23.444,-2.406
100.27,-28.146,-3.322
100.3,-33.481,-3.723
100.33,-38.289,-3.62
100.37,-41.412,-3.62
100.4,-43.729,-3.975
100.43,-46.782,-4.296
100.46,-49.484,-4.33
100.5,-51.45,-4.33
100.53,-53.345,-4.628
100.56,-55.942,-5.052
100.59,-59.241,-5.327
100.63,-62.469,-5.602
100.66,-65.698,-6.003
100.69,-69.383,-6.369
100.72,-73.103,-6.724
100.76,-76.999,-7.08
100.79,-80.824,-7.366
100.82,-84.544,-7.687
100.85,-88.054,-7.95
100.89,-91.458,-8.191
100.92,-94.792,-8.466
100.95,-97.986,-8.695
100.98,-101.074,-8.912
101.02,-104.268,-9.222
101.05,-107.532,-9.462
101.08,-110.725,-9.737
101.11,-114.059,-10.092
101.15,-117.78,-10.425
101.18,-121.149,-10.585
101.21,-124.342,-10.86
101.24,-127.676,-11.249
101.28,-131.151,-11.398
101.31,-134.555,-11.73
101.34,-137.749,-11.983
101.37,-141.013,-12.189
101.41,-144.031,-12.452
101.44,-147.119,-12.693
101.47,-150.102,-12.865
101.51,-152.84,-13.048
101.54,-155.472,-13.254
101.57,-158.104,-13.529
101.6,-161.087,-13.815
101.64,-163.895,-13.987
101.67,-166.106,-14.125
101.7,-168.422,-14.388
101.73,-171.089,-14.64
101.77,-173.511,-14.732
101.8,-175.581,-14.949
101.83,-178.249,-15.362
101.86,-181.442,-15.637
101.9,-184.39,-15.809
101.93,-187.163,-16.072
101.96,-190.041,-16.393
101.99,-193.164,-16.645
102.03,-196.077,-16.817
102.06,-198.499,-16.931
102.09,-200.885,-17.103
102.12,-203.271,-17.252
102.16,-205.237,-17.218
102.19,-206.641,-17.252
102.22,-208.115,-17.47
102.25,-209.904,-17.596
102.29,-211.519,-17.642
102.32,-212.923,-17.859
102.35,-214.783,-18.134
102.38,-216.994,-18.317
102.42,-219.099,-18.512
102.45,-221.1,-18.753
102.48,-223.416,-19.005
102.51,-225.908,-19.211
102.55,-228.329,-19.417
102.58,-230.576,-19.555
102.61,-232.646,-19.692
102.64,-234.576,-19.784
102.68,-236.401,-19.864
102.71,-238.191,-19.933
102.74,-239.771,-19.933
102.77,-241.034,-19.978
102.81,-242.052,-20.047
102.84,-243.526,-20.208
102.87,-245.351,-20.379
102.9,-246.86,-20.46
102.94,-248.65,-20.746
102.97,-251.001,-20.929
103.0,-252.931,-20.998
103.04,-254.581,-21.124
103.07,-256.511,-21.261
103.1,-258.441,-21.33
103.13,-260.091,-21.284
103.17,-261.284,-21.33
103.2,-262.688,-21.433
103.23,-264.056,-21.422
103.26,-264.864,-21.319
103.3,-265.636,-21.376
103.33,-266.548,-21.468
103.36,-267.32,-21.433
103.39,-268.233,-21.594
103.43,-269.707,-21.823
103.46,-271.216,-21.8
103.49,-272.234,-21.846
103.52,-273.427,-22.04
103.56,-274.831,-22.098
103.59,-276.164,-22.155
103.62,-277.428,-22.224
103.65,-278.937,-22.304
103.69,-280.516,-22.384
103.72,-281.99,-22.373
103.75,-283.078,-22.327
103.78,-283.815,-22.27
103.82,-284.798,-22.327
103.85,-285.149,-22.018
103.88,-284.798,-21.823
103.91,-285.289,-22.109
103.95,-286.272,-21.96
103.98,-286.166,-21.846
104.01,-285.921,-21.96
104.04,-286.623,-22.132
104.08,-287.57,-22.132
104.11,-287.851,-22.006
104.14,-287.64,-22.006
104.17,-288.026,-22.155
104.21,-288.799,-22.121
104.24,-288.974,-21.995
104.27,-288.939,-21.983
104.3,-289.044,-21.972
104.34,-289.009,-21.857
104.37,-288.623,-21.754
104.4,-288.167,-21.743
104.44,-287.991,-21.754
104.47,-287.956,-21.743
104.5,-287.711,-21.697
104.53,-287.289,-21.662
104.57,-286.623,-21.548
104.6,-285.605,-21.388
104.63,-284.236,-21.216
104.66,-282.903,-21.078
104.7,-281.674,-20.998
104.73,-280.27,-20.964
104.76,-278.937,-20.895
104.79,-277.357,-20.815
104.83,-275.848,-20.792
104.86,-274.445,-20.723
104.89,-272.62,-20.643
104.92,-271.005,-20.654
104.96,-270.023,-20.654
104.99,-268.724,-20.574
105.02,-267.285,-20.586
105.05,-266.267,-20.631
105.09,-265.25,-20.505
105.12,-263.776,-20.402
105.15,-262.407,-20.379
105.18,-261.319,-20.276
105.22,-259.81,-20.104
105.25,-258.09,-19.99
105.28,-256.546,-19.944
105.31,-255.318,-19.864
105.35,-253.563,-19.635
105.38,-251.492,-19.429
105.41,-249.527,-19.36
105.44,-247.983,-19.303
105.48,-246.368,-19.119
105.51,-244.263,-19.028
105.54,-242.754,-19.073
105.57,-241.525,-19.005
105.61,-240.051,-18.73
105.64,-237.875,-18.615
105.67,-236.296,-18.638
105.7,-235.103,-18.386
105.74,-232.962,-18.077
105.77,-230.576,-17.916
105.8,-228.365,-17.836
105.83,-226.399,-17.699
105.87,-224.294,-17.458
105.9,-221.977,-17.275
105.93,-219.977,-17.183
105.97,-218.082,-17.0
106.0,-215.941,-16.805
106.03,-213.87,-16.782
106.06,-212.572,-16.759
106.1,-210.887,-16.45
106.13,-208.606,-16.255
106.16,-206.535,-16.187
106.19,-204.781,-15.946
106.23,-202.675,-15.625
106.26,-200.499,-15.522
106.29,-198.218,-15.305
106.32,-196.498,-15.121
106.36,-194.568,-15.007
106.39,-192.357,-14.675
106.42,-189.514,-14.411
106.45,-187.163,-14.274
106.49,-185.303,-14.148
106.52,-183.092,-13.758
106.55,-180.495,-13.54
106.58,-177.827,-13.369
106.62,-175.336,-13.162
106.65,-172.879,-12.876
106.68,-170.071,-12.624
106.71,-166.492,-12.223
106.75,-163.263,-11.96
106.78,-160.385,-11.879
106.81,-157.578,-11.513
106.84,-154.489,-11.249
106.88,-151.576,-11.123
106.91,-148.874,-10.929
106.94,-145.996,-10.654
106.97,-142.767,-10.379
107.01,-139.539,-10.115
107.04,-136.45,-9.921
107.07,-133.432,-9.611
107.1,-130.309,-9.348
107.14,-127.396,-9.199
107.17,-124.693,-8.958
107.2,-121.886,-8.683
107.23,-119.183,-8.557
107.27,-116.727,-8.397
107.3,-114.2,-8.065
107.33,-111.357,-7.767
107.36,-108.128,-7.469
107.4,-104.689,-7.114
107.43,-100.969,-6.724
107.46,-96.722,-6.289
107.5,-91.879,-5.865
107.53,-87.387,-5.636
107.56,-83.456,-5.464
107.59,-79.842,-5.144
107.63,-76.192,-4.949
107.66,-72.998,-4.869
107.69,-69.875,-4.617
107.72,-66.821,-4.342
107.76,-63.768,-4.204
107.79,-60.574,-3.929
107.82,-56.995,-3.505
107.85,-52.783,-3.15
107.89,-48.396,-2.875
107.92,-44.22,-2.532
107.95,-39.693,-2.131
107.98,-34.99,-1.764
108.02,-30.568,-1.558
108.05,-26.637,-1.398
108.08,-22.882,-1.111
108.11,-19.302,-0.905
108.15,-16.214,-0.882
108.18,-13.757,-0.768
108.21,-11.09,-0.47
108.24,-8.282,-0.332
108.28,-5.791,-0.218
108.31,-2.878,0.069
108.34,0.667,0.367
108.37,4.001,0.309
108.41,5.65,-0.069
108.44,7.054,0.241
108.47,10.213,1.134
108.5,15.407,1.695
108.54,20.776,1.925
108.57,25.304,2.383
108.6,29.831,3.104
108.63,34.744,3.574
108.67,39.236,3.7
108.7,42.535,3.7
108.73,44.746,3.723
108.76,46.747,3.883
108.8,48.958,4.101
108.83,51.274,4.204
108.86,53.59,4.399
108.9,56.258,4.811
108.93,59.557,5.189
108.96,63.136,5.499
108.99,66.891,5.911
109.03,70.857,6.266
109.06,74.577,6.553
109.09,78.227,6.828
109.12,81.631,7.137
109.16,85.106,7.412
109.19,88.44,7.629
109.22,91.388,7.813
109.25,94.125,8.065
109.29,97.284,8.408
109.32,100.548,8.66
109.35,103.777,8.867
109.38,106.935,9.233
109.42,110.445,9.611
109.45,114.235,9.898
109.48,117.955,10.173
109.51,121.219,10.379
109.55,124.097,10.608
109.58,127.501,11.043
109.61,131.081,11.226
109.64,134.309,11.398
109.68,137.187,11.673
109.71,140.416,11.96
109.74,143.855,12.257
109.77,147.435,12.532
109.81,150.734,12.761
109.84,153.577,12.899
109.87,156.49,13.243
109.9,159.718,13.495
109.94,162.456,13.506
109.97,164.456,13.621
110.0,166.141,13.792
110.03,167.369,13.792
110.07,168.492,13.861
110.1,169.72,14.102
110.13,171.265,14.331
110.16,173.335,14.606
110.2,175.897,15.053
110.23,179.091,15.488
110.26,182.635,15.877
110.29,186.391,16.313
110.33,190.602,16.748
110.36,194.814,17.057
110.39,198.709,17.298
110.43,202.008,17.367
110.46,204.71,17.493
110.49,207.272,17.561
110.52,209.483,17.516
110.56,210.922,17.401
110.59,212.08,17.424
110.62,213.309,17.538
110.65,214.818,17.619
110.69,216.257,17.79
110.72,217.696,17.985
110.75,219.38,18.214
110.78,221.451,18.489
110.82,223.486,18.65
110.85,225.171,18.776
110.88,227.101,19.096
110.91,229.488,19.337
110.95,231.523,19.36
110.98,233.067,19.532
111.01,234.892,19.738
111.04,236.998,19.852
111.08,238.437,19.83
111.11,239.7,19.944
111.14,241.701,20.265
111.17,244.017,20.334
111.21,245.631,20.379
111.24,247.421,20.631
111.27,249.808,20.895
111.3,252.159,20.906
111.34,253.738,20.975
111.37,255.458,21.158
111.4,257.423,21.216
111.43,258.932,21.158
111.47,260.126,21.17
111.5,261.284,21.204
111.53,262.477,21.239
111.56,263.53,21.227
111.6,264.513,21.273
111.63,265.565,21.319
111.66,266.724,21.422
111.69,267.882,21.536
111.73,269.18,21.674
111.76,270.619,21.788
111.79,272.128,21.834
111.82,273.392,21.903
111.86,274.69,21.972
111.89,275.954,21.995
111.92,277.112,22.075
111.96,278.41,22.109
111.99,279.779,22.178
112.02,281.218,22.224
112.05,282.446,22.201
112.09,283.359,22.178
112.12,283.955,22.052
112.15,284.412,22.04
112.18,285.043,21.995
112.22,285.394,21.892
112.25,285.815,21.972
112.28,286.588,22.063
112.31,287.184,21.995
112.35,287.325,22.006
112.38,287.816,22.098
112.41,288.974,22.281
112.44,289.36,22.018
112.48,288.974,21.926
112.51,289.676,22.315
112.54,291.08,22.224
112.57,291.01,21.88
112.61,290.273,21.937
112.64,290.588,22.04
112.67,290.729,21.8
112.7,289.816,21.582
112.74,289.009,21.582
112.77,288.623,21.594
112.8,288.342,21.525
112.83,287.57,21.422
112.87,286.552,21.422
112.9,285.78,21.376
112.93,284.798,21.284
112.96,283.71,21.158
113.0,282.201,21.055
113.03,281.113,21.055
113.06,280.165,21.044
113.09,278.937,20.998
113.13,277.638,20.952
113.16,276.305,20.929
113.19,274.971,20.861
113.22,273.392,20.757
113.26,271.742,20.654
113.29,270.338,20.643
113.32,269.075,20.597
113.36,267.496,20.517
113.39,266.127,20.54
113.42,264.899,20.505
113.45,263.565,20.425
113.49,262.091,20.322
113.52,260.547,20.208
113.55,259.038,20.127
113.58,257.529,19.99
113.62,255.809,19.898
113.65,254.124,19.818
113.68,252.335,19.669
113.71,250.615,19.532
113.75,248.79,19.406
113.78,246.93,19.314
113.81,245.105,19.154
113.84,243.35,19.096
113.88,241.876,19.051
113.91,240.262,18.947
113.94,238.647,18.879
113.97,237.138,18.753
114.01,235.699,18.661
114.04,234.155,18.501
114.07,232.19,18.283
114.1,230.049,18.111
114.14,228.049,17.985
114.17,226.259,17.836
114.2,224.153,17.573
114.23,221.837,17.367
114.27,219.696,17.286
114.3,217.976,17.241
114.33,216.397,17.069
114.36,214.677,16.966
114.4,213.239,16.885
114.43,211.8,16.748
114.46,210.185,16.53
114.49,208.29,16.29
114.53,206.219,16.106
114.56,204.184,15.889
114.59,202.078,15.625
114.62,199.973,15.385
114.66,197.656,15.213
114.69,195.551,14.995
114.72,193.164,14.709
114.75,190.742,14.503
114.79,188.461,14.285
114.82,185.759,14.033
114.85,183.127,13.792
114.89,180.495,13.586
114.92,177.757,13.334
114.95,174.844,13.048
114.98,172.037,12.853
115.02,169.229,12.624
115.05,166.457,12.395
115.08,163.614,12.177
115.11,161.263,12.017
115.15,158.736,11.822
115.18,156.033,11.513
115.21,153.331,11.387
115.24,151.085,11.192
115.28,148.453,10.837
115.31,144.908,10.379
115.34,141.188,10.15
115.37,137.924,9.943
115.41,134.836,9.623
115.44,131.432,9.302
115.47,127.922,9.061
115.5,124.518,8.878
115.54,121.605,8.66
115.57,118.622,8.454
115.6,115.709,8.214
115.63,112.831,8.03
115.67,110.164,7.847
115.7,107.356,7.503
115.73,104.057,7.16
115.76,100.337,6.839
115.8,96.407,6.507
115.83,92.23,6.106
115.86,87.738,5.682
115.89,83.141,5.407
115.93,78.859,5.155
115.96,74.823,4.869
115.99,70.892,4.628
116.02,67.137,4.445
116.06,63.733,4.284
116.09,60.609,4.078
116.12,57.661,3.861
116.15,54.889,3.723
116.19,52.081,3.505
116.22,49.239,3.242
116.25,46.291,3.001
116.28,43.413,2.784
116.32,40.43,2.497
116.35,37.131,2.154
116.38,33.586,1.81
116.42,29.866,1.535
116.45,26.216,1.272
116.48,22.356,0.905
116.51,17.934,0.515
116.55,13.441,0.229
116.58,8.774,-0.023
116.61,4.176,-0.252
116.64,-0.632,-0.47
