Trigger_Date,2023/06/15
Trigger_Time,T 15:39:52.657 PDT
Samples_Per_Cycle,512
Microseconds_Per_Sample,32.557
Time (ms),Voltage (V),Current (A)
-16.67,4.317,0.458
-16.64,7.335,0.344
-16.6,9.335,0.401
-16.57,11.02,0.71
-16.54,13.792,1.329
-16.51,17.723,1.993
-16.47,22.812,2.577
-16.44,27.374,2.967
-16.41,31.129,2.933
-16.38,34.358,3.288
-16.34,37.411,3.654
-16.31,40.395,3.528
-16.28,42.781,3.757
-16.25,45.413,4.124
-16.21,48.045,4.147
-16.18,50.432,4.387
-16.15,53.275,4.869
-16.12,56.468,5.052
-16.08,59.767,5.407
-16.05,63.242,5.831
-16.02,67.032,6.094
-15.99,70.787,6.461
-15.95,74.472,6.782
-15.92,78.333,7.08
-15.89,82.053,7.423
-15.86,85.738,7.687
-15.82,89.212,7.939
-15.79,92.546,8.179
-15.76,95.775,8.408
-15.73,98.758,8.615
-15.69,101.741,8.855
-15.66,104.9,9.153
-15.63,108.128,9.382
-15.59,111.427,9.714
-15.56,114.902,10.047
-15.53,118.446,10.321
-15.5,121.57,10.528
-15.46,124.939,10.86
-15.43,128.273,11.169
-15.4,131.432,11.295
-15.37,134.695,11.696
-15.33,138.1,12.005
-15.3,141.644,12.166
-15.27,145.575,12.693
-15.24,149.576,12.933
-15.2,153.401,13.105
-15.17,157.262,13.586
-15.14,161.052,13.724
-15.11,164.491,13.827
-15.07,167.755,14.193
-15.04,170.493,14.113
-15.01,172.598,14.216
-14.98,174.739,14.434
-14.94,176.213,14.274
-14.91,177.722,14.468
-14.88,179.652,14.812
-14.85,181.512,14.812
-14.81,183.759,15.202
-14.78,186.391,15.625
-14.75,188.882,15.671
-14.72,191.515,16.129
-14.68,194.392,16.473
-14.65,196.919,16.404
-14.62,199.622,16.885
-14.59,202.394,17.115
-14.55,204.5,16.966
-14.52,206.711,17.355
-14.49,208.711,17.424
-14.46,210.01,17.206
-14.42,211.554,17.607
-14.39,213.063,17.607
-14.36,214.151,17.527
-14.33,215.871,18.123
-14.29,217.731,18.157
-14.26,219.345,18.123
-14.23,221.486,18.81
-14.19,223.486,18.741
-14.16,224.89,18.695
-14.13,227.031,19.348
-14.1,229.172,19.257
-14.06,230.751,19.245
-14.03,233.067,19.91
-14.0,235.173,19.692
-13.97,236.647,19.704
-13.93,238.858,20.311
-13.9,240.472,19.978
-13.87,241.631,20.036
-13.84,243.736,20.62
-13.8,245.316,20.196
-13.77,246.825,20.483
-13.74,249.246,21.021
-13.71,250.826,20.574
-13.67,252.405,20.975
-13.64,254.51,21.239
-13.61,255.879,20.849
-13.58,257.494,21.307
-13.54,259.669,21.433
-13.51,260.968,21.113
-13.48,262.512,21.548
-13.45,264.056,21.445
-13.41,264.653,21.17
-13.38,265.671,21.628
-13.35,266.794,21.445
-13.32,267.285,21.25
-13.28,268.443,21.731
-13.25,269.672,21.514
-13.22,270.444,21.617
-13.19,271.918,22.04
-13.15,273.181,21.754
-13.12,274.164,21.926
-13.09,275.778,22.224
-13.06,277.112,22.006
-13.02,278.235,22.144
-12.99,279.884,22.384
-12.96,281.042,22.121
-12.93,281.815,22.155
-12.89,282.867,22.27
-12.86,282.973,21.857
-12.83,280.656,21.204
-12.8,276.199,20.563
-12.76,270.058,19.6
-12.73,263.846,19.177
-12.7,258.582,19.165
-12.66,254.124,19.073
-12.63,251.036,19.772
-12.6,249.948,20.586
-12.57,250.615,21.353
-12.53,253.773,22.716
-12.5,258.862,23.69
-12.47,264.723,24.412
-12.44,271.532,25.454
-12.4,278.305,25.672
-12.37,283.359,25.408
-12.34,287.184,25.214
-12.31,289.641,24.377
-12.27,291.29,23.644
-12.24,292.834,23.197
-12.21,293.501,22.338
-12.18,293.185,21.937
-12.14,292.519,21.662
-12.11,290.588,20.883
-12.08,288.132,20.689
-12.05,285.851,20.54
-12.01,282.832,20.036
-11.98,280.165,20.208
-11.95,278.13,20.253
-11.92,275.708,20.047
-11.88,273.813,20.437
-11.85,272.304,20.494
-11.82,270.654,20.425
-11.79,269.531,20.7
-11.75,268.584,20.735
-11.72,267.496,20.666
-11.69,266.934,20.861
-11.66,266.373,20.78
-11.62,265.32,20.689
-11.59,264.688,20.838
-11.56,263.67,20.46
-11.53,262.161,20.322
-11.49,261.249,20.425
-11.46,259.985,20.013
-11.43,258.055,19.807
-11.4,256.862,20.013
-11.36,255.177,19.589
-11.33,252.931,19.314
-11.3,251.282,19.532
-11.26,249.176,19.051
-11.23,246.825,18.925
-11.2,245.386,19.28
-11.17,243.596,18.741
-11.13,241.701,18.787
-11.1,240.823,19.165
-11.07,239.244,18.501
-11.04,237.384,18.592
-11.0,236.191,18.787
-10.97,234.261,18.02
-10.94,232.225,18.191
-10.91,230.927,18.249
-10.87,228.751,17.516
-10.84,226.75,17.71
-10.81,225.136,17.596
-10.78,222.469,16.954
-10.74,220.222,17.172
-10.71,218.257,16.943
-10.68,215.73,16.416
-10.65,213.589,16.691
-10.61,211.659,16.381
-10.58,209.273,15.946
-10.55,207.378,16.301
-10.52,205.553,15.912
-10.48,203.131,15.488
-10.45,201.236,15.774
-10.42,199.481,15.373
-10.39,197.2,14.995
-10.35,195.445,15.305
-10.32,193.726,14.835
-10.29,191.62,14.503
-10.26,189.725,14.732
-10.22,187.619,14.216
-10.19,184.917,13.838
-10.16,182.565,13.873
-10.13,179.933,13.426
-10.09,177.126,13.059
-10.06,174.493,13.048
-10.03,171.616,12.578
-10.0,168.492,12.315
-9.96,165.614,12.257
-9.93,162.456,11.788
-9.9,159.508,11.616
-9.86,156.735,11.547
-9.83,154.103,11.226
-9.8,151.717,11.1
-9.77,149.4,10.997
-9.73,146.838,10.631
-9.7,144.066,10.425
-9.67,141.153,10.207
-9.64,137.819,9.703
-9.6,134.309,9.52
-9.57,130.94,9.279
-9.54,127.22,8.763
-9.51,123.64,8.592
-9.47,120.306,8.454
-9.44,116.797,7.973
-9.41,113.603,7.927
-9.38,110.866,7.836
-9.34,108.023,7.423
-9.31,105.04,7.297
-9.28,102.022,7.091
-9.25,99.004,6.724
-9.21,95.494,6.381
-9.18,91.669,6.117
-9.15,87.843,5.785
-9.12,83.772,5.338
-9.08,79.42,5.052
-9.05,75.104,4.766
-9.02,71.033,4.502
-8.99,66.962,4.181
-8.95,63.171,3.964
-8.92,59.837,3.861
-8.89,56.819,3.643
-8.86,53.941,3.46
-8.82,51.169,3.322
-8.79,48.361,3.047
-8.76,45.238,2.761
-8.73,41.798,2.474
-8.69,38.219,2.096
-8.66,34.253,1.764
-8.63,30.252,1.455
-8.6,26.251,1.146
-8.56,22.426,0.905
-8.53,18.846,0.722
-8.5,15.442,0.504
-8.46,12.038,0.309
-8.43,8.633,0.115
-8.4,4.984,-0.115
-8.37,1.053,-0.263
-8.33,-2.808,-0.321
-8.3,-5.966,-0.321
-8.27,-8.107,-0.252
-8.24,-9.862,-0.527
-8.2,-12.529,-1.134
-8.17,-16.635,-1.776
-8.14,-21.97,-2.429
-8.11,-27.269,-2.978
-8.07,-31.586,-3.047
-8.04,-35.622,-3.54
-8.01,-39.798,-3.654
-7.98,-43.062,-3.551
-7.94,-45.869,-3.975
-7.91,-48.151,-3.952
-7.88,-49.905,-3.883
-7.85,-51.66,-4.307
-7.81,-53.871,-4.559
-7.78,-56.363,-4.743
-7.75,-59.065,-5.144
-7.72,-62.329,-5.499
-7.68,-65.663,-5.877
-7.65,-68.857,-6.129
-7.62,-72.542,-6.633
-7.59,-76.402,-6.999
-7.55,-80.368,-7.183
-7.52,-84.334,-7.698
-7.49,-88.51,-8.03
-7.46,-92.546,-8.214
-7.42,-96.126,-8.477
-7.39,-99.425,-8.741
-7.36,-102.689,-8.993
-7.33,-105.847,-9.142
-7.29,-108.795,-9.325
-7.26,-111.884,-9.611
-7.23,-115.288,-10.012
-7.2,-118.236,-10.012
-7.16,-121.008,-10.253
-7.13,-124.237,-10.848
-7.1,-126.904,-10.734
-7.06,-129.642,-11.043
-7.03,-132.73,-11.582
-7.0,-135.608,-11.501
-6.97,-138.521,-11.914
-6.93,-141.679,-12.315
-6.9,-144.522,-12.269
-6.87,-147.435,-12.739
-6.84,-150.523,-13.059
-6.8,-153.506,-13.082
-6.77,-156.49,-13.506
-6.74,-159.508,-13.735
-6.71,-162.315,-13.861
-6.67,-165.158,-14.262
-6.64,-167.86,-14.331
-6.61,-170.422,-14.491
-6.58,-173.09,-14.846
-6.54,-175.546,-14.915
-6.51,-178.214,-15.179
-6.48,-181.091,-15.545
-6.45,-183.829,-15.648
-6.41,-186.777,-16.003
-6.38,-189.83,-16.267
-6.35,-192.357,-16.278
-6.32,-195.024,-16.622
-6.28,-197.797,-16.794
-6.25,-199.973,-16.737
-6.22,-202.219,-17.126
-6.19,-204.57,-17.206
-6.15,-206.184,-17.046
-6.12,-208.115,-17.47
-6.09,-209.869,-17.493
-6.06,-211.168,-17.367
-6.02,-212.782,-17.894
-5.99,-214.607,-17.974
-5.96,-216.151,-17.905
-5.93,-218.327,-18.535
-5.89,-220.433,-18.512
-5.86,-221.977,-18.524
-5.83,-224.188,-19.131
-5.8,-226.048,-19.028
-5.76,-227.522,-19.062
-5.73,-230.014,-19.658
-5.7,-232.12,-19.486
-5.66,-233.875,-19.612
-5.63,-236.401,-20.185
-5.6,-238.261,-19.852
-5.57,-239.49,-19.887
-5.53,-241.666,-20.448
-5.5,-243.385,-20.07
-5.47,-244.614,-20.162
-5.44,-246.754,-20.769
-5.4,-248.404,-20.414
-5.37,-249.597,-20.483
-5.34,-251.527,-21.009
-5.31,-252.791,-20.574
-5.27,-253.598,-20.769
-5.24,-255.353,-21.239
-5.21,-256.581,-20.746
-5.18,-257.88,-21.113
-5.14,-259.985,-21.525
-5.11,-261.179,-21.055
-5.08,-262.477,-21.514
-5.05,-264.127,-21.582
-5.01,-264.758,-21.181
-4.98,-265.811,-21.72
-4.95,-267.355,-21.628
-4.92,-268.233,-21.433
-4.88,-269.672,-21.96
-4.85,-271.181,-21.846
-4.82,-271.918,-21.72
-4.79,-273.216,-22.063
-4.75,-274.339,-21.96
-4.72,-275.041,-21.869
-4.69,-276.305,-22.247
-4.66,-277.744,-22.178
-4.62,-278.551,-21.949
-4.59,-279.814,-22.327
-4.56,-280.867,-22.121
-4.53,-281.218,-21.949
-4.49,-281.92,-22.224
-4.46,-282.411,-21.937
-4.43,-282.341,-21.834
-4.4,-282.938,-22.166
-4.36,-283.429,-21.857
-4.33,-283.324,-21.834
-4.3,-284.166,-22.224
-4.27,-284.692,-21.972
-4.23,-284.798,-22.018
-4.2,-285.605,-22.304
-4.17,-286.026,-22.006
-4.13,-286.342,-22.075
-4.1,-287.009,-22.224
-4.07,-287.219,-21.914
-4.04,-287.219,-22.04
-4.0,-287.57,-22.029
-3.97,-287.325,-21.708
-3.94,-286.974,-21.766
-3.91,-286.517,-21.731
-3.87,-286.061,-21.514
-3.84,-285.429,-21.525
-3.81,-284.692,-21.41
-3.78,-283.675,-21.307
-3.74,-282.587,-21.261
-3.71,-281.253,-21.021
-3.68,-279.744,-20.998
-3.65,-278.445,-20.998
-3.61,-277.042,-20.815
-3.58,-275.708,-20.941
-3.55,-274.55,-20.849
-3.52,-273.076,-20.746
-3.48,-271.848,-20.941
-3.45,-270.514,-20.735
-3.42,-268.9,-20.666
-3.39,-267.847,-20.861
-3.35,-266.583,-20.54
-3.32,-265.285,-20.586
-3.29,-264.478,-20.769
-3.26,-263.214,-20.379
-3.22,-261.705,-20.391
-3.19,-260.757,-20.528
-3.16,-259.213,-20.07
-3.13,-257.423,-20.013
-3.09,-256.406,-20.185
-3.06,-254.791,-19.715
-3.03,-253.001,-19.715
-3.0,-251.913,-19.887
-2.96,-250.018,-19.326
-2.93,-247.983,-19.383
-2.9,-246.895,-19.6
-2.87,-245.0,-18.913
-2.83,-242.929,-19.085
-2.8,-241.806,-19.234
-2.77,-239.665,-18.512
-2.73,-237.7,-18.73
-2.7,-236.507,-18.856
-2.67,-234.401,-18.146
-2.64,-232.576,-18.466
-2.6,-231.383,-18.489
-2.57,-229.242,-17.745
-2.54,-227.487,-18.123
-2.51,-226.224,-17.997
-2.47,-223.697,-17.172
-2.44,-221.556,-17.584
-2.41,-219.696,-17.355
-2.38,-216.924,-16.576
-2.34,-214.677,-17.034
-2.31,-212.923,-16.759
-2.28,-210.291,-16.118
-2.25,-208.501,-16.633
-2.21,-206.781,-16.278
-2.18,-204.184,-15.751
-2.15,-202.359,-16.187
-2.12,-200.639,-15.728
-2.08,-198.183,-15.282
-2.05,-196.603,-15.671
-2.02,-194.989,-15.224
-1.99,-192.638,-14.778
-1.95,-190.672,-15.075
-1.92,-188.567,-14.514
-1.89,-185.619,-14.067
-1.86,-183.372,-14.319
-1.82,-180.951,-13.689
-1.79,-177.827,-13.311
-1.76,-175.371,-13.563
-1.73,-172.668,-13.014
-1.69,-169.545,-12.635
-1.66,-166.948,-12.819
-1.63,-164.105,-12.303
-1.6,-161.052,-11.983
-1.56,-158.56,-12.143
-1.53,-155.823,-11.639
-1.5,-152.91,-11.387
-1.47,-150.383,-11.49
-1.43,-147.47,-10.883
-1.4,-144.592,-10.745
-1.37,-141.89,-10.745
-1.33,-138.802,-10.104
-1.3,-135.468,-9.921
-1.27,-132.555,-9.898
-1.24,-129.185,-9.302
-1.2,-125.851,-9.119
-1.17,-123.219,-9.21
-1.14,-119.955,-8.546
-1.11,-116.586,-8.328
-1.07,-114.024,-8.546
-1.04,-111.182,-7.904
-1.01,-107.918,-7.618
-0.98,-104.865,-7.687
-0.94,-101.811,-7.183
-0.91,-98.337,-6.805
-0.88,-94.476,-6.553
-0.85,-90.37,-6.163
-0.81,-86.089,-5.842
-0.78,-81.737,-5.464
-0.75,-77.245,-5.155
-0.72,-73.244,-4.96
-0.68,-69.664,-4.811
-0.65,-66.014,-4.456
-0.62,-62.61,-4.307
-0.59,-59.662,-4.284
-0.55,-56.889,-3.952
-0.52,-53.976,-3.677
-0.49,-50.958,-3.563
-0.46,-47.87,-3.23
-0.42,-44.606,-2.887
-0.39,-41.026,-2.658
-0.36,-37.447,-2.325
-0.33,-33.691,-1.97
-0.29,-29.761,-1.695
-0.26,-25.83,-1.363
-0.23,-21.935,-1.111
-0.2,-18.214,-0.871
-0.16,-14.529,-0.584
-0.13,-10.809,-0.355
-0.1,-7.054,-0.149
-0.07,-3.439,0.069
-0.03,0.07,0.241
0.0,3.474,0.275
0.03,6.177,0.183
0.07,7.896,0.206
0.1,9.441,0.493
0.13,11.757,0.985
0.16,15.302,1.604
0.2,19.864,2.165
0.23,24.672,2.749
0.26,28.743,2.967
0.29,32.288,3.15
0.33,35.762,3.861
0.36,39.693,4.021
0.39,43.307,3.78
0.42,46.677,4.193
0.46,50.256,4.41
0.49,53.275,4.319
0.52,56.082,4.674
0.55,59.03,4.949
0.59,62.505,5.201
0.62,65.874,5.522
0.65,69.032,5.636
0.68,72.612,6.14
0.72,75.981,6.415
0.75,79.07,6.438
0.78,82.018,6.919
0.81,85.281,7.16
0.85,88.58,7.366
0.88,91.739,7.698
0.91,95.143,7.996
0.94,98.618,8.351
0.98,101.917,8.58
1.01,105.04,8.821
1.04,108.374,9.199
1.07,112.305,9.588
1.11,115.428,9.588
1.14,118.517,9.909
1.17,122.412,10.573
1.2,125.465,10.299
1.24,128.133,10.528
1.27,131.502,11.318
1.3,134.344,10.963
1.33,137.292,11.41
1.37,140.942,12.131
1.4,144.347,11.822
1.43,147.821,12.429
1.47,151.822,12.945
1.5,155.437,12.773
1.53,158.911,13.334
1.56,162.421,13.621
1.6,165.088,13.392
1.63,167.545,13.85
1.66,169.72,13.884
1.69,171.019,13.609
1.73,172.458,14.079
1.76,174.002,14.125
1.79,175.16,13.941
1.82,177.02,14.686
1.86,179.301,14.823
1.89,181.372,14.801
1.92,184.18,15.66
1.95,187.338,15.843
1.99,190.005,15.843
2.02,193.129,16.611
2.05,196.182,16.611
2.08,198.428,16.542
2.12,201.096,17.206
2.15,203.482,17.023
2.18,205.237,16.977
2.21,207.483,17.516
2.25,209.273,17.275
2.28,210.571,17.321
2.31,212.466,17.871
2.34,214.151,17.676
2.38,215.555,17.848
2.41,217.871,18.386
2.44,219.907,18.249
2.47,221.767,18.524
2.51,224.294,19.051
2.54,226.224,18.787
2.57,227.873,19.096
2.6,230.295,19.52
2.64,232.014,19.222
2.67,233.453,19.474
2.7,235.629,19.887
2.73,237.173,19.555
2.77,238.507,19.795
2.8,240.543,20.196
2.83,242.122,19.852
2.87,243.42,20.162
2.9,245.351,20.528
2.93,246.93,20.242
2.96,248.334,20.54
3.0,250.404,20.849
3.03,252.054,20.666
3.06,253.563,20.975
3.09,255.563,21.193
3.13,257.143,20.998
3.16,258.652,21.204
3.19,260.512,21.422
3.22,262.091,21.296
3.26,263.144,21.353
3.29,264.548,21.479
3.32,265.706,21.388
3.35,266.618,21.433
3.39,267.987,21.571
3.42,269.18,21.536
3.45,270.023,21.617
3.48,271.321,21.777
3.52,272.479,21.731
3.55,273.322,21.743
3.58,274.585,21.972
3.61,275.848,21.926
3.65,276.761,21.903
3.68,278.165,22.189
3.71,279.323,22.075
3.74,279.814,21.914
3.78,280.481,22.144
3.81,280.727,21.834
3.84,279.884,21.479
3.87,279.849,21.788
3.91,279.884,21.582
3.94,279.323,21.468
3.97,280.095,22.029
4.0,280.762,21.903
4.04,280.692,21.811
4.07,281.85,22.499
4.1,283.043,22.235
4.13,283.499,22.086
4.17,285.57,22.9
4.2,287.395,22.59
4.23,288.272,22.441
4.27,290.378,23.094
4.3,291.606,22.453
4.33,291.782,22.224
4.36,292.975,22.613
4.4,293.01,21.811
4.43,291.676,21.491
4.46,291.747,22.018
4.49,290.588,21.158
4.53,288.202,20.826
4.56,287.395,21.456
4.59,285.429,20.54
4.62,282.446,20.448
4.66,281.113,21.055
4.69,278.656,20.082
4.72,276.059,20.471
4.75,275.287,21.113
4.79,273.357,20.196
4.82,271.532,20.872
4.85,271.005,21.227
4.88,269.005,20.334
4.92,267.461,20.975
4.95,267.215,21.124
4.98,265.425,20.276
5.01,264.162,20.987
5.05,264.197,21.044
5.08,262.267,20.208
5.11,260.898,20.883
5.14,260.547,20.735
5.18,258.195,19.83
5.21,256.792,20.46
5.24,256.3,20.414
5.27,253.879,19.463
5.31,252.194,20.173
5.34,251.387,20.07
5.37,248.685,19.028
5.4,246.719,19.772
5.44,245.772,19.646
5.47,243.034,18.684
5.5,241.139,19.406
5.53,240.157,19.28
5.57,237.56,18.478
5.6,235.84,19.199
5.63,234.787,18.936
5.66,232.401,18.146
5.7,230.997,18.959
5.73,230.119,18.638
5.76,228.154,17.905
5.8,226.926,18.638
5.83,225.943,18.26
5.86,223.767,17.584
5.89,222.153,18.123
5.93,220.609,17.596
5.96,218.117,17.046
5.99,216.327,17.481
6.02,214.748,17.023
6.06,212.502,16.611
6.09,210.817,16.943
6.12,209.132,16.519
6.15,206.746,16.129
6.19,204.745,16.301
6.22,202.71,15.935
6.25,200.183,15.511
6.28,198.007,15.614
6.32,195.937,15.293
6.35,193.234,14.881
6.38,190.742,14.961
6.41,188.216,14.617
6.45,185.233,14.159
6.48,182.6,14.193
6.51,180.074,13.953
6.54,177.371,13.552
6.58,174.774,13.552
6.61,172.212,13.334
6.64,169.229,12.956
6.67,166.386,12.853
6.71,163.579,12.578
6.74,160.561,12.28
6.77,157.613,12.143
6.8,154.735,11.822
6.84,151.717,11.57
6.87,148.979,11.456
6.9,146.417,11.249
6.93,143.575,10.906
6.97,140.732,10.745
7.0,137.784,10.528
7.03,134.625,10.15
7.06,131.747,10.001
7.1,129.08,9.863
7.13,126.027,9.428
7.16,123.044,9.245
7.2,120.622,9.256
7.23,117.499,8.672
7.26,114.551,8.511
7.29,112.164,8.649
7.33,109.041,7.847
7.36,105.531,7.595
7.39,102.022,7.595
7.42,98.512,6.942
7.46,94.617,6.701
7.49,90.475,6.427
7.52,86.334,6.003
7.55,82.193,5.751
7.59,78.122,5.476
7.62,73.524,5.052
7.65,69.559,4.926
7.68,66.33,4.926
7.72,62.54,4.319
7.75,59.171,4.319
7.78,56.187,4.319
7.81,53.275,3.769
7.85,50.221,3.792
7.88,47.203,3.574
7.91,44.325,3.219
7.94,41.342,3.047
7.98,38.078,2.704
8.01,34.569,2.36
8.04,30.884,2.039
8.07,26.918,1.684
8.11,22.952,1.42
8.14,19.092,1.157
8.17,15.337,0.871
8.2,11.581,0.653
8.24,7.756,0.435
8.27,3.966,0.195
8.3,0.07,-0.023
8.33,-3.65,-0.023
8.37,-6.247,-0.046
8.4,-8.002,-0.103
8.43,-9.476,-0.332
8.46,-11.792,-0.905
8.5,-15.442,-1.524
8.53,-20.215,-2.051
8.56,-25.128,-2.715
8.6,-29.164,-2.933
8.63,-32.674,-3.322
8.66,-36.569,-3.677
8.69,-40.254,-3.563
8.73,-43.307,-3.941
8.76,-46.817,-4.273
8.79,-49.8,-4.33
8.82,-52.432,-4.571
8.86,-55.17,-4.869
8.89,-57.802,-4.995
8.92,-61.417,-5.556
8.95,-64.716,-5.785
8.99,-68.015,-5.854
9.02,-71.84,-6.644
9.05,-75.49,-6.724
9.08,-78.719,-6.77
9.12,-81.877,-7.412
9.15,-85.562,-7.584
9.18,-89.001,-7.79
9.21,-92.125,-8.088
9.25,-95.705,-8.477
9.28,-99.179,-8.695
9.31,-102.373,-8.855
9.34,-105.251,-9.142
9.38,-108.304,-9.405
9.41,-111.673,-9.726
9.44,-114.445,-9.772
9.47,-117.464,-10.161
9.51,-121.008,-10.745
9.54,-123.851,-10.505
9.57,-126.834,-10.952
9.6,-130.238,-11.57
9.64,-133.537,-11.387
9.67,-136.766,-11.845
9.7,-140.416,-12.406
9.73,-143.75,-12.269
9.77,-146.768,-12.624
9.8,-149.927,-13.082
9.83,-153.05,-12.968
9.86,-155.963,-13.334
9.9,-158.981,-13.666
9.93,-161.789,-13.632
9.96,-164.351,-13.987
10.0,-166.983,-14.171
10.03,-168.983,-14.079
10.06,-171.23,-14.491
10.09,-173.616,-14.709
10.13,-175.757,-14.732
10.16,-178.143,-15.144
10.19,-180.916,-15.431
10.22,-183.478,-15.545
10.26,-186.356,-15.992
10.29,-189.584,-16.278
10.32,-192.216,-16.324
10.35,-194.884,-16.668
10.39,-197.726,-16.863
10.42,-200.043,-16.84
10.45,-202.219,-17.126
10.48,-204.71,-17.321
10.52,-206.43,-17.218
10.55,-208.044,-17.378
10.58,-209.834,-17.573
10.61,-211.063,-17.481
10.65,-212.361,-17.699
10.68,-214.256,-18.065
10.71,-215.906,-17.985
10.74,-217.59,-18.272
10.78,-219.907,-18.73
10.81,-221.521,-18.581
10.84,-223.346,-18.879
10.87,-225.627,-19.314
10.91,-227.487,-19.073
10.94,-229.242,-19.371
10.97,-231.664,-19.818
11.0,-233.313,-19.429
11.04,-235.068,-19.807
11.07,-237.77,-20.379
11.1,-239.139,-19.749
11.13,-240.508,-20.139
11.17,-242.929,-20.654
11.2,-244.122,-19.91
11.23,-245.386,-20.483
11.26,-247.878,-21.009
11.3,-248.965,-20.127
11.33,-250.334,-20.918
11.36,-252.896,-21.319
11.4,-253.738,-20.402
11.43,-255.107,-21.307
11.46,-257.774,-21.536
11.49,-258.511,-20.677
11.53,-260.161,-21.731
11.56,-262.477,-21.674
11.59,-262.793,-20.895
11.62,-264.056,-21.846
11.66,-265.776,-21.605
11.69,-266.022,-20.998
11.72,-267.461,-21.995
11.75,-269.286,-21.754
11.79,-269.637,-21.273
11.82,-271.146,-22.189
11.85,-272.62,-21.777
11.88,-272.76,-21.525
11.92,-274.234,-22.27
11.95,-275.533,-21.892
11.98,-275.883,-21.72
12.01,-277.708,-22.487
12.05,-279.147,-22.086
12.08,-279.147,-21.892
12.11,-280.727,-22.567
12.14,-281.674,-22.029
12.18,-281.358,-21.674
12.21,-282.516,-22.499
12.24,-283.078,-21.903
12.27,-282.376,-21.582
12.31,-283.745,-22.602
12.34,-284.447,-21.811
12.37,-283.955,-21.788
12.4,-285.675,-22.762
12.44,-286.272,-21.811
12.47,-285.605,-21.857
12.5,-287.184,-22.774
12.53,-287.675,-21.8
12.57,-286.763,-21.743
12.6,-287.921,-22.625
12.63,-287.921,-21.605
12.66,-286.623,-21.525
12.7,-287.219,-22.304
12.73,-286.482,-21.25
12.76,-284.973,-21.33
12.8,-285.394,-22.063
12.83,-284.552,-21.055
12.86,-283.183,-21.319
12.89,-283.253,-21.857
12.93,-281.955,-20.895
12.96,-280.13,-21.147
12.99,-279.568,-21.41
13.02,-277.919,-20.689
13.06,-276.375,-20.998
13.09,-275.848,-21.216
13.12,-274.234,-20.631
13.15,-272.76,-20.975
13.19,-271.988,-21.055
13.22,-270.303,-20.46
13.25,-268.724,-20.757
13.28,-268.022,-20.895
13.32,-266.548,-20.448
13.35,-265.25,-20.631
13.38,-264.513,-20.723
13.41,-262.968,-20.368
13.45,-261.459,-20.402
13.48,-260.477,-20.483
13.51,-258.827,-20.059
13.54,-256.897,-20.07
13.58,-255.879,-20.139
13.61,-254.124,-19.704
13.64,-252.194,-19.669
13.67,-250.896,-19.818
13.71,-249.211,-19.394
13.74,-247.176,-19.337
13.77,-245.982,-19.486
13.8,-244.403,-19.108
13.84,-242.368,-19.051
13.87,-241.034,-19.211
13.9,-239.49,-18.833
13.93,-237.349,-18.627
13.97,-235.875,-18.799
14.0,-234.155,-18.421
14.03,-231.909,-18.134
14.06,-230.295,-18.363
14.1,-228.716,-18.054
14.13,-226.61,-17.733
14.16,-225.101,-18.02
14.19,-223.346,-17.584
14.23,-220.889,-17.218
14.26,-219.064,-17.516
14.29,-216.924,-17.0
14.33,-214.467,-16.702
14.36,-212.817,-17.092
14.39,-210.992,-16.53
14.42,-208.571,-16.221
14.46,-206.921,-16.633
14.49,-204.851,-16.003
14.52,-202.324,-15.728
14.55,-200.815,-16.129
14.59,-198.885,-15.454
14.62,-196.533,-15.202
14.65,-195.129,-15.648
14.68,-193.269,-14.915
14.72,-190.672,-14.64
14.75,-188.847,-15.007
14.78,-186.356,-14.113
14.81,-183.197,-13.85
14.85,-180.881,-14.148
14.88,-178.003,-13.277
14.91,-174.774,-13.105
14.94,-172.493,-13.495
14.98,-169.65,-12.601
15.01,-166.527,-12.498
15.04,-164.14,-12.819
15.07,-161.192,-11.937
15.11,-158.244,-11.925
15.14,-155.928,-12.154
15.17,-153.12,-11.284
15.2,-150.278,-11.33
15.24,-147.856,-11.307
15.27,-144.803,-10.585
15.3,-141.679,-10.619
15.33,-139.082,-10.528
15.37,-135.643,-9.772
15.4,-132.169,-9.749
15.43,-129.501,-9.829
15.46,-125.816,-8.867
15.5,-122.272,-8.912
15.53,-120.026,-9.302
15.56,-116.551,-8.088
15.59,-113.147,-8.191
15.63,-110.901,-8.626
15.66,-108.023,-7.423
15.69,-104.584,-7.526
15.73,-101.601,-7.629
15.76,-98.407,-6.713
15.79,-94.511,-6.633
15.82,-90.44,-6.392
15.86,-86.475,-5.842
15.89,-82.263,-5.625
15.92,-78.122,-5.338
15.95,-73.279,-4.8
15.99,-69.383,-4.834
16.02,-66.225,-4.811
16.05,-62.329,-3.998
16.08,-59.065,-4.193
16.12,-56.468,-4.307
16.15,-53.766,-3.551
16.18,-50.607,-3.528
16.21,-47.624,-3.482
16.25,-44.781,-2.978
16.28,-41.237,-2.681
16.31,-37.482,-2.451
16.34,-33.516,-1.982
16.38,-29.48,-1.707
16.41,-25.479,-1.455
16.44,-21.548,-1.077
16.47,-17.688,-0.882
16.51,-14.038,-0.733
16.54,-10.529,-0.435
16.57,-7.054,-0.218
16.6,-3.404,-0.046
16.64,0.316,0.195
16.67,3.755,0.298
16.7,6.387,0.137
16.73,8.212,0.183
16.77,9.897,0.561
16.8,12.564,1.088
16.83,16.67,1.73
16.86,21.724,2.348
16.9,26.602,2.83
16.93,30.392,3.036
16.96,34.253,3.288
16.99,37.762,3.723
17.03,41.518,3.906
17.06,44.641,3.918
17.09,47.624,4.261
17.13,50.327,4.456
17.16,53.029,4.548
17.19,55.591,4.869
17.22,58.398,5.144
17.26,61.662,5.418
17.29,64.996,5.808
17.32,68.225,5.98
17.35,71.419,6.301
17.39,74.753,6.701
17.42,78.052,6.896
17.45,81.245,7.194
17.48,84.685,7.595
17.52,88.335,7.916
17.55,91.809,8.111
17.58,95.178,8.42
17.61,98.547,8.741
17.65,101.881,8.947
17.68,105.04,9.233
17.71,108.128,9.462
17.74,111.708,9.863
17.78,115.358,10.15
17.81,118.306,10.184
17.84,121.535,10.642
17.87,124.904,11.009
17.91,127.606,10.825
17.94,130.519,11.41
17.97,133.853,11.776
18.0,136.801,11.582
18.04,139.89,12.235
18.07,143.329,12.567
18.1,146.417,12.429
18.13,149.611,13.036
18.17,153.015,13.323
18.2,155.998,13.231
18.23,158.876,13.781
18.26,161.789,13.884
18.3,164.14,13.827
18.33,166.597,14.354
18.36,168.738,14.297
18.39,170.387,14.239
18.43,172.493,14.801
18.46,174.599,14.812
18.49,176.704,14.892
18.53,179.512,15.591
18.56,182.32,15.637
18.59,184.811,15.832
18.62,188.11,16.553
18.66,190.918,16.393
18.69,193.34,16.622
18.72,196.533,17.321
18.75,199.13,16.977
18.79,201.271,17.149
18.82,204.114,17.813
18.85,206.149,17.298
18.88,207.658,17.47
18.92,209.904,18.077
18.95,211.238,17.538
18.98,212.572,17.871
19.01,214.783,18.466
19.05,216.327,17.939
19.08,217.941,18.466
19.11,220.503,19.085
19.14,222.047,18.489
19.18,223.662,19.062
19.21,226.329,19.635
19.24,227.873,18.982
19.27,229.558,19.635
19.31,232.471,20.127
19.34,233.734,19.303
19.37,235.208,20.047
19.4,237.805,20.505
19.44,238.858,19.589
19.47,240.157,20.391
19.5,242.824,20.883
19.53,243.736,19.875
19.57,245.175,20.803
19.6,248.053,21.204
19.63,248.965,20.242
19.66,250.51,21.239
19.7,253.072,21.456
19.73,253.984,20.505
19.76,255.528,21.536
19.79,258.02,21.651
19.83,258.757,20.883
19.86,260.477,21.914
19.89,262.547,21.697
19.93,263.004,21.055
19.96,264.232,21.926
19.99,265.741,21.594
20.02,266.092,21.239
20.06,267.496,22.075
20.09,269.04,21.685
20.12,269.531,21.559
20.15,271.04,22.258
20.19,272.374,21.857
20.22,273.006,21.777
20.25,274.409,22.384
20.28,275.778,22.029
20.32,276.41,21.995
20.35,278.094,22.533
20.38,279.498,22.155
20.41,280.025,22.098
20.45,281.218,22.476
20.48,281.815,22.006
20.51,281.709,21.892
20.54,282.201,22.235
20.58,282.622,21.937
20.61,282.622,21.823
20.64,283.394,22.281
20.67,284.201,22.098
20.71,284.482,21.995
20.74,285.57,22.499
20.77,286.623,22.281
20.8,286.833,22.144
20.84,287.991,22.545
20.87,289.22,22.441
20.9,289.395,22.121
20.93,289.957,22.315
20.97,290.237,22.109
21.0,289.5,21.697
21.03,289.22,21.811
21.06,288.728,21.628
21.1,287.395,21.181
21.13,286.623,21.468
21.16,285.921,21.399
21.19,284.377,20.975
21.23,283.218,21.25
21.26,282.271,21.204
21.29,280.481,20.723
21.33,278.902,20.998
21.36,277.954,21.158
21.39,276.62,20.746
21.42,275.462,20.987
21.46,274.69,21.158
21.49,273.111,20.631
21.52,271.672,20.929
21.55,270.619,20.906
21.59,268.689,20.334
21.62,267.285,20.769
21.65,266.302,20.654
21.68,264.302,20.116
21.72,263.249,20.689
21.75,262.477,20.494
21.78,260.442,20.001
21.81,259.389,20.62
21.85,258.617,20.265
21.88,256.511,19.704
21.91,255.563,20.379
21.94,254.651,19.99
21.98,252.37,19.383
22.01,251.176,19.944
22.04,249.773,19.463
22.07,247.035,18.947
22.11,245.667,19.566
22.14,244.228,19.073
22.17,241.42,18.489
22.2,240.157,19.314
22.24,239.034,18.638
22.27,236.261,18.123
22.3,235.103,19.073
22.33,233.734,18.237
22.37,231.137,17.779
22.4,230.19,18.73
22.43,229.031,17.802
22.46,226.61,17.493
22.5,225.697,18.329
22.53,224.083,17.286
22.56,221.416,17.057
22.59,220.047,17.71
22.63,218.047,16.633
22.66,215.379,16.542
22.69,214.046,17.092
22.72,211.94,16.061
22.76,209.308,16.106
22.79,207.939,16.507
22.82,205.693,15.488
22.86,203.061,15.602
22.89,201.587,15.866
22.92,199.306,14.915
22.95,196.814,15.053
22.99,195.375,15.328
23.02,193.024,14.4
23.05,190.427,14.503
23.08,188.531,14.606
23.12,185.724,13.644
23.15,182.776,13.735
23.18,180.67,13.792
23.21,177.722,12.933
23.25,174.844,13.082
23.28,172.668,13.036
23.31,169.685,12.269
23.34,166.808,12.406
23.38,164.281,12.257
23.41,161.192,11.627
23.44,158.315,11.708
23.47,155.753,11.456
23.51,152.805,10.963
23.54,150.137,11.1
23.57,147.856,10.86
23.6,145.049,10.333
23.64,142.311,10.39
23.67,139.574,10.115
23.7,136.345,9.531
23.73,133.327,9.577
23.77,130.624,9.302
23.8,127.15,8.649
23.83,123.956,8.672
23.86,121.254,8.603
23.9,117.569,7.778
23.93,114.375,7.859
23.96,111.743,7.95
23.99,108.585,7.057
24.03,105.005,6.965
24.06,101.636,6.976
24.09,98.232,6.346
24.12,94.16,6.071
24.16,90.125,5.854
24.19,86.159,5.464
24.22,82.018,5.144
24.26,77.771,4.869
24.29,73.454,4.536
24.32,69.629,4.376
24.35,66.225,4.273
24.39,62.68,3.803
24.42,59.416,3.746
24.45,56.609,3.712
24.48,53.766,3.276
24.52,50.888,3.139
24.55,47.87,2.956
24.58,44.781,2.555
24.61,41.553,2.348
24.65,38.289,2.096
24.68,34.92,1.718
24.71,31.27,1.42
24.74,27.444,1.111
24.78,23.373,0.756
24.81,19.373,0.481
24.84,15.337,0.229
24.87,11.301,0.023
24.91,7.37,-0.183
24.94,3.404,-0.309
24.97,-0.526,-0.367
25.0,-4.001,-0.321
25.04,-6.352,-0.229
25.07,-7.861,-0.286
25.1,-9.476,-0.664
25.13,-12.354,-1.272
25.17,-16.67,-1.89
25.2,-22.005,-2.497
25.23,-27.129,-3.047
25.26,-31.27,-3.196
25.3,-35.165,-3.666
25.33,-39.307,-3.78
25.36,-42.816,-3.838
25.39,-45.975,-4.216
25.43,-48.502,-4.124
25.46,-50.642,-4.33
25.49,-52.888,-4.685
25.52,-55.345,-4.811
25.56,-57.626,-4.972
25.59,-60.294,-5.407
25.62,-63.803,-5.877
25.66,-66.716,-5.865
25.69,-69.945,-6.358
25.72,-73.84,-7.022
25.75,-77.455,-6.919
25.79,-80.824,-7.343
25.82,-84.544,-7.904
25.85,-88.51,-7.985
25.88,-91.949,-8.317
25.92,-95.319,-8.603
25.95,-98.758,-8.878
25.98,-102.127,-9.084
26.01,-105.321,-9.29
26.05,-108.199,-9.554
26.08,-111.778,-9.989
26.11,-115.253,-10.207
26.14,-117.78,-10.104
26.18,-121.078,-10.803
26.21,-124.553,-11.123
26.24,-127.22,-10.757
26.27,-130.554,-11.685
26.31,-134.169,-11.937
26.34,-137.117,-11.593
26.37,-140.416,-12.521
26.4,-143.61,-12.59
26.44,-146.242,-12.361
26.47,-149.155,-13.162
26.5,-152.068,-13.151
26.53,-154.489,-13.14
26.57,-157.297,-13.827
26.6,-160.034,-13.758
26.63,-162.561,-13.907
26.66,-165.474,-14.491
26.7,-168.071,-14.388
26.73,-170.387,-14.617
26.76,-173.16,-15.133
26.79,-175.581,-14.995
26.83,-178.038,-15.282
26.86,-181.056,-15.877
26.89,-183.899,-15.751
26.92,-186.671,-16.049
26.96,-189.83,-16.599
26.99,-192.532,-16.393
27.02,-194.919,-16.668
27.06,-197.726,-17.115
27.09,-199.937,-16.897
27.12,-201.938,-17.183
27.15,-204.324,-17.458
27.19,-206.079,-17.206
27.22,-207.693,-17.561
27.25,-209.554,-17.79
27.28,-210.887,-17.516
27.32,-212.291,-17.962
27.35,-214.221,-18.214
27.38,-215.8,-18.054
27.41,-217.766,-18.581
27.45,-220.117,-18.81
27.48,-221.837,-18.73
27.51,-223.802,-19.142
27.54,-225.873,-19.303
27.58,-227.698,-19.188
27.61,-229.628,-19.612
27.64,-231.909,-19.807
27.67,-233.769,-19.681
27.71,-235.735,-20.024
27.74,-237.7,-20.196
27.77,-239.384,-20.024
27.8,-241.034,-20.334
27.84,-242.894,-20.391
27.87,-244.438,-20.322
27.9,-246.053,-20.631
27.93,-247.878,-20.666
27.97,-249.562,-20.666
28.0,-251.071,-20.895
28.03,-252.65,-20.964
28.06,-254.265,-21.021
28.1,-255.669,-21.078
28.13,-257.178,-21.216
28.16,-258.687,-21.319
28.19,-260.056,-21.307
28.23,-261.53,-21.456
28.26,-262.828,-21.445
28.29,-263.565,-21.307
28.32,-264.583,-21.582
28.36,-265.741,-21.536
28.39,-266.618,-21.525
28.42,-268.092,-21.914
28.46,-269.531,-21.823
28.49,-270.619,-21.754
28.52,-271.988,-22.086
28.55,-273.322,-21.949
28.59,-274.129,-21.892
28.62,-275.533,-22.235
28.65,-276.901,-22.098
28.68,-277.708,-22.052
28.72,-279.253,-22.419
28.75,-280.376,-22.155
28.78,-280.797,-21.96
28.81,-281.815,-22.292
28.85,-282.201,-21.949
28.88,-282.236,-21.846
28.91,-283.043,-22.201
28.94,-283.218,-21.766
28.98,-283.253,-21.903
29.01,-284.306,-22.304
29.04,-284.727,-21.811
29.07,-284.727,-21.983
29.11,-285.851,-22.43
29.14,-286.096,-21.846
29.17,-286.272,-22.04
29.2,-287.43,-22.419
29.24,-287.465,-21.754
29.27,-287.289,-21.937
29.3,-287.956,-22.201
29.33,-287.36,-21.456
29.37,-286.342,-21.594
29.4,-286.482,-21.926
29.43,-285.359,-21.113
29.46,-284.412,-21.433
29.5,-284.587,-21.766
29.53,-283.429,-20.964
29.56,-282.446,-21.445
29.59,-282.236,-21.525
29.63,-280.411,-20.62
29.66,-278.972,-21.273
29.69,-278.586,-21.204
29.72,-276.761,-20.402
29.76,-275.568,-21.17
29.79,-274.831,-20.964
29.82,-272.795,-20.357
29.86,-271.707,-21.055
29.89,-270.795,-20.62
29.92,-268.654,-20.311
29.95,-267.741,-20.918
29.99,-266.829,-20.425
30.02,-265.039,-20.219
30.05,-264.197,-20.723
30.08,-263.074,-20.196
30.12,-261.108,-19.978
30.15,-260.196,-20.494
30.18,-258.827,-19.898
30.21,-256.757,-19.681
30.25,-255.809,-20.162
30.28,-254.335,-19.6
30.31,-252.229,-19.44
30.34,-251.212,-19.887
30.38,-249.527,-19.119
30.41,-247.246,-19.073
30.44,-246.123,-19.452
30.47,-244.368,-18.753
30.51,-242.227,-18.776
30.54,-241.034,-19.085
30.57,-239.209,-18.375
30.6,-236.963,-18.432
30.64,-235.559,-18.604
30.67,-233.524,-17.939
30.7,-231.383,-18.077
30.73,-230.049,-18.123
30.77,-228.154,-17.596
30.8,-226.329,-17.756
30.83,-224.96,-17.699
30.86,-223.03,-17.241
30.9,-221.135,-17.309
30.93,-219.345,-17.08
30.96,-217.204,-16.737
30.99,-215.344,-16.805
31.03,-213.589,-16.553
31.06,-211.554,-16.301
31.09,-209.624,-16.324
31.12,-207.693,-16.015
31.16,-205.377,-15.706
31.19,-203.131,-15.683
31.22,-201.025,-15.419
31.25,-198.814,-15.133
31.29,-196.709,-15.075
31.32,-194.814,-14.892
31.35,-192.638,-14.583
31.39,-190.427,-14.457
31.42,-188.075,-14.205
31.45,-185.619,-13.907
31.48,-182.881,-13.689
31.52,-180.249,-13.46
31.55,-177.687,-13.22
31.58,-175.09,-12.968
31.61,-172.423,-12.727
31.65,-169.65,-12.567
31.68,-166.808,-12.269
31.71,-163.965,-12.005
31.74,-161.192,-11.845
31.78,-158.525,-11.616
31.81,-155.963,-11.433
31.84,-153.331,-11.204
31.87,-150.558,-10.906
31.91,-147.646,-10.677
31.94,-144.873,-10.528
31.97,-141.89,-10.15
32.0,-138.872,-9.875
32.04,-135.889,-9.714
32.07,-132.625,-9.279
32.1,-129.361,-9.084
32.13,-126.518,-9.016
32.17,-123.254,-8.477
32.2,-120.096,-8.328
32.23,-117.429,-8.363
32.26,-114.305,-7.698
32.3,-111.287,-7.595
32.33,-108.409,-7.595
32.36,-105.18,-6.954
32.39,-101.636,-6.782
32.43,-98.021,-6.587
32.46,-94.336,-6.06
32.49,-90.125,-5.762
32.52,-85.843,-5.464
32.56,-81.561,-5.086
32.59,-77.42,-4.823
32.62,-73.314,-4.594
32.65,-68.997,-4.135
32.69,-65.417,-4.147
32.72,-62.399,-4.078
32.75,-59.241,-3.586
32.79,-56.187,-3.586
32.82,-53.345,-3.482
32.85,-50.572,-3.036
32.88,-47.519,-2.875
32.92,-44.536,-2.658
32.95,-41.377,-2.291
32.98,-37.833,-1.993
33.01,-34.148,-1.673
33.05,-30.322,-1.34
33.08,-26.462,-1.031
33.11,-22.636,-0.768
33.14,-18.776,-0.47
33.18,-14.951,-0.241
33.21,-11.125,0.011
33.24,-7.089,0.252
33.27,-2.983,0.389
33.31,1.088,0.584
33.34,4.843,0.515
33.37,7.37,0.321
33.4,8.914,0.458
33.44,10.529,0.859
33.47,13.301,1.42
33.5,17.372,2.062
33.53,22.426,2.681
33.57,27.269,3.059
33.6,31.094,3.082
33.63,34.779,3.528
33.66,38.429,3.906
33.7,42.009,3.78
33.73,44.852,4.021
33.76,47.729,4.307
33.79,50.397,4.399
33.83,52.924,4.605
33.86,55.556,4.926
33.89,58.188,5.086
33.92,61.206,5.418
33.96,64.505,5.888
33.99,67.523,5.923
34.02,70.857,6.427
34.05,74.367,6.885
34.09,77.806,6.873
34.12,81.14,7.332
34.15,84.72,7.767
34.19,88.51,7.962
34.22,91.949,8.225
34.25,95.424,8.557
34.28,98.828,8.878
34.32,102.127,9.016
34.35,105.286,9.302
34.38,108.655,9.646
34.41,112.199,9.875
34.45,115.463,10.104
34.48,118.552,10.39
34.51,121.815,10.699
34.54,124.799,10.791
34.58,127.711,11.078
34.61,130.835,11.467
34.64,133.643,11.478
34.67,136.555,11.879
34.71,139.609,12.2
34.74,142.592,12.269
34.77,145.821,12.761
34.8,149.155,12.991
34.84,152.383,13.162
34.87,155.507,13.575
34.9,158.665,13.689
34.93,161.368,13.804
34.97,163.965,14.148
35.0,166.281,14.159
35.03,168.282,14.239
35.06,170.212,14.514
35.1,172.002,14.571
35.13,174.002,14.892
35.16,176.389,15.144
35.19,178.951,15.316
35.23,181.934,15.843
35.26,185.092,16.152
35.29,188.181,16.324
35.32,191.409,16.771
35.36,194.533,16.943
35.39,197.34,17.0
35.42,200.148,17.332
35.45,202.534,17.344
35.49,204.64,17.367
35.52,206.711,17.55
35.55,208.43,17.435
35.59,209.764,17.561
35.62,211.378,17.848
35.65,212.712,17.779
35.68,214.186,18.054
35.72,216.081,18.34
35.75,217.731,18.295
35.78,219.766,18.73
35.81,221.942,18.947
35.85,223.521,18.89
35.88,225.592,19.383
35.91,227.979,19.486
35.94,229.733,19.417
35.98,231.874,19.898
36.01,234.331,19.967
36.04,235.91,19.852
36.07,237.875,20.299
36.11,239.876,20.23
36.14,240.964,20.047
36.17,242.578,20.563
36.2,244.508,20.471
36.24,245.596,20.334
36.27,247.491,20.883
36.3,249.422,20.803
36.33,250.439,20.631
36.37,252.194,21.216
36.4,254.054,21.09
36.43,255.212,20.929
36.46,257.108,21.525
36.5,258.968,21.33
36.53,260.126,21.296
36.56,261.951,21.846
36.59,263.284,21.456
36.63,264.021,21.445
36.66,265.39,21.857
36.69,266.408,21.456
36.72,267.285,21.64
36.76,268.935,21.983
36.79,269.917,21.628
36.82,270.865,21.846
36.85,272.374,22.144
36.89,273.251,21.788
36.92,274.059,22.018
36.95,275.603,22.281
36.99,276.656,21.926
37.02,277.814,22.201
37.05,279.498,22.441
37.08,280.411,22.075
37.12,281.288,22.235
37.15,282.341,22.361
37.18,282.587,21.926
37.21,282.973,22.144
37.25,283.92,22.235
37.28,284.201,21.754
37.31,284.763,22.178
37.34,285.57,22.212
37.38,285.57,21.777
37.41,286.342,22.27
37.44,287.009,22.121
37.47,286.728,21.777
37.51,287.395,22.315
37.54,288.237,22.109
37.57,288.658,21.926
37.6,290.448,22.636
37.64,292.413,22.453
37.67,293.993,22.453
37.7,296.414,23.026
37.73,298.555,22.682
37.77,300.029,22.625
37.8,301.608,22.728
37.83,302.17,22.063
37.86,301.433,21.72
37.9,299.994,21.296
37.93,297.151,20.505
37.96,293.747,20.15
37.99,290.062,19.807
38.03,285.745,19.326
38.06,281.779,19.486
38.09,278.305,19.417
38.12,274.62,19.326
38.16,271.637,19.795
38.19,269.356,19.864
38.22,266.969,19.898
38.25,265.46,20.402
38.29,264.583,20.505
38.32,263.635,20.574
38.35,263.214,20.895
38.39,262.793,20.883
38.42,262.091,20.746
38.45,261.6,20.838
38.48,260.722,20.54
38.52,259.424,20.311
38.55,258.336,20.357
38.58,256.757,19.875
38.61,254.756,19.715
38.65,253.036,19.715
38.68,250.615,19.119
38.71,248.123,19.154
38.74,246.298,19.245
38.78,244.052,18.661
38.81,242.052,19.005
38.84,240.999,19.165
38.87,239.244,18.569
38.91,237.875,19.005
38.94,237.138,18.959
38.97,235.278,18.329
39.0,233.839,18.776
39.04,232.787,18.512
39.07,230.611,17.825
39.1,228.856,18.249
39.13,227.312,17.882
39.17,224.855,17.252
39.2,222.714,17.607
39.23,220.854,17.195
39.26,218.433,16.748
39.3,216.432,17.046
39.33,214.362,16.633
39.36,212.256,16.381
39.39,210.536,16.542
39.43,208.641,16.175
39.46,206.535,15.98
39.49,204.745,16.095
39.52,202.71,15.614
39.56,200.639,15.454
39.59,198.885,15.568
39.62,196.954,15.075
39.65,194.814,14.972
39.69,192.813,14.972
39.72,190.392,14.331
39.75,187.794,14.251
39.78,185.373,14.182
39.82,182.6,13.483
39.85,179.793,13.529
39.88,177.441,13.426
39.92,174.634,12.807
39.95,171.791,12.853
39.98,169.054,12.67
40.01,165.755,12.04
40.05,161.087,11.696
40.08,154.98,10.929
40.11,147.4,10.104
40.14,139.644,9.772
40.18,133.011,9.451
40.21,127.22,9.176
40.24,123.079,9.382
40.27,120.763,9.737
40.31,119.394,9.829
40.34,119.71,10.39
40.37,121.359,10.837
40.4,123.079,10.745
40.44,125.185,11.1
40.47,127.22,11.135
40.5,127.887,10.39
40.53,127.641,10.184
40.57,126.483,9.703
40.6,123.921,8.672
40.63,120.552,8.328
40.66,116.586,7.755
40.7,111.848,6.862
40.73,106.584,6.575
40.76,100.934,5.98
40.79,95.178,5.441
40.83,89.247,5.201
40.86,83.772,4.857
40.89,78.648,4.594
40.92,74.086,4.525
40.96,70.12,4.41
40.99,66.891,4.342
41.02,64.294,4.365
41.05,61.873,4.147
41.09,59.732,4.135
41.12,58.083,4.158
41.15,56.117,3.735
41.18,53.976,3.574
41.22,51.66,3.402
41.25,48.993,2.91
41.28,45.764,2.589
41.32,42.044,2.211
41.35,38.184,1.776
41.38,34.007,1.466
41.41,29.831,1.134
41.45,25.549,0.722
41.48,21.268,0.515
41.51,17.091,0.252
41.54,12.95,-0.023
41.58,8.844,-0.149
41.61,4.703,-0.321
41.64,0.351,-0.447
41.67,-3.86,-0.447
41.71,-7.089,-0.378
41.74,-9.195,-0.355
41.77,-10.985,-0.664
41.8,-13.792,-1.363
41.84,-18.214,-2.028
41.87,-23.724,-2.704
41.9,-28.778,-3.059
41.93,-32.674,-3.104
41.97,-36.253,-3.448
42.0,-39.447,-3.448
42.03,-42.044,-3.586
42.06,-44.395,-3.735
42.1,-46.536,-3.929
42.13,-48.502,-4.009
42.16,-50.572,-4.307
42.19,-53.134,-4.685
42.23,-56.047,-4.88
42.26,-59.206,-5.327
42.29,-62.54,-5.648
42.32,-66.26,-6.06
42.36,-69.769,-6.415
42.39,-73.244,-6.61
42.42,-77.209,-7.171
42.45,-81.07,-7.366
42.49,-84.825,-7.641
42.52,-88.545,-8.03
42.55,-92.265,-8.225
42.58,-95.634,-8.5
42.62,-98.688,-8.66
42.65,-101.811,-8.947
42.68,-104.865,-9.21
42.72,-107.918,-9.348
42.75,-110.76,-9.623
42.78,-113.884,-9.932
42.81,-117.078,-10.253
42.85,-119.64,-10.264
42.88,-122.623,-10.688
42.91,-125.957,-11.192
42.94,-128.659,-10.997
42.98,-131.712,-11.536
43.01,-135.187,-12.04
43.04,-138.38,-11.891
43.07,-141.574,-12.441
43.11,-145.154,-12.842
43.14,-148.418,-12.75
43.17,-151.471,-13.22
43.2,-154.7,-13.483
43.24,-157.648,-13.495
43.27,-160.561,-13.873
43.3,-163.333,-14.01
43.33,-165.895,-14.171
43.37,-168.422,-14.411
43.4,-170.668,-14.457
43.43,-172.984,-14.755
43.46,-175.371,-14.984
43.5,-177.757,-15.11
43.53,-180.565,-15.442
43.56,-183.443,-15.74
43.59,-186.285,-15.923
43.63,-189.268,-16.313
43.66,-192.287,-16.542
43.69,-194.954,-16.622
43.72,-197.691,-16.943
43.76,-200.323,-17.034
43.79,-202.499,-17.034
43.82,-204.675,-17.321
43.85,-206.676,-17.309
43.89,-208.325,-17.286
43.92,-210.045,-17.607
43.95,-211.729,-17.607
43.98,-213.133,-17.596
44.02,-214.783,-18.065
44.05,-216.678,-18.146
44.08,-218.433,-18.214
44.12,-220.433,-18.638
44.15,-222.293,-18.695
44.18,-223.907,-18.787
44.21,-225.838,-19.142
44.25,-227.803,-19.188
44.28,-229.733,-19.326
44.31,-231.979,-19.715
44.34,-234.05,-19.692
44.38,-236.086,-19.91
44.41,-238.261,-20.196
44.44,-240.051,-20.001
44.47,-242.052,-20.253
44.51,-244.193,-20.483
44.54,-245.842,-20.288
44.57,-247.772,-20.631
44.6,-249.808,-20.689
44.64,-251.036,-20.448
44.67,-252.58,-20.906
44.7,-254.089,-20.769
44.73,-254.897,-20.62
44.77,-256.335,-20.987
44.8,-257.494,-20.803
44.83,-258.231,-20.838
44.86,-259.74,-21.365
44.9,-261.073,-21.135
44.93,-261.951,-21.204
44.96,-263.565,-21.685
44.99,-264.758,-21.376
45.03,-265.741,-21.525
45.06,-267.496,-21.926
45.09,-268.759,-21.662
45.12,-269.917,-21.788
45.16,-271.567,-22.006
45.19,-272.585,-21.72
45.22,-273.637,-21.983
45.25,-275.146,-22.121
45.29,-275.989,-21.823
45.32,-277.077,-22.178
45.35,-278.551,-22.212
45.38,-279.182,-21.8
45.42,-280.13,-22.212
45.45,-281.464,-22.201
45.48,-281.569,-21.766
45.52,-282.271,-22.235
45.55,-283.183,-22.04
45.58,-283.008,-21.72
45.61,-283.745,-22.258
45.65,-284.552,-21.972
45.68,-284.306,-21.731
45.71,-285.114,-22.315
45.74,-285.815,-22.006
45.78,-285.675,-21.766
45.81,-286.377,-22.304
45.84,-286.798,-21.937
45.87,-286.377,-21.754
45.91,-286.974,-22.258
45.94,-287.184,-21.731
45.97,-286.552,-21.64
46.0,-286.868,-22.098
46.04,-286.447,-21.491
46.07,-285.5,-21.491
46.1,-285.64,-21.96
46.13,-285.149,-21.376
46.17,-284.341,-21.433
46.2,-284.482,-21.834
46.23,-283.569,-21.204
46.26,-282.236,-21.261
46.3,-281.604,-21.445
46.33,-279.884,-20.757
46.36,-278.2,-20.941
46.39,-277.322,-21.078
46.43,-275.673,-20.528
46.46,-274.234,-20.906
46.49,-273.146,-20.906
46.52,-271.426,-20.505
46.56,-269.917,-20.803
46.59,-268.689,-20.643
46.62,-267.285,-20.471
46.65,-266.373,-20.78
46.69,-265.53,-20.597
46.72,-264.302,-20.483
46.75,-263.319,-20.677
46.78,-262.056,-20.334
46.82,-260.301,-20.185
46.85,-259.003,-20.288
46.88,-257.494,-19.887
46.92,-255.528,-19.795
46.95,-254.089,-19.864
46.98,-252.44,-19.566
47.01,-250.475,-19.44
47.05,-249.001,-19.532
47.08,-247.246,-19.291
47.11,-245.491,-19.188
47.14,-244.228,-19.211
47.18,-242.754,-19.028
47.21,-241.209,-19.005
47.24,-239.981,-19.005
47.27,-238.332,-18.627
47.31,-236.507,-18.569
47.34,-234.787,-18.501
47.37,-232.576,-18.042
47.4,-230.365,-17.985
47.44,-228.189,-17.848
47.47,-225.908,-17.55
47.5,-223.767,-17.527
47.53,-221.661,-17.344
47.57,-219.415,-17.126
47.6,-217.485,-17.149
47.63,-215.555,-16.954
47.66,-213.625,-16.794
47.7,-212.115,-16.897
47.73,-210.536,-16.542
47.76,-208.781,-16.427
47.79,-207.343,-16.507
47.83,-205.518,-16.038
47.86,-203.517,-15.9
47.89,-201.797,-15.866
47.92,-199.692,-15.396
47.96,-197.656,-15.27
47.99,-195.901,-15.305
48.02,-193.866,-14.812
48.05,-191.655,-14.686
48.09,-189.549,-14.594
48.12,-186.847,-14.022
48.15,-184.074,-13.93
48.18,-181.512,-13.792
48.22,-178.635,-13.162
48.25,-175.722,-13.197
48.28,-172.704,-12.945
48.31,-169.159,-12.326
48.35,-165.614,-12.349
48.38,-162.386,-12.086
48.41,-159.157,-11.708
48.45,-156.49,-11.834
48.48,-154.173,-11.582
48.51,-151.857,-11.318
48.54,-149.821,-11.433
48.58,-147.681,-11.112
48.61,-145.154,-10.768
48.64,-142.592,-10.711
48.67,-139.574,-10.218
48.71,-136.24,-9.863
48.74,-133.116,-9.749
48.77,-129.572,-9.245
48.8,-126.027,-8.935
48.84,-123.079,-9.027
48.87,-119.71,-8.385
48.9,-116.27,-8.122
48.93,-113.673,-8.454
48.97,-110.936,-7.79
49.0,-107.672,-7.435
49.03,-104.724,-7.664
49.06,-101.881,-7.102
49.1,-98.196,-6.621
49.13,-94.16,-6.495
49.16,-90.195,-6.049
49.19,-85.948,-5.67
49.23,-81.526,-5.384
49.26,-76.894,-4.937
49.29,-72.752,-4.777
49.32,-69.243,-4.8
49.36,-65.453,-4.239
49.39,-61.943,-4.124
49.42,-59.1,-4.273
49.45,-56.152,-3.735
49.49,-53.275,-3.574
49.52,-50.502,-3.608
49.55,-47.835,-3.127
49.58,-44.817,-2.898
49.62,-41.658,-2.681
49.65,-38.57,-2.337
49.68,-35.025,-1.993
49.71,-31.305,-1.684
49.75,-27.409,-1.352
49.78,-23.444,-1.02
49.81,-19.478,-0.733
49.85,-15.477,-0.435
49.88,-11.336,-0.183
49.91,-7.3,0.034
49.94,-3.299,0.275
49.98,0.632,0.367
50.01,4.211,0.355
50.04,6.703,0.252
50.07,8.353,0.309
50.11,10.213,0.733
50.14,13.441,1.398
50.17,18.109,2.005
50.2,23.724,2.646
50.24,28.673,3.047
50.27,32.779,3.15
50.3,36.639,3.505
50.33,40.289,3.792
50.37,43.623,3.746
50.4,46.466,3.918
50.43,48.923,4.147
50.46,51.064,4.113
50.5,53.204,4.433
50.53,55.591,4.731
50.56,58.328,4.926
50.59,61.101,5.258
50.63,64.259,5.693
50.66,67.593,6.014
50.69,70.717,6.163
50.72,74.191,6.679
50.76,77.911,7.091
50.79,81.456,7.171
50.82,84.895,7.606
50.85,88.58,7.996
50.89,92.195,8.145
50.92,95.424,8.374
50.95,98.653,8.718
50.98,102.022,8.981
51.02,105.18,9.153
51.05,108.304,9.405
51.08,111.533,9.737
51.11,114.832,9.989
51.15,117.92,10.218
51.18,120.798,10.436
51.21,123.781,10.745
51.25,126.729,10.974
51.28,129.782,11.249
51.31,132.87,11.604
51.34,135.994,11.73
51.38,139.047,12.086
51.41,142.101,12.338
51.44,145.259,12.567
51.47,148.488,12.899
51.51,151.611,13.128
51.54,154.735,13.369
51.57,157.823,13.689
51.6,160.736,13.781
51.64,163.474,14.01
51.67,166.281,14.331
51.7,168.773,14.365
51.73,171.265,14.583
51.77,173.651,14.881
51.8,175.967,14.881
51.83,178.424,15.213
51.86,181.197,15.591
51.9,183.723,15.614
51.93,186.566,16.026
51.96,189.549,16.347
51.99,192.076,16.29
52.03,194.743,16.737
52.06,197.516,16.943
52.09,199.551,16.817
52.12,201.973,17.275
52.16,204.289,17.298
52.19,205.833,17.206
52.22,207.693,17.699
52.25,209.308,17.584
52.29,210.466,17.458
52.32,212.115,18.088
52.35,213.94,18.02
52.38,215.45,18.008
52.42,217.661,18.684
52.45,219.766,18.615
52.48,221.381,18.65
52.51,223.662,19.326
52.55,225.627,19.119
52.58,227.277,19.188
52.61,229.593,19.852
52.65,231.558,19.578
52.68,233.067,19.646
52.71,235.454,20.242
52.74,237.033,19.83
52.78,238.226,19.967
52.81,240.543,20.62
52.84,242.017,20.093
52.87,243.35,20.391
52.91,245.596,20.975
52.94,247.141,20.425
52.97,248.685,20.826
53.0,251.212,21.376
53.04,252.826,20.849
53.07,254.37,21.239
53.1,256.757,21.571
53.13,258.266,21.147
53.17,259.81,21.571
53.2,261.81,21.697
53.23,262.828,21.204
53.26,263.776,21.536
53.3,264.934,21.548
53.33,265.39,21.227
53.36,266.338,21.571
53.39,267.39,21.571
53.43,267.952,21.422
53.46,269.075,21.834
53.49,270.409,21.766
53.52,271.286,21.743
53.56,272.444,22.109
53.59,273.743,22.018
53.62,274.69,22.006
53.65,276.375,22.419
53.69,277.919,22.212
53.72,278.902,22.247
53.75,280.516,22.59
53.78,281.709,22.281
53.82,282.095,22.109
53.85,283.043,22.476
53.88,283.78,22.075
53.91,284.026,22.018
53.95,284.938,22.35
53.98,285.57,21.972
54.01,285.71,22.04
54.05,286.482,22.281
54.08,286.868,21.983
54.11,287.044,22.098
54.14,287.956,22.327
54.18,288.799,22.155
54.21,289.746,22.35
54.24,290.974,22.476
54.27,291.817,22.304
54.31,292.378,22.327
54.34,292.589,22.109
54.37,292.308,21.846
54.4,291.431,21.662
54.44,289.957,21.296
54.47,288.097,21.021
54.5,285.991,20.861
54.53,283.499,20.586
54.57,281.113,20.54
54.6,278.902,20.54
54.63,276.656,20.414
54.66,274.901,20.7
54.7,273.532,20.746
54.73,272.058,20.7
54.76,271.356,21.193
54.79,270.724,21.158
54.83,269.777,21.009
54.86,269.391,21.445
54.89,268.724,21.17
54.92,267.601,20.952
54.96,267.145,21.261
54.99,266.232,20.826
55.02,264.864,20.723
55.05,264.337,20.975
55.09,263.074,20.414
55.12,261.319,20.368
55.15,260.371,20.574
55.18,258.722,19.933
55.22,256.616,19.921
55.25,255.528,20.162
55.28,253.668,19.532
55.31,251.598,19.612
55.35,250.369,19.841
55.38,248.334,19.142
55.41,246.368,19.371
55.45,245.245,19.589
55.48,243.28,18.89
55.51,241.595,19.188
55.54,240.648,19.268
55.58,238.858,18.638
55.61,237.349,18.993
55.64,236.331,18.867
55.67,233.91,18.157
55.71,231.944,18.512
55.74,230.26,18.214
55.77,227.382,17.47
55.8,225.171,17.928
55.84,223.311,17.607
55.87,220.573,17.034
55.9,218.643,17.527
55.93,217.134,17.137
55.97,214.818,16.759
56.0,213.379,17.241
56.03,211.975,16.782
56.06,210.045,16.45
56.1,208.852,16.851
56.13,207.588,16.381
56.16,205.412,16.038
56.19,203.868,16.29
56.23,202.078,15.671
56.26,199.622,15.316
56.29,197.762,15.602
56.32,195.656,14.904
56.36,192.989,14.629
56.39,190.848,14.869
56.42,188.426,14.205
56.45,185.548,13.918
56.49,183.337,14.102
56.52,180.775,13.472
56.55,177.792,13.266
56.58,175.406,13.426
56.62,172.879,12.853
56.65,170.036,12.681
56.68,167.509,12.727
56.71,164.737,12.131
56.75,161.684,11.948
56.78,159.122,11.971
56.81,156.349,11.456
56.84,153.577,11.307
56.88,150.839,11.169
56.91,147.926,10.699
56.94,144.943,10.619
56.98,142.101,10.413
57.01,138.907,9.921
57.04,135.889,9.829
57.07,133.257,9.806
57.11,130.414,9.233
57.14,127.782,9.142
57.17,125.5,9.21
57.2,122.588,8.489
57.24,119.71,8.42
57.27,117.218,8.534
57.3,114.27,7.687
57.33,110.62,7.48
57.37,107.321,7.526
57.4,103.812,6.828
57.43,99.425,6.358
57.46,95.003,6.243
57.5,90.686,5.819
57.53,86.018,5.373
57.56,81.456,5.224
57.59,77.034,4.846
57.63,72.823,4.639
57.66,68.997,4.559
57.69,65.242,4.227
57.72,61.662,4.021
57.76,58.434,3.987
57.79,55.31,3.677
57.82,52.327,3.437
57.85,49.414,3.391
57.89,46.747,3.093
57.92,43.904,2.784
57.95,40.956,2.6
57.98,37.833,2.291
58.02,34.358,1.902
58.05,30.638,1.592
58.08,26.637,1.283
58.11,22.601,0.939
58.15,18.495,0.63
58.18,14.424,0.412
58.21,10.458,0.149
58.24,6.668,-0.034
58.28,3.018,-0.126
58.31,-0.667,-0.229
58.34,-4.036,-0.229
58.38,-6.282,-0.137
58.41,-7.791,-0.218
58.44,-9.511,-0.642
58.47,-12.704,-1.26
58.51,-17.232,-1.867
58.54,-22.707,-2.486
58.57,-27.936,-3.013
58.6,-32.007,-3.196
58.64,-36.078,-3.746
58.67,-40.184,-3.792
58.7,-43.307,-3.735
58.73,-45.659,-4.021
58.77,-47.449,-3.952
58.8,-48.747,-4.044
58.83,-50.011,-4.273
58.86,-51.695,-4.445
58.9,-53.696,-4.743
58.93,-56.609,-5.235
58.96,-59.908,-5.59
58.99,-63.312,-5.877
59.03,-67.699,-6.61
59.06,-72.05,-6.942
59.09,-76.437,-7.102
59.12,-80.93,-7.778
59.16,-85.632,-8.111
59.19,-90.054,-8.259
59.22,-93.774,-8.523
59.25,-97.424,-8.775
59.29,-100.618,-8.901
59.32,-103.741,-9.13
59.35,-106.339,-9.245
59.38,-109.006,-9.416
59.42,-112.234,-9.921
59.45,-114.867,-9.806
59.48,-117.639,-10.15
59.51,-121.184,-10.871
59.55,-124.026,-10.516
59.58,-126.834,-10.974
59.61,-130.414,-11.742
59.64,-133.432,-11.33
59.68,-136.52,-11.96
59.71,-140.311,-12.555
59.74,-143.469,-12.212
59.78,-146.558,-12.773
59.81,-149.892,-13.231
59.84,-152.664,-12.968
59.87,-155.542,-13.506
59.91,-158.63,-13.758
59.94,-161.122,-13.609
59.97,-163.895,-14.182
60.0,-166.702,-14.342
60.04,-168.913,-14.182
60.07,-171.37,-14.789
60.1,-173.792,-14.835
60.13,-175.792,-14.755
60.17,-178.319,-15.396
60.2,-181.021,-15.534
60.23,-183.583,-15.614
60.26,-186.566,-16.21
60.3,-189.549,-16.233
60.33,-191.936,-16.313
60.36,-194.673,-16.885
60.39,-197.2,-16.771
60.43,-199.306,-16.84
60.46,-201.833,-17.378
60.49,-204.149,-17.229
60.52,-205.974,-17.206
60.56,-207.974,-17.722
60.59,-209.659,-17.538
60.62,-210.887,-17.55
60.65,-212.607,-18.054
60.69,-214.326,-17.916
60.72,-215.765,-18.123
60.75,-217.871,-18.638
60.78,-219.977,-18.581
60.82,-221.802,-18.753
60.85,-224.083,-19.154
60.88,-226.224,-19.154
60.91,-228.084,-19.268
60.95,-230.295,-19.623
60.98,-232.295,-19.623
61.01,-233.98,-19.726
61.04,-236.086,-20.013
61.08,-237.805,-19.898
61.11,-239.244,-19.99
61.14,-241.069,-20.242
61.18,-242.754,-20.219
61.21,-244.122,-20.276
61.24,-245.772,-20.528
61.27,-247.386,-20.62
61.31,-248.544,-20.597
61.34,-250.124,-20.838
61.37,-251.878,-20.941
61.4,-253.142,-20.838
61.44,-254.756,-21.101
61.47,-256.581,-21.307
61.5,-257.88,-21.135
61.53,-259.599,-21.536
61.57,-261.67,-21.628
61.6,-262.898,-21.365
61.63,-264.197,-21.651
61.66,-265.601,-21.697
61.7,-266.408,-21.41
61.73,-267.706,-21.788
61.76,-269.566,-21.823
61.79,-270.338,-21.536
61.83,-271.602,-21.995
61.86,-273.006,-21.937
61.89,-273.532,-21.64
61.92,-274.69,-22.075
61.96,-276.024,-22.018
61.99,-276.585,-21.743
62.02,-277.884,-22.258
62.05,-279.323,-22.132
62.09,-279.639,-21.834
62.12,-280.727,-22.338
62.15,-281.674,-22.063
62.18,-281.639,-21.766
62.22,-282.587,-22.373
62.25,-283.604,-22.063
62.28,-283.394,-21.72
62.31,-284.552,-22.499
62.35,-285.57,-22.086
62.38,-285.464,-21.869
62.41,-286.552,-22.556
62.44,-287.219,-22.006
62.48,-286.798,-21.777
62.51,-287.781,-22.419
62.54,-288.272,-21.892
62.58,-287.465,-21.582
62.61,-288.202,-22.27
62.64,-288.062,-21.651
62.67,-286.658,-21.365
62.71,-286.903,-22.029
62.74,-286.237,-21.273
62.77,-284.622,-21.193
62.8,-284.973,-21.96
62.84,-284.412,-21.124
62.87,-282.938,-21.216
62.9,-283.253,-21.926
62.93,-282.13,-20.883
62.97,-280.305,-20.998
63.0,-280.095,-21.571
63.03,-278.41,-20.54
63.06,-276.585,-20.861
63.1,-276.27,-21.261
63.13,-274.55,-20.402
63.16,-272.655,-20.78
63.19,-272.163,-21.078
63.23,-270.374,-20.208
63.26,-268.408,-20.654
63.29,-268.022,-20.906
63.32,-266.302,-20.127
63.36,-264.828,-20.551
63.39,-264.478,-20.815
63.42,-262.758,-20.013
63.45,-261.038,-20.345
63.49,-260.477,-20.528
63.52,-258.406,-19.612
63.55,-256.476,-20.047
63.58,-255.844,-20.196
63.62,-253.528,-19.234
63.65,-251.738,-19.726
63.68,-251.001,-19.807
63.71,-248.685,-18.902
63.75,-246.93,-19.486
63.78,-246.123,-19.52
63.81,-243.947,-18.661
63.84,-242.122,-19.291
63.88,-241.28,-19.154
63.91,-238.998,-18.295
63.94,-237.384,-18.833
63.98,-236.086,-18.627
64.01,-233.559,-17.882
64.04,-231.628,-18.363
64.07,-230.225,-18.088
64.11,-228.014,-17.538
64.14,-226.329,-18.031
64.17,-225.066,-17.733
64.2,-222.89,-17.195
64.24,-221.1,-17.561
64.27,-219.626,-17.264
64.3,-217.52,-16.794
64.33,-215.8,-17.011
64.37,-214.186,-16.748
64.4,-212.151,-16.324
64.43,-210.255,-16.416
64.46,-208.395,-16.164
64.5,-205.974,-15.751
64.53,-203.622,-15.74
64.56,-201.552,-15.568
64.59,-199.271,-15.133
64.63,-197.025,-15.098
64.66,-194.954,-15.087
64.69,-192.673,-14.606
64.72,-190.216,-14.468
64.76,-187.97,-14.468
64.79,-185.338,-13.93
64.82,-182.565,-13.781
64.85,-180.179,-13.758
64.89,-177.371,-13.208
64.92,-174.423,-13.014
64.95,-171.791,-13.014
64.98,-168.843,-12.487
65.02,-165.825,-12.303
65.05,-163.158,-12.315
65.08,-160.21,-11.788
65.11,-157.507,-11.696
65.15,-155.191,-11.776
65.18,-152.664,-11.215
65.21,-150.172,-11.146
65.24,-147.786,-11.146
65.28,-145.259,-10.596
65.31,-142.557,-10.505
65.34,-140.17,-10.402
65.37,-137.292,-9.772
65.41,-134.169,-9.611
65.44,-131.256,-9.554
65.47,-127.676,-8.867
65.51,-123.956,-8.615
65.54,-121.078,-8.718
65.57,-117.288,-7.939
65.6,-113.498,-7.721
65.64,-110.55,-8.03
65.67,-106.97,-7.102
65.7,-103.285,-6.976
65.73,-99.881,-7.171
65.77,-96.617,-6.438
65.8,-93.002,-6.243
65.83,-89.107,-6.094
65.86,-85.422,-5.648
65.9,-81.526,-5.441
65.93,-77.806,-5.178
65.96,-73.454,-4.651
65.99,-69.664,-4.605
66.03,-66.751,-4.639
66.06,-63.031,-3.849
66.09,-59.662,-3.906
66.12,-56.96,-4.078
66.16,-53.941,-3.253
66.19,-50.502,-3.23
66.22,-47.308,-3.127
66.25,-44.044,-2.566
66.29,-40.57,-2.417
66.32,-36.92,-2.131
66.35,-33.06,-1.661
66.38,-29.024,-1.432
66.42,-24.988,-1.191
66.45,-21.127,-0.79
66.48,-17.197,-0.63
66.51,-13.547,-0.424
66.55,-9.792,-0.137
66.58,-6.107,0.046
66.61,-2.386,0.229
66.64,1.193,0.321
66.68,4.422,0.309
66.71,6.703,0.241
66.74,8.318,0.332
66.77,10.178,0.745
66.81,13.266,1.352
66.84,17.583,1.947
66.87,22.777,2.52
66.91,27.269,2.978
66.94,30.989,3.07
66.97,34.534,3.334
67.0,37.727,3.803
67.04,41.096,3.826
67.07,43.623,3.872
67.1,46.361,4.239
67.13,48.923,4.41
67.17,51.59,4.513
67.2,54.292,4.937
67.23,57.31,5.144
67.26,60.75,5.556
67.3,64.189,5.9
67.33,67.664,6.071
67.36,71.349,6.621
67.39,75.034,6.816
67.43,78.648,7.068
67.46,81.982,7.423
67.49,85.492,7.652
67.52,88.931,7.996
67.56,92.336,8.225
67.59,95.67,8.466
67.62,99.004,8.786
67.65,102.478,9.038
67.69,105.637,9.29
67.72,108.655,9.462
67.75,112.129,9.932
67.78,115.604,10.104
67.82,118.692,10.23
67.85,121.886,10.734
67.88,125.079,10.894
67.91,128.062,10.997
67.95,131.116,11.49
67.98,134.344,11.662
68.01,137.257,11.799
68.04,140.381,12.269
68.08,143.469,12.418
68.11,146.242,12.544
68.14,149.014,12.865
68.17,151.682,13.082
68.21,154.279,13.208
68.24,157.086,13.598
68.27,159.824,13.758
68.31,162.35,13.873
68.34,164.948,14.274
68.37,167.369,14.365
68.4,169.44,14.411
68.44,172.107,14.938
68.47,174.774,15.087
68.5,177.371,15.167
68.53,180.6,15.889
68.57,183.934,15.946
68.6,186.707,16.003
68.63,190.111,16.691
68.66,192.989,16.553
68.7,195.164,16.565
68.73,197.902,17.16
68.76,200.043,16.931
68.79,201.622,16.897
68.83,203.868,17.47
68.86,205.588,17.183
68.89,206.781,17.252
68.92,208.852,17.894
68.96,210.291,17.493
68.99,211.484,17.733
69.02,213.905,18.558
69.05,215.8,18.042
69.09,217.485,18.409
69.12,220.363,19.188
69.15,222.293,18.65
69.18,223.697,19.028
69.22,226.505,19.681
69.25,228.154,19.085
69.28,229.839,19.509
69.31,232.822,20.185
69.35,234.576,19.44
69.38,236.121,19.967
69.41,238.928,20.62
69.44,240.227,19.704
69.48,241.315,20.242
69.51,244.017,20.849
69.54,244.965,19.887
69.57,245.982,20.505
69.61,248.685,21.101
69.64,249.457,20.139
69.67,250.615,20.918
69.71,253.247,21.422
69.74,253.809,20.402
69.77,255.072,21.227
69.8,257.669,21.674
69.84,258.371,20.689
69.87,259.669,21.628
69.9,262.056,21.834
69.93,262.582,20.906
69.97,263.6,21.846
70.0,265.25,21.766
70.03,265.53,21.067
70.06,266.899,22.063
70.1,268.829,21.88
70.13,269.426,21.433
70.16,271.075,22.292
70.19,272.725,22.006
70.23,273.216,21.754
70.26,274.69,22.373
70.29,276.199,22.109
70.32,276.796,21.834
70.36,278.481,22.487
70.39,280.06,22.166
70.42,280.341,21.926
70.45,281.744,22.545
70.49,282.727,22.109
70.52,282.516,21.754
70.55,283.359,22.35
70.58,284.131,21.96
70.62,283.92,21.731
70.65,284.833,22.338
70.68,285.394,21.903
70.71,285.114,21.8
70.75,286.061,22.304
70.78,286.482,21.846
70.81,286.201,21.846
70.84,287.219,22.327
70.88,287.816,21.96
70.91,287.781,21.903
70.94,288.799,22.361
70.97,289.36,21.995
71.01,288.763,21.754
71.04,288.799,22.018
71.07,288.483,21.628
71.11,287.184,21.284
71.14,286.447,21.525
71.17,285.605,21.227
71.2,283.92,20.918
71.24,282.516,21.158
71.27,281.183,20.861
71.3,279.077,20.677
71.33,277.533,20.883
71.37,276.375,20.746
71.4,274.831,20.677
71.43,273.672,20.906
71.46,272.935,20.906
71.5,271.497,20.78
71.53,270.584,20.987
71.56,269.672,20.906
71.59,268.198,20.597
71.63,267.075,20.838
71.66,266.373,20.78
71.69,264.864,20.334
71.72,263.741,20.723
71.76,263.039,20.574
71.79,261.214,20.059
71.82,260.126,20.471
71.85,259.283,20.265
71.89,257.178,19.681
71.92,255.879,20.173
71.95,255.037,19.978
71.98,252.826,19.268
72.02,251.247,19.772
72.05,250.089,19.532
72.08,247.456,18.753
72.11,245.667,19.394
72.15,244.579,19.188
72.18,241.911,18.317
72.21,240.086,19.085
72.24,238.998,18.902
72.28,236.401,17.974
72.31,234.576,18.741
72.34,233.418,18.478
72.37,230.891,17.619
72.41,229.347,18.409
72.44,228.294,18.042
72.47,226.118,17.367
72.51,224.96,18.134
72.54,223.943,17.619
72.57,221.626,17.034
72.6,220.363,17.756
72.64,218.854,17.034
72.67,216.292,16.496
72.7,214.818,17.092
72.73,213.063,16.301
72.77,210.361,15.889
72.8,208.571,16.507
72.83,206.5,15.637
72.86,203.412,15.247
72.9,201.552,15.912
72.93,199.376,14.961
72.96,196.463,14.686
72.99,194.884,15.339
73.03,192.883,14.423
73.06,190.181,14.251
73.09,188.496,14.743
73.12,186.11,13.85
73.16,183.232,13.598
73.19,181.197,14.022
73.22,178.6,13.094
73.25,175.546,12.933
73.29,173.335,13.22
73.32,170.352,12.292
73.35,167.053,12.212
73.38,164.526,12.395
73.42,161.508,11.513
73.45,158.385,11.547
73.48,156.104,11.708
73.51,153.366,10.94
73.55,150.558,10.952
73.58,148.137,11.02
73.61,145.329,10.333
73.64,142.416,10.253
73.68,139.749,10.23
73.71,136.31,9.451
73.74,132.765,9.382
73.77,129.817,9.405
73.81,126.237,8.603
73.84,122.833,8.569
73.87,120.306,8.763
73.9,116.762,7.767
73.94,113.077,7.755
73.97,110.445,8.088
74.0,107.391,7.091
74.04,103.917,7.022
74.07,100.899,7.194
74.1,97.845,6.461
74.13,94.125,6.186
74.17,90.195,6.003
74.2,86.229,5.579
74.23,82.193,5.304
74.26,78.157,5.018
74.3,73.84,4.617
74.33,70.05,4.422
74.36,66.962,4.399
74.39,63.557,3.929
74.43,60.118,3.746
74.46,57.346,3.803
74.49,54.538,3.356
74.52,51.414,3.116
74.56,48.361,3.059
74.59,45.238,2.623
74.62,41.833,2.303
74.65,38.219,2.096
74.69,34.288,1.65
74.72,30.182,1.34
74.75,26.111,1.1
74.78,21.899,0.733
74.82,17.653,0.447
74.85,13.547,0.275
74.88,9.476,0.069
74.91,5.58,-0.08
74.95,1.93,-0.183
74.98,-1.614,-0.252
75.01,-4.562,-0.183
75.04,-6.387,-0.126
75.08,-7.721,-0.263
75.11,-9.511,-0.699
75.14,-12.634,-1.283
75.17,-16.916,-1.833
75.21,-21.829,-2.406
75.24,-26.532,-2.898
75.27,-30.042,-2.99
75.3,-33.376,-3.253
75.34,-36.674,-3.46
75.37,-39.763,-3.551
75.4,-42.465,-3.826
75.44,-44.887,-3.883
75.47,-47.308,-4.135
75.5,-50.151,-4.582
75.53,-53.38,-4.777
75.57,-56.644,-5.086
75.6,-60.469,-5.59
75.63,-64.926,-6.014
75.66,-68.716,-6.163
75.7,-72.261,-6.495
75.73,-76.086,-7.034
75.76,-79.771,-7.057
75.79,-83.07,-7.263
75.83,-86.159,-7.664
75.86,-89.598,-7.824
75.89,-92.757,-8.076
75.92,-95.529,-8.248
75.96,-98.372,-8.523
75.99,-101.53,-8.89
76.02,-104.724,-9.084
76.05,-107.462,-9.21
76.09,-110.831,-9.772
76.12,-114.761,-10.207
76.15,-117.604,-9.955
76.18,-120.868,-10.562
76.22,-124.728,-11.238
76.25,-127.747,-10.711
76.28,-130.8,-11.375
76.31,-134.59,-12.074
76.35,-137.679,-11.559
76.38,-140.872,-12.223
76.41,-144.206,-12.693
76.44,-146.909,-12.28
76.48,-149.611,-12.956
76.51,-152.594,-13.197
76.54,-154.98,-12.945
76.57,-157.613,-13.632
76.61,-160.49,-13.77
76.64,-162.807,-13.609
76.67,-165.649,-14.365
76.7,-168.211,-14.319
76.74,-170.317,-14.297
76.77,-173.055,-15.064
76.8,-175.652,-14.927
76.84,-177.898,-15.007
76.87,-181.021,-15.809
76.9,-183.969,-15.694
76.93,-186.496,-15.832
76.97,-189.935,-16.565
77.0,-192.848,-16.393
77.03,-195.094,-16.496
77.06,-198.077,-17.16
77.1,-200.464,-16.759
77.13,-202.148,-16.954
77.16,-204.57,-17.573
77.19,-206.36,-17.069
77.23,-207.658,-17.252
77.26,-209.764,-17.825
77.29,-211.343,-17.412
77.32,-212.537,-17.733
77.36,-214.642,-18.329
77.39,-216.432,-17.939
77.42,-217.941,-18.34
77.45,-220.503,-18.902
77.49,-222.469,-18.558
77.52,-224.258,-19.028
77.55,-226.785,-19.474
77.58,-228.54,-19.028
77.62,-230.084,-19.417
77.65,-232.506,-19.91
77.68,-234.085,-19.406
77.71,-235.454,-19.761
77.75,-237.63,-20.173
77.78,-239.139,-19.658
77.81,-240.227,-20.093
77.84,-242.332,-20.528
77.88,-243.842,-20.001
77.91,-245.21,-20.483
77.94,-247.632,-20.918
77.97,-249.281,-20.528
78.01,-250.685,-20.895
78.04,-252.861,-21.17
78.07,-254.3,-20.861
78.1,-255.563,-21.113
78.14,-257.458,-21.342
78.17,-258.827,-21.147
78.2,-260.161,-21.33
78.24,-261.845,-21.502
78.27,-262.933,-21.273
78.3,-263.811,-21.388
78.33,-264.969,-21.582
78.37,-265.952,-21.41
78.4,-266.934,-21.525
78.43,-268.443,-21.823
78.46,-269.601,-21.72
78.5,-270.654,-21.8
78.53,-272.128,-22.018
78.56,-273.286,-21.914
78.59,-274.304,-21.96
78.63,-275.568,-22.212
78.66,-276.796,-22.098
78.69,-277.603,-21.995
78.72,-279.007,-22.315
78.76,-280.06,-22.166
78.79,-280.446,-21.914
78.82,-281.323,-22.224
78.85,-281.885,-21.96
78.89,-281.674,-21.72
78.92,-282.411,-22.212
78.95,-282.867,-21.834
78.98,-282.692,-21.754
79.02,-283.569,-22.292
79.05,-284.236,-21.949
79.08,-284.201,-21.926
79.11,-285.359,-22.453
79.15,-285.675,-21.96
79.18,-285.57,-21.983
79.21,-286.728,-22.51
79.24,-286.938,-21.846
79.28,-286.412,-21.903
79.31,-287.325,-22.373
79.34,-286.938,-21.662
79.37,-285.991,-21.594
79.41,-286.447,-22.121
79.44,-285.886,-21.388
79.47,-284.798,-21.456
79.5,-285.149,-21.995
79.54,-284.166,-21.17
79.57,-282.762,-21.284
79.6,-282.727,-21.766
79.64,-281.183,-20.735
79.67,-279.323,-21.009
79.7,-278.902,-21.456
79.73,-277.077,-20.437
79.77,-275.357,-20.883
79.8,-274.901,-21.273
79.83,-273.146,-20.357
79.86,-271.426,-20.883
79.9,-270.724,-21.009
79.93,-268.654,-20.185
79.96,-267.285,-20.815
79.99,-266.899,-20.849
80.03,-265.109,-20.139
80.06,-264.127,-20.746
80.09,-263.67,-20.735
80.12,-261.53,-19.921
80.16,-260.231,-20.494
80.19,-259.599,-20.402
80.22,-257.248,-19.532
80.25,-255.739,-20.196
80.29,-255.142,-20.116
80.32,-252.65,-19.177
80.35,-251.071,-19.875
80.38,-250.124,-19.646
80.42,-247.281,-18.741
80.45,-245.561,-19.532
80.48,-244.368,-19.222
80.51,-241.701,-18.421
80.55,-240.121,-19.234
80.58,-239.069,-18.913
80.61,-236.612,-18.157
80.64,-234.962,-18.902
80.68,-233.839,-18.501
80.71,-231.523,-17.905
80.74,-230.26,-18.558
80.77,-229.137,-18.123
80.81,-227.101,-17.722
80.84,-225.908,-18.226
80.87,-224.469,-17.607
80.9,-222.083,-17.275
80.94,-220.398,-17.642
80.97,-218.468,-16.931
81.0,-215.765,-16.668
81.04,-214.011,-16.943
81.07,-211.975,-16.301
81.1,-209.378,-16.152
81.13,-207.413,-16.336
81.17,-205.096,-15.797
81.2,-202.57,-15.591
81.23,-200.429,-15.683
81.26,-198.253,-15.236
81.3,-195.866,-15.121
81.33,-194.147,-15.213
81.36,-192.111,-14.801
81.39,-189.83,-14.663
81.43,-187.794,-14.629
81.46,-185.373,-14.171
81.49,-182.741,-13.918
81.52,-180.354,-13.815
81.56,-177.652,-13.426
81.59,-174.809,-13.231
81.62,-172.247,-13.082
81.65,-169.44,-12.704
81.69,-166.492,-12.475
81.72,-163.754,-12.383
81.75,-160.947,-12.028
81.78,-158.279,-11.822
81.82,-155.682,-11.742
81.85,-153.015,-11.375
81.88,-150.172,-11.192
81.91,-147.47,-10.974
81.95,-144.768,-10.734
81.98,-141.82,-10.413
82.01,-138.802,-10.184
82.04,-135.678,-9.909
82.08,-132.309,-9.565
82.11,-129.08,-9.359
82.14,-126.202,-9.153
82.17,-123.009,-8.809
82.21,-120.061,-8.66
82.24,-117.429,-8.58
82.27,-114.305,-8.053
82.3,-111.392,-7.985
82.34,-108.549,-7.847
82.37,-105.251,-7.206
82.4,-101.741,-7.137
82.43,-98.126,-6.805
82.47,-94.231,-6.232
82.5,-89.984,-6.083
82.53,-85.703,-5.716
82.57,-81.245,-5.292
82.6,-77.069,-5.121
82.63,-73.103,-4.914
82.66,-68.752,-4.399
82.7,-65.031,-4.387
82.73,-61.873,-4.365
82.76,-58.574,-3.78
82.79,-55.556,-3.883
82.83,-52.853,-3.757
82.86,-50.046,-3.288
82.89,-47.028,-3.208
82.92,-43.869,-2.875
82.96,-40.64,-2.543
82.99,-37.411,-2.36
83.02,-33.972,-1.959
83.05,-30.357,-1.627
83.09,-26.497,-1.386
83.12,-22.566,-1.008
83.15,-18.53,-0.676
83.18,-14.529,-0.504
83.22,-10.564,-0.206
83.25,-6.563,0.046
83.28,-2.562,0.229
83.31,1.544,0.389
83.35,5.089,0.332
83.38,7.405,0.172
83.41,8.809,0.309
83.44,10.458,0.733
83.48,13.406,1.34
83.51,17.548,1.959
83.54,22.707,2.532
83.57,27.269,2.91
83.61,30.849,2.875
83.64,34.148,3.219
83.67,37.517,3.735
83.7,40.956,3.62
83.74,43.834,3.815
83.77,46.326,4.124
83.8,48.958,4.239
83.83,51.45,4.491
83.87,54.257,4.766
83.9,57.03,5.029
83.93,60.188,5.338
83.97,64.014,5.888
84.0,67.348,5.968
84.03,70.717,6.22
84.06,74.367,6.919
84.1,77.911,6.896
84.13,81.351,7.148
84.16,84.72,7.698
84.19,88.615,7.881
84.23,92.125,8.133
84.26,95.389,8.408
84.29,98.828,8.706
84.32,102.303,9.004
84.36,105.672,9.199
84.39,108.725,9.451
84.42,112.164,9.84
84.45,115.674,10.127
84.49,118.517,10.115
84.52,121.605,10.654
84.55,124.939,10.952
84.58,127.641,10.768
84.62,130.554,11.387
84.65,133.607,11.604
84.68,136.45,11.559
84.71,139.644,12.223
84.75,143.048,12.418
84.78,146.452,12.567
84.81,149.927,13.014
84.84,153.261,13.231
84.88,156.174,13.403
84.91,159.157,13.655
84.94,161.789,13.804
84.97,164.246,13.987
85.01,166.527,14.171
85.04,168.668,14.251
85.07,170.738,14.423
85.1,172.809,14.617
85.14,174.844,14.812
85.17,177.02,15.098
85.2,179.512,15.305
85.23,182.214,15.66
85.27,185.197,15.98
85.3,188.216,16.21
85.33,191.269,16.576
85.37,194.322,16.771
85.4,196.989,16.851
85.43,199.622,17.218
85.46,202.113,17.252
85.5,204.184,17.241
85.53,206.57,17.63
85.56,208.43,17.527
85.59,209.764,17.504
85.63,211.414,17.894
85.66,212.817,17.836
85.69,214.116,17.905
85.72,216.151,18.386
85.76,218.047,18.329
85.79,219.872,18.592
85.82,222.258,19.119
85.85,224.223,18.913
85.89,226.048,19.291
85.92,228.61,19.669
85.95,230.47,19.394
85.98,232.26,19.772
86.02,234.787,20.127
86.05,236.401,19.772
86.08,237.84,20.036
86.11,239.981,20.414
86.15,241.209,19.944
86.18,242.403,20.311
86.21,244.614,20.746
86.24,245.947,20.311
86.28,247.421,20.723
86.31,249.738,21.158
86.34,251.001,20.666
86.37,252.299,20.964
86.41,254.405,21.376
86.44,255.563,20.895
86.47,257.037,21.307
86.5,258.968,21.582
86.54,260.091,21.124
86.57,261.494,21.617
86.6,263.179,21.72
86.63,263.811,21.216
86.67,264.899,21.788
86.7,266.443,21.766
86.73,267.11,21.399
86.77,268.689,22.086
86.8,270.303,21.926
86.83,270.935,21.651
86.86,272.339,22.235
86.9,273.567,22.018
86.93,274.023,21.88
86.96,275.568,22.407
86.99,277.042,22.075
87.03,277.779,22.052
87.06,279.533,22.567
87.09,280.762,22.212
87.12,281.218,22.121
87.16,282.411,22.567
87.19,283.078,22.052
87.22,282.973,21.949
87.25,284.061,22.476
87.29,284.587,21.88
87.32,284.622,21.88
87.35,285.675,22.43
87.38,285.956,21.892
87.42,285.921,22.006
87.45,286.763,22.373
87.48,286.728,21.8
87.51,286.658,22.006
87.55,287.816,22.43
87.58,287.781,21.766
87.61,287.5,21.995
87.64,287.921,22.27
87.68,287.079,21.502
87.71,286.237,21.697
87.74,286.096,21.834
87.77,284.798,21.158
87.81,283.815,21.514
87.84,283.429,21.617
87.87,282.166,21.032
87.9,281.113,21.479
87.94,280.762,21.525
87.97,279.323,20.929
88.0,278.165,21.388
88.03,277.708,21.365
88.07,276.62,20.941
88.1,275.743,21.319
88.13,275.146,21.181
88.17,273.848,20.918
88.2,272.725,21.158
88.23,271.602,20.883
88.26,269.987,20.712
88.3,268.9,20.769
88.33,267.566,20.586
88.36,266.232,20.505
88.39,265.074,20.528
88.43,263.565,20.379
88.46,261.986,20.265
88.49,260.477,20.322
88.52,258.827,20.07
88.56,257.108,19.944
88.59,255.458,19.978
88.62,253.738,19.784
88.65,252.159,19.669
88.69,250.439,19.635
88.72,248.685,19.463
88.75,246.965,19.44
88.78,245.14,19.314
88.82,243.21,19.096
88.85,241.56,19.119
88.88,239.735,18.959
88.91,237.875,18.799
88.95,236.401,18.833
88.98,234.612,18.547
89.01,232.787,18.432
89.04,231.348,18.501
89.08,229.768,18.191
89.11,228.294,18.157
89.14,227.136,18.203
89.17,225.522,17.802
89.21,223.802,17.79
89.24,222.258,17.664
89.27,220.152,17.172
89.3,218.257,17.241
89.34,216.502,16.989
89.37,214.186,16.519
89.4,212.221,16.668
89.43,210.22,16.381
89.47,207.729,15.912
89.5,205.518,16.106
89.53,203.412,15.751
89.57,200.815,15.328
89.6,198.744,15.58
89.63,196.849,15.213
89.66,194.603,14.869
89.7,192.813,15.11
89.73,190.953,14.675
89.76,188.391,14.239
89.79,186.215,14.434
89.83,183.829,13.941
89.86,181.021,13.506
89.89,178.494,13.655
89.92,175.827,13.105
89.96,172.739,12.761
89.99,169.931,12.887
90.02,167.053,12.315
90.05,163.93,12.028
90.09,161.157,12.154
90.12,158.315,11.616
90.15,155.331,11.387
90.18,152.594,11.501
90.22,149.857,10.963
90.25,147.084,10.825
90.28,144.487,10.791
90.31,141.539,10.241
90.35,138.345,10.092
90.38,135.503,10.001
90.41,132.449,9.416
90.44,129.361,9.29
90.48,126.729,9.336
90.51,123.57,8.66
90.54,120.482,8.546
90.57,117.92,8.706
90.61,114.937,7.939
90.64,111.919,7.859
90.67,109.357,7.916
90.7,106.76,7.263
90.74,104.128,7.24
90.77,101.811,7.194
90.8,99.706,6.793
90.83,97.214,6.53
90.87,94.301,6.209
90.9,91.212,5.911
90.93,87.492,5.487
90.96,83.141,4.972
91.0,78.122,4.491
91.03,72.577,4.044
91.06,66.646,3.494
91.1,60.258,3.001
91.13,54.117,2.795
91.16,48.466,2.497
91.19,43.694,2.36
91.23,39.587,2.314
91.26,36.148,2.154
91.29,33.13,2.154
91.32,30.603,2.154
91.36,28.357,1.959
91.39,26.041,1.776
91.42,23.514,1.604
91.45,20.741,1.306
91.49,17.583,0.997
91.52,14.143,0.687
91.55,10.388,0.344
91.58,6.317,0.069
91.62,2.071,-0.241
91.65,-2.246,-0.389
91.68,-5.896,-0.241
91.71,-8.177,-0.183
91.75,-9.686,-0.389
91.78,-11.546,-0.825
91.81,-14.705,-1.466
91.84,-18.776,-2.016
91.88,-23.514,-2.612
91.91,-27.62,-2.967
91.94,-30.849,-3.024
91.97,-34.218,-3.265
92.01,-37.517,-3.482
92.04,-40.886,-3.792
92.07,-44.115,-3.998
92.1,-47.343,-4.204
92.14,-50.607,-4.536
92.17,-53.976,-4.811
92.2,-57.275,-5.098
92.23,-60.89,-5.396
92.27,-64.645,-5.785
92.3,-68.19,-5.991
92.33,-71.349,-6.186
92.36,-74.577,-6.621
92.4,-77.631,-6.736
92.43,-80.614,-6.988
92.46,-83.597,-7.32
92.5,-86.861,-7.584
92.53,-89.984,-7.824
92.56,-93.143,-8.122
92.59,-96.512,-8.489
92.63,-99.846,-8.729
92.66,-103.04,-8.958
92.69,-106.374,-9.348
92.72,-110.059,-9.623
92.76,-113.533,-9.932
92.79,-116.972,-10.161
92.82,-120.622,-10.505
92.85,-123.886,-10.734
92.89,-126.799,-10.837
92.92,-129.922,-11.226
92.95,-132.906,-11.433
92.98,-135.924,-11.559
93.02,-139.012,-12.005
93.05,-142.101,-12.109
93.08,-144.908,-12.28
93.11,-147.891,-12.739
93.15,-150.383,-12.727
93.18,-151.717,-12.635
93.21,-151.646,-12.555
93.24,-150.629,-12.349
93.28,-149.365,-12.292
93.31,-148.488,-12.361
93.34,-147.856,-12.578
93.37,-148.242,-12.991
93.41,-149.681,-13.472
93.44,-152.383,-14.159
93.47,-156.63,-14.949
93.5,-162.14,-15.751
93.54,-168.597,-16.53
93.57,-175.687,-17.264
93.6,-182.706,-17.79
93.63,-189.233,-18.088
93.67,-195.164,-18.386
93.7,-200.148,-18.306
93.73,-204.008,-18.054
93.76,-206.992,-17.997
93.8,-208.922,-17.538
93.83,-210.045,-17.252
93.86,-210.887,-17.172
93.9,-211.343,-16.931
93.93,-211.589,-17.011
93.96,-212.115,-17.16
93.99,-212.642,-17.16
94.03,-213.625,-17.607
94.06,-215.063,-17.905
94.09,-216.573,-18.031
94.12,-218.643,-18.535
94.16,-220.854,-18.867
94.19,-222.925,-18.947
94.22,-225.417,-19.371
94.25,-227.943,-19.486
94.29,-229.979,-19.486
94.32,-232.471,-19.978
94.35,-234.717,-19.875
94.38,-236.472,-19.852
94.42,-238.718,-20.345
94.45,-240.613,-20.001
94.48,-242.017,-20.127
94.51,-244.228,-20.62
94.55,-246.088,-20.242
94.58,-247.562,-20.505
94.61,-249.808,-20.918
94.64,-251.247,-20.46
94.68,-252.335,-20.746
94.71,-254.265,-21.113
94.74,-255.353,-20.643
94.77,-256.441,-20.929
94.81,-258.16,-21.273
94.84,-259.108,-20.883
94.87,-260.371,-21.284
94.9,-262.056,-21.502
94.94,-262.863,-21.044
94.97,-263.881,-21.559
95.0,-265.285,-21.548
95.03,-265.952,-21.17
95.07,-267.285,-21.834
95.1,-269.04,-21.731
95.13,-269.847,-21.525
95.16,-271.391,-22.098
95.2,-272.76,-21.8
95.23,-273.251,-21.754
95.26,-274.62,-22.189
95.3,-275.778,-21.926
95.33,-276.48,-21.834
95.36,-277.989,-22.327
95.39,-279.253,-22.098
95.43,-279.744,-21.937
95.46,-280.937,-22.35
95.49,-281.709,-21.995
95.52,-281.604,-21.766
95.56,-282.411,-22.235
95.59,-282.832,-21.857
95.62,-282.692,-21.72
95.65,-283.534,-22.258
95.69,-283.815,-21.8
95.72,-283.534,-21.846
95.75,-284.517,-22.281
95.78,-284.341,-21.685
95.82,-284.096,-21.926
95.85,-285.078,-22.247
95.88,-284.903,-21.605
95.91,-284.763,-21.96
95.95,-285.675,-22.235
95.98,-285.429,-21.548
96.01,-285.184,-21.983
96.04,-285.815,-22.086
96.08,-285.254,-21.456
96.11,-285.078,-21.869
96.14,-285.675,-21.869
96.17,-284.973,-21.376
96.21,-284.727,-21.788
96.24,-284.517,-21.605
96.27,-283.043,-21.032
96.3,-281.744,-21.33
96.34,-280.727,-21.055
96.37,-278.691,-20.54
96.4,-277.112,-20.929
96.43,-275.954,-20.78
96.47,-274.129,-20.483
96.5,-272.76,-20.815
96.53,-271.532,-20.586
96.56,-269.812,-20.483
96.6,-268.794,-20.78
96.63,-267.812,-20.517
96.66,-266.618,-20.528
96.7,-265.987,-20.757
96.73,-265.144,-20.494
96.76,-263.951,-20.425
96.79,-263.074,-20.505
96.83,-261.845,-20.219
96.86,-260.301,-20.127
96.89,-259.038,-20.127
96.92,-257.388,-19.761
96.96,-255.739,-19.669
96.99,-254.265,-19.658
97.02,-252.335,-19.291
97.05,-250.194,-19.199
97.09,-248.509,-19.222
97.12,-246.474,-18.925
97.15,-244.508,-18.925
97.18,-242.859,-18.867
97.22,-241.174,-18.673
97.25,-239.49,-18.684
97.28,-237.84,-18.569
97.31,-236.191,-18.501
97.35,-234.682,-18.386
97.38,-232.787,-18.168
97.41,-230.927,-18.042
97.44,-229.137,-17.894
97.48,-227.066,-17.619
97.51,-225.031,-17.527
97.54,-223.065,-17.378
97.57,-220.609,-17.057
97.61,-218.503,-17.046
97.64,-216.537,-16.885
97.67,-214.432,-16.633
97.7,-212.782,-16.679
97.74,-211.168,-16.496
97.77,-209.238,-16.233
97.8,-207.448,-16.324
97.83,-205.588,-15.958
97.87,-203.377,-15.637
97.9,-201.482,-15.774
97.93,-199.481,-15.339
97.96,-197.2,-15.018
98.0,-195.305,-15.156
98.03,-193.164,-14.697
98.06,-190.637,-14.411
98.1,-188.531,-14.537
98.13,-186.11,-13.964
98.16,-183.302,-13.701
98.19,-181.056,-13.804
98.23,-178.319,-13.243
98.26,-175.476,-13.036
98.29,-173.055,-13.117
98.32,-170.071,-12.452
98.36,-167.088,-12.349
98.39,-164.386,-12.383
98.42,-161.473,-11.719
98.45,-158.525,-11.719
98.49,-156.209,-11.765
98.52,-153.612,-11.146
98.55,-150.98,-11.169
98.58,-148.593,-11.066
98.62,-145.54,-10.413
98.65,-142.346,-10.356
98.68,-139.293,-10.173
98.71,-135.678,-9.52
98.75,-132.309,-9.462
98.78,-129.466,-9.394
98.81,-126.027,-8.695
98.84,-122.833,-8.695
98.88,-120.377,-8.878
98.91,-117.148,-7.962
98.94,-114.095,-8.019
98.97,-111.673,-8.282
99.01,-108.795,-7.24
99.04,-105.461,-7.274
99.07,-102.338,-7.274
99.1,-98.969,-6.472
99.14,-94.757,-6.266
99.17,-90.44,-5.968
99.2,-86.089,-5.476
99.23,-81.667,-5.258
99.27,-77.42,-5.006
99.3,-72.823,-4.536
99.33,-69.067,-4.536
99.36,-65.698,-4.433
99.4,-62.013,-3.792
99.43,-58.644,-3.929
99.46,-55.591,-3.826
99.49,-52.608,-3.288
99.53,-49.344,-3.276
99.56,-46.466,-3.082
99.59,-43.588,-2.749
99.63,-40.781,-2.589
99.66,-37.903,-2.291
99.69,-34.814,-2.005
99.72,-31.586,-1.741
99.76,-28.076,-1.352
99.79,-24.146,-0.997
99.82,-20.074,-0.745
99.85,-15.933,-0.367
99.89,-11.581,-0.103
99.92,-7.265,0.172
99.95,-2.808,0.458
99.98,1.614,0.55
100.02,5.51,0.481
100.05,8.072,0.344
100.08,9.581,0.412
100.11,11.09,0.859
100.15,13.968,1.524
100.18,18.214,2.165
100.21,23.549,2.784
100.24,28.146,3.036
100.28,31.902,3.036
100.31,35.376,3.471
100.34,38.78,3.769
100.37,41.833,3.643
100.41,44.395,3.929
100.44,47.098,4.193
100.47,49.379,4.204
100.5,51.801,4.536
100.54,54.398,4.846
100.57,57.24,5.075
100.6,60.504,5.453
100.63,63.803,5.785
100.67,67.313,6.094
100.7,70.892,6.507
100.73,74.683,6.862
100.76,78.438,7.08
100.8,82.123,7.423
100.83,85.808,7.801
100.86,89.317,8.007
100.89,92.792,8.259
100.93,96.056,8.569
100.96,99.249,8.763
100.99,102.373,9.027
101.03,105.566,9.256
101.06,108.585,9.474
101.09,111.954,9.875
101.12,115.393,10.138
101.16,118.376,10.218
101.19,121.64,10.654
101.22,125.009,11.032
101.25,127.852,10.94
101.29,130.73,11.375
101.32,133.923,11.845
101.35,136.766,11.696
101.38,139.749,12.154
101.42,142.978,12.567
101.45,145.856,12.406
101.48,148.663,12.887
101.51,151.611,13.288
101.55,154.243,13.128
101.58,156.911,13.575
101.61,159.648,13.827
101.64,162.14,13.781
101.68,164.737,14.319
101.71,167.404,14.434
101.74,169.72,14.457
101.77,172.353,15.064
101.81,174.915,15.075
101.84,177.406,15.167
101.87,180.53,15.877
101.9,183.513,15.866
101.94,186.25,15.958
101.97,189.514,16.702
102.0,192.287,16.519
102.03,194.673,16.668
102.07,197.691,17.286
102.1,200.008,16.92
102.13,201.973,17.103
102.16,204.5,17.699
102.2,206.29,17.195
102.23,207.729,17.412
102.26,209.834,17.997
102.29,211.203,17.47
102.33,212.431,17.882
102.36,214.713,18.398
102.39,216.187,17.939
102.43,217.976,18.512
102.46,220.644,19.073
102.49,222.363,18.569
102.52,224.118,19.119
102.56,226.82,19.623
102.59,228.294,19.039
102.62,229.979,19.623
102.65,232.646,20.07
102.69,233.839,19.383
102.72,235.349,20.036
102.75,237.875,20.414
102.78,238.788,19.612
102.82,240.262,20.402
102.85,242.859,20.712
102.88,243.736,19.956
102.91,245.491,20.906
102.95,247.913,21.009
102.98,248.72,20.334
103.01,250.545,21.261
103.04,252.756,21.216
103.08,253.458,20.609
103.11,255.283,21.594
103.14,257.458,21.41
103.17,258.195,20.975
103.21,260.266,21.914
103.24,262.267,21.571
103.27,262.898,21.216
103.3,264.267,21.926
103.34,265.495,21.548
103.37,266.022,21.33
103.4,267.601,22.006
103.43,269.11,21.754
103.47,269.777,21.662
103.5,271.321,22.121
103.53,272.549,21.926
103.56,273.181,21.846
103.6,274.48,22.224
103.63,275.813,22.086
103.66,276.62,21.995
103.69,278.2,22.361
103.73,279.639,22.212
103.76,280.341,22.098
103.79,281.604,22.441
103.83,282.481,22.166
103.86,282.762,21.983
103.89,283.64,22.35
103.92,284.271,22.063
103.96,284.306,21.926
103.99,284.973,22.224
104.02,285.359,22.006
104.05,285.184,21.88
104.09,285.64,22.144
104.12,285.956,21.983
104.15,285.745,21.914
104.18,286.342,22.178
104.22,287.044,22.075
104.25,287.114,21.983
104.28,287.57,22.166
104.31,287.991,22.04
104.35,287.781,21.8
104.38,287.465,21.823
104.41,286.974,21.72
104.44,286.026,21.33
104.48,285.219,21.456
104.51,284.552,21.433
104.54,283.289,21.09
104.57,282.13,21.25
104.61,281.323,21.25
104.64,279.709,20.906
104.67,278.445,21.067
104.7,277.603,21.158
104.74,276.094,20.792
104.77,275.041,21.032
104.8,274.409,21.17
104.83,272.935,20.735
104.87,271.848,21.032
104.9,270.97,21.009
104.93,269.25,20.483
104.96,268.127,20.849
105.0,267.285,20.712
105.03,265.495,20.242
105.06,264.407,20.723
105.09,263.425,20.437
105.13,261.249,19.967
105.16,260.02,20.437
105.19,258.827,20.07
105.23,256.476,19.658
105.26,255.212,20.15
105.29,254.019,19.795
105.32,251.668,19.326
105.36,250.439,19.898
105.39,249.316,19.52
105.42,246.754,18.947
105.45,245.631,19.646
105.49,244.473,19.199
105.52,241.982,18.615
105.55,240.858,19.371
105.58,239.525,18.753
105.62,236.472,18.111
105.65,235.068,18.936
105.68,233.418,18.191
105.71,230.54,17.676
105.75,229.207,18.512
105.78,227.628,17.733
105.81,225.101,17.424
105.84,224.083,18.237
105.88,222.714,17.412
105.91,220.433,17.16
105.94,219.345,17.756
105.97,217.696,16.897
106.01,215.414,16.714
106.04,214.221,17.16
106.07,212.291,16.278
106.1,209.869,16.152
106.14,208.29,16.519
106.17,205.974,15.625
106.2,203.201,15.534
106.23,201.482,15.832
106.27,199.236,14.972
106.3,196.779,14.984
106.33,195.27,15.362
106.36,192.989,14.445
106.4,190.321,14.411
106.43,188.391,14.743
106.46,185.794,13.735
106.49,182.846,13.724
106.53,180.811,14.022
106.56,178.108,13.025
106.59,175.125,13.071
106.63,172.949,13.231
106.66,170.107,12.269
106.69,166.983,12.406
106.72,164.491,12.418
106.76,161.613,11.582
106.79,158.63,11.765
106.82,156.384,11.73
106.85,153.612,11.02
106.89,150.909,11.1
106.92,148.593,11.055
106.95,145.68,10.367
106.98,142.662,10.356
107.02,139.819,10.218
107.05,136.591,9.508
107.08,133.362,9.542
107.11,130.695,9.428
107.15,127.325,8.706
107.18,124.062,8.729
107.21,121.465,8.763
107.24,118.236,7.927
107.28,115.007,7.996
107.31,112.585,8.111
107.34,109.602,7.24
107.37,106.163,7.171
107.41,102.934,7.125
107.44,99.495,6.415
107.47,95.354,6.129
107.5,91.107,5.923
107.54,86.72,5.441
107.57,82.088,5.075
107.6,77.385,4.823
107.63,72.612,4.41
107.67,67.979,4.17
107.7,64.259,4.17
107.73,60.504,3.735
107.76,56.889,3.574
107.8,53.871,3.654
107.83,50.993,3.299
107.86,48.116,3.139
107.89,45.343,3.024
107.93,42.746,2.726
107.96,40.114,2.543
107.99,37.201,2.28
108.02,33.972,1.902
108.06,30.463,1.558
108.09,26.743,1.283
108.12,22.987,0.939
108.16,19.267,0.653
108.19,15.512,0.424
108.22,11.617,0.149
108.25,7.721,-0.069
108.29,3.755,-0.229
108.32,-0.211,-0.355
108.35,-4.036,-0.355
108.38,-6.703,-0.229
108.42,-8.423,-0.263
108.45,-10.178,-0.653
108.48,-13.161,-1.294
108.51,-17.548,-1.925
108.55,-22.952,-2.555
108.58,-27.901,-3.001
108.61,-31.796,-3.093
108.64,-35.657,-3.471
108.68,-39.236,-3.505
108.71,-42.36,-3.677
108.74,-45.097,-3.918
108.77,-47.203,-3.861
108.81,-49.414,-4.147
108.84,-51.695,-4.513
108.87,-54.362,-4.594
108.9,-56.819,-4.892
108.94,-59.943,-5.396
108.97,-63.803,-5.797
109.0,-66.891,-5.854
109.03,-70.506,-6.381
109.07,-74.648,-7.045
109.1,-78.543,-6.919
109.13,-82.158,-7.343
109.16,-85.808,-7.881
109.2,-89.738,-7.962
109.23,-93.143,-8.259
109.26,-96.266,-8.431
109.29,-99.53,-8.729
109.33,-102.794,-9.027
109.36,-105.882,-9.119
109.39,-108.479,-9.302
109.42,-111.813,-9.863
109.46,-115.358,-10.092
109.49,-117.815,-9.875
109.52,-121.254,-10.757
109.56,-124.974,-11.123
109.59,-127.466,-10.516
109.62,-130.414,-11.547
109.65,-133.994,-11.856
109.69,-136.626,-11.352
109.72,-139.714,-12.338
109.75,-143.188,-12.567
109.78,-145.505,-12.086
109.82,-148.242,-13.002
109.85,-150.945,-13.048
109.88,-152.945,-12.727
109.91,-155.121,-13.575
109.95,-157.542,-13.54
109.98,-159.613,-13.46
110.01,-162.21,-14.285
110.04,-164.842,-14.216
110.08,-167.264,-14.354
110.11,-170.493,-15.133
110.14,-173.721,-15.121
110.17,-177.02,-15.476
110.21,-181.197,-16.255
110.24,-185.127,-16.106
110.27,-188.777,-16.473
110.3,-193.024,-17.149
110.34,-196.288,-16.725
110.37,-198.92,-17.034
110.4,-201.973,-17.378
110.43,-203.938,-16.84
110.47,-205.553,-17.103
110.5,-207.553,-17.367
110.53,-208.536,-16.863
110.56,-209.167,-17.149
110.6,-210.361,-17.447
110.63,-210.922,-17.103
110.66,-211.624,-17.458
110.69,-213.168,-17.882
110.73,-214.362,-17.768
110.76,-215.941,-18.237
110.79,-218.222,-18.684
110.82,-220.222,-18.661
110.86,-222.433,-19.016
110.89,-225.171,-19.463
110.92,-227.382,-19.429
110.96,-229.488,-19.6
110.99,-232.155,-20.07
111.02,-234.225,-19.818
111.05,-236.086,-20.047
111.09,-238.437,-20.334
111.12,-240.086,-20.013
111.15,-241.385,-20.23
111.18,-243.245,-20.494
111.22,-244.543,-20.173
111.25,-245.526,-20.322
111.28,-247.281,-20.712
111.31,-248.65,-20.494
111.35,-249.702,-20.62
111.38,-251.492,-21.055
111.41,-252.966,-20.872
111.44,-254.195,-20.998
111.48,-256.195,-21.456
111.51,-257.915,-21.284
111.54,-259.319,-21.433
111.57,-261.284,-21.72
111.61,-262.723,-21.502
111.64,-263.6,-21.502
111.67,-264.899,-21.766
111.7,-265.987,-21.594
111.74,-266.934,-21.605
111.77,-268.654,-21.983
111.8,-269.882,-21.777
111.83,-270.865,-21.823
111.87,-272.409,-22.189
111.9,-273.322,-21.903
111.93,-273.953,-21.914
111.96,-275.638,-22.384
112.0,-276.796,-22.029
112.03,-277.498,-22.052
112.06,-279.288,-22.533
112.09,-280.13,-22.04
112.13,-280.27,-22.006
112.16,-281.604,-22.51
112.19,-281.85,-21.823
112.22,-281.604,-21.892
112.26,-283.078,-22.579
112.29,-283.394,-21.754
112.32,-283.183,-21.972
112.36,-284.657,-22.636
112.39,-284.763,-21.766
112.42,-284.833,-22.166
112.45,-286.342,-22.682
112.49,-286.342,-21.788
112.52,-286.447,-22.235
112.55,-288.062,-22.705
112.58,-287.851,-21.731
112.62,-287.64,-22.189
112.65,-288.904,-22.613
112.68,-288.026,-21.456
112.71,-287.254,-21.834
112.75,-287.991,-22.247
112.78,-286.658,-21.113
112.81,-285.64,-21.662
112.84,-286.131,-21.983
112.88,-284.131,-20.712
112.91,-282.587,-21.491
112.94,-282.587,-21.674
112.97,-280.095,-20.322
113.01,-278.375,-21.307
113.04,-278.2,-21.342
113.07,-275.954,-20.322
113.1,-274.831,-21.33
113.14,-274.48,-21.147
113.17,-272.304,-20.414
113.2,-271.356,-21.365
113.23,-270.619,-20.918
113.27,-268.338,-20.368
113.3,-267.601,-21.261
113.33,-266.864,-20.654
113.36,-264.653,-20.311
113.4,-263.951,-21.044
113.43,-262.968,-20.357
113.46,-260.406,-20.013
113.49,-259.424,-20.735
113.53,-258.125,-20.013
113.56,-255.493,-19.612
113.59,-254.686,-20.437
113.62,-253.528,-19.738
113.66,-250.896,-19.348
113.69,-249.948,-20.242
113.72,-248.685,-19.452
113.76,-245.947,-19.039
113.79,-245.0,-19.944
113.82,-243.771,-19.108
113.85,-241.104,-18.73
113.89,-240.157,-19.623
113.92,-238.893,-18.753
113.95,-236.366,-18.386
113.98,-235.243,-19.177
114.02,-233.629,-18.295
114.05,-230.891,-18.02
114.08,-229.417,-18.661
114.11,-227.698,-17.779
114.15,-225.206,-17.63
114.18,-224.013,-18.237
114.21,-222.469,-17.458
114.24,-220.258,-17.344
114.28,-219.099,-17.802
114.31,-217.555,-17.057
114.34,-215.52,-16.966
114.37,-214.291,-17.275
114.41,-212.502,-16.553
114.44,-210.22,-16.439
114.47,-208.43,-16.53
114.5,-206.079,-15.854
114.54,-203.307,-15.66
114.57,-201.166,-15.774
114.6,-198.779,-15.247
114.63,-196.323,-15.075
114.67,-194.392,-15.247
114.7,-192.287,-14.801
114.73,-189.865,-14.594
114.76,-187.724,-14.617
114.8,-185.233,-14.148
114.83,-182.425,-13.941
114.86,-180.038,-13.873
114.89,-177.441,-13.46
114.93,-174.634,-13.266
114.96,-172.142,-13.174
114.99,-169.44,-12.773
115.02,-166.492,-12.521
115.06,-163.824,-12.487
115.09,-161.157,-12.063
115.12,-158.315,-11.879
115.16,-155.893,-11.856
115.19,-153.366,-11.456
115.22,-150.453,-11.204
115.25,-147.926,-11.146
115.29,-145.154,-10.699
115.32,-141.96,-10.379
115.35,-139.153,-10.379
115.38,-136.169,-9.909
115.42,-132.66,-9.485
115.45,-129.782,-9.6
115.48,-126.834,-9.187
115.51,-122.903,-8.534
115.55,-119.885,-8.844
115.58,-117.113,-8.523
115.61,-113.358,-7.664
115.64,-110.199,-8.099
115.68,-107.321,-7.778
115.71,-104.022,-7.022
115.74,-100.478,-7.217
115.77,-97.214,-6.816
115.81,-93.669,-6.323
115.84,-89.738,-6.22
115.87,-85.773,-5.785
115.9,-81.596,-5.418
115.94,-77.982,-5.327
115.97,-74.016,-4.949
116.0,-69.594,-4.433
116.03,-66.505,-4.766
116.07,-63.382,-4.353
116.1,-59.837,-3.677
116.13,-56.749,-4.124
116.16,-53.836,-3.654
116.2,-50.642,-3.116
116.23,-47.063,-3.219
116.26,-43.869,-2.772
116.29,-40.289,-2.44
116.33,-36.604,-2.222
116.36,-32.814,-1.81
116.39,-28.848,-1.512
116.42,-24.918,-1.317
116.46,-21.057,-0.997
116.49,-17.407,-0.733
116.52,-13.722,-0.573
116.55,-10.037,-0.252
116.59,-6.422,-0.069
116.62,-2.773,0.126
116.65,0.877,0.286
