Trigger_Date,2023/06/15
Trigger_Time,T 16:40:28.998 PDT
Samples_Per_Cycle,512
Microseconds_Per_Sample,32.553
Time (ms),Voltage (V),Current (A)
-16.67,-5.229,-0.389
-16.63,-8.739,-0.435
-16.6,-11.722,-0.596
-16.57,-14.143,-0.916
-16.54,-16.846,-1.363
-16.5,-19.829,-1.959
-16.47,-23.619,-2.486
-16.44,-27.55,-2.818
-16.41,-31.445,-3.047
-16.37,-35.516,-3.127
-16.34,-38.535,-3.414
-16.31,-41.869,-3.723
-16.28,-45.308,-3.998
-16.24,-48.958,-4.342
-16.21,-52.888,-4.582
-16.18,-56.538,-4.857
-16.15,-59.978,-5.121
-16.11,-63.382,-5.396
-16.08,-66.786,-5.648
-16.05,-70.085,-5.957
-16.02,-73.489,-6.209
-15.98,-76.929,-6.472
-15.95,-80.263,-6.736
-15.92,-83.597,-7.022
-15.89,-87.071,-7.286
-15.85,-90.511,-7.584
-15.82,-93.88,-7.893
-15.79,-97.389,-8.168
-15.76,-100.653,-8.374
-15.72,-103.496,-8.592
-15.69,-106.374,-8.855
-15.66,-109.708,-9.279
-15.63,-113.533,-9.611
-15.59,-117.393,-9.898
-15.56,-120.973,-10.173
-15.53,-124.132,-10.356
-15.5,-126.588,-10.447
-15.46,-129.256,-10.837
-15.43,-132.274,-11.055
-15.4,-135.538,-11.249
-15.37,-138.872,-11.627
-15.33,-142.487,-11.948
-15.3,-145.891,-12.212
-15.27,-148.769,-12.372
-15.23,-150.699,-12.372
-15.2,-153.12,-12.727
-15.17,-156.384,-13.14
-15.14,-159.824,-13.208
-15.1,-162.386,-13.403
-15.07,-164.983,-13.758
-15.04,-167.931,-14.033
-15.01,-170.773,-14.136
-14.97,-173.055,-14.274
-14.94,-175.301,-14.468
-14.91,-177.898,-14.743
-14.88,-180.986,-15.11
-14.84,-184.987,-15.602
-14.81,-189.374,-15.912
-14.78,-192.848,-16.049
-14.75,-195.235,-16.095
-14.71,-196.989,-16.129
-14.68,-198.709,-16.21
-14.65,-200.815,-16.359
-14.62,-203.377,-16.473
-14.58,-205.869,-16.771
-14.55,-208.325,-16.977
-14.52,-210.185,-17.034
-14.49,-211.589,-17.092
-14.45,-212.993,-17.195
-14.42,-214.256,-17.264
-14.39,-215.695,-17.39
-14.36,-217.555,-17.699
-14.32,-219.907,-18.077
-14.29,-222.539,-18.295
-14.26,-224.89,-18.432
-14.23,-226.505,-18.558
-14.19,-227.557,-18.638
-14.16,-229.066,-18.707
-14.13,-231.032,-18.913
-14.1,-233.629,-19.28
-14.06,-236.296,-19.452
-14.03,-238.472,-19.646
-14.0,-240.858,-19.921
-13.97,-243.069,-19.898
-13.93,-243.701,-19.646
-13.9,-243.771,-19.543
-13.87,-245.631,-20.059
-13.84,-248.825,-20.265
-13.8,-251.141,-20.208
-13.77,-252.44,-20.425
-13.74,-254.019,-20.654
-13.7,-255.739,-20.666
-13.67,-257.353,-20.677
-13.64,-258.582,-20.712
-13.61,-259.634,-20.746
-13.57,-260.863,-20.792
-13.54,-262.337,-20.952
-13.51,-264.127,-21.113
-13.48,-265.776,-21.227
-13.44,-267.11,-21.273
-13.41,-268.198,-21.261
-13.38,-269.18,-21.284
-13.35,-270.303,-21.388
-13.31,-271.742,-21.468
-13.28,-273.216,-21.582
-13.25,-275.076,-21.685
-13.22,-276.726,-21.766
-13.18,-278.024,-21.892
-13.15,-279.323,-21.823
-13.12,-280.165,-21.8
-13.09,-281.183,-21.823
-13.05,-282.271,-21.811
-13.02,-283.604,-21.914
-12.99,-284.868,-21.995
-12.96,-286.201,-22.018
-12.92,-287.114,-21.937
-12.89,-287.5,-21.857
-12.86,-287.746,-21.811
-12.83,-287.956,-21.685
-12.79,-287.991,-21.628
-12.76,-288.623,-21.857
-12.73,-289.746,-21.926
-12.7,-290.413,-21.823
-12.66,-290.343,-21.823
-12.63,-290.904,-21.972
-12.6,-291.29,-21.869
-12.57,-290.413,-21.479
-12.53,-289.606,-21.64
-12.5,-290.518,-21.937
-12.47,-291.676,-21.869
-12.44,-291.606,-21.743
-12.4,-291.22,-21.788
-12.37,-291.045,-21.743
-12.34,-290.764,-21.571
-12.31,-290.273,-21.445
-12.27,-290.483,-21.697
-12.24,-292.133,-22.04
-12.21,-293.782,-22.052
-12.17,-294.379,-22.018
-12.14,-294.273,-21.972
-12.11,-293.221,-21.514
-12.08,-290.799,-20.861
-12.04,-287.43,-20.379
-12.01,-284.236,-20.104
-11.98,-281.885,-19.978
-11.95,-279.744,-20.07
-11.91,-277.884,-20.15
-11.88,-275.883,-20.219
-11.85,-273.918,-20.334
-11.82,-272.304,-20.46
-11.78,-271.111,-20.54
-11.75,-270.128,-20.677
-11.72,-269.707,-20.78
-11.69,-269.04,-20.78
-11.65,-268.268,-20.723
-11.62,-267.075,-20.654
-11.59,-265.636,-20.437
-11.56,-263.776,-20.15
-11.52,-261.74,-19.978
-11.49,-259.985,-19.818
-11.46,-258.301,-19.738
-11.43,-256.897,-19.726
-11.39,-255.774,-19.715
-11.36,-254.51,-19.715
-11.33,-252.966,-19.566
-11.3,-251.071,-19.371
-11.26,-249.422,-19.337
-11.23,-248.053,-19.234
-11.2,-246.649,-19.085
-11.17,-244.684,-18.844
-11.13,-242.894,-18.844
-11.1,-241.385,-18.741
-11.07,-239.56,-18.386
-11.04,-236.752,-18.203
-11.0,-234.506,-18.123
-10.97,-233.524,-18.214
-10.94,-232.576,-18.123
-10.91,-230.821,-17.882
-10.87,-228.54,-17.756
-10.84,-226.645,-17.676
-10.81,-224.75,-17.355
-10.78,-222.539,-17.08
-10.74,-220.433,-17.023
-10.71,-218.362,-16.851
-10.68,-216.081,-16.565
-10.64,-213.695,-16.416
-10.61,-211.694,-16.37
-10.58,-210.01,-16.233
-10.55,-207.939,-15.969
-10.51,-205.588,-15.786
-10.48,-203.447,-15.66
-10.45,-201.517,-15.511
-10.42,-199.622,-15.328
-10.38,-197.726,-15.144
-10.35,-195.726,-14.972
-10.32,-193.41,-14.72
-10.29,-190.637,-14.377
-10.25,-187.689,-14.09
-10.22,-184.811,-13.85
-10.19,-181.793,-13.552
-10.16,-179.021,-13.369
-10.12,-176.634,-13.311
-10.09,-174.493,-13.14
-10.06,-171.967,-12.83
-10.03,-169.124,-12.624
-9.99,-166.316,-12.464
-9.96,-163.544,-12.154
-9.93,-160.35,-11.765
-9.9,-157.648,-11.742
-9.86,-155.542,-11.673
-9.83,-153.226,-11.215
-9.8,-150.032,-10.986
-9.77,-146.523,-10.699
-9.73,-142.873,-10.344
-9.7,-138.977,-9.943
-9.67,-135.362,-9.794
-9.64,-132.87,-9.703
-9.6,-130.695,-9.554
-9.57,-127.957,-9.245
-9.54,-124.448,-8.912
-9.51,-120.692,-8.615
-9.47,-117.218,-8.431
-9.44,-114.656,-8.294
-9.41,-112.515,-8.156
-9.38,-110.62,-8.053
-9.34,-108.479,-7.778
-9.31,-105.356,-7.32
-9.28,-101.039,-6.873
-9.25,-96.336,-6.472
-9.21,-91.704,-6.094
-9.18,-87.352,-5.716
-9.15,-83.141,-5.418
-9.11,-79.105,-5.166
-9.08,-75.069,-4.914
-9.05,-71.138,-4.697
-9.02,-67.558,-4.479
-8.98,-64.049,-4.307
-8.95,-60.715,-4.113
-8.92,-57.486,-3.861
-8.89,-54.433,-3.689
-8.85,-51.379,-3.46
-8.82,-48.045,-3.104
-8.79,-44.466,-2.807
-8.76,-40.816,-2.566
-8.72,-37.271,-2.314
-8.69,-33.972,-2.062
-8.66,-30.708,-1.787
-8.63,-27.058,-1.443
-8.59,-23.128,-1.146
-8.56,-19.127,-0.859
-8.53,-15.407,-0.687
-8.5,-12.143,-0.504
-8.46,-8.809,-0.218
-8.43,-5.054,0.046
-8.4,-1.474,0.275
-8.37,2.281,0.378
-8.33,5.861,0.493
-8.3,9.37,0.664
-8.27,12.213,0.802
-8.24,14.6,1.031
-8.2,16.846,1.558
-8.17,19.583,2.119
-8.14,22.952,2.555
-8.11,27.164,2.795
-8.07,30.743,3.047
-8.04,34.042,3.379
-8.01,37.587,3.62
-7.98,41.026,3.895
-7.94,44.746,4.181
-7.91,48.537,4.445
-7.88,52.187,4.697
-7.85,55.907,4.972
-7.81,59.557,5.281
-7.78,63.347,5.556
-7.75,66.962,5.819
-7.72,70.436,6.026
-7.68,73.56,6.22
-7.65,76.508,6.484
-7.62,79.666,6.793
-7.58,83.316,7.091
-7.55,87.071,7.423
-7.52,90.756,7.721
-7.49,94.336,8.007
-7.45,97.6,8.248
-7.42,100.653,8.466
-7.39,103.636,8.706
-7.36,106.865,9.038
-7.32,110.515,9.359
-7.29,114.375,9.668
-7.26,117.955,9.955
-7.23,121.394,10.218
-7.19,124.588,10.402
-7.16,127.29,10.573
-7.13,129.642,10.711
-7.1,132.835,11.1
-7.06,136.345,11.501
-7.03,140.1,11.639
-7.0,143.364,12.005
-6.97,146.628,12.326
-6.93,149.611,12.372
-6.9,152.068,12.567
-6.87,154.7,12.853
-6.84,157.507,13.036
-6.8,160.175,13.231
-6.77,162.912,13.518
-6.74,165.93,13.85
-6.71,169.019,14.056
-6.67,171.721,14.251
-6.64,174.142,14.445
-6.61,176.318,14.571
-6.58,178.319,14.778
-6.54,181.021,15.144
-6.51,184.531,15.488
-6.48,188.181,15.786
-6.45,191.444,16.049
-6.41,194.498,16.267
-6.38,196.989,16.347
-6.35,198.849,16.439
-6.32,200.78,16.565
-6.28,203.131,16.748
-6.25,205.728,16.989
-6.22,208.29,17.172
-6.19,210.361,17.241
-6.15,212.115,17.355
-6.12,213.239,17.412
-6.09,214.291,17.435
-6.05,215.66,17.63
-6.02,217.871,17.962
-5.99,220.398,18.237
-5.96,222.784,18.489
-5.92,225.066,18.741
-5.89,227.277,18.925
-5.86,228.716,18.879
-5.83,229.593,18.776
-5.79,231.558,19.303
-5.76,234.576,19.532
-5.73,236.542,19.394
-5.7,237.138,19.463
-5.66,238.858,19.818
-5.63,241.315,19.978
-5.6,243.245,19.875
-5.57,244.087,19.887
-5.53,245.105,20.036
-5.5,247.491,20.437
-5.47,250.65,20.586
-5.44,252.931,20.689
-5.4,254.475,20.838
-5.37,256.09,20.929
-5.34,257.318,20.757
-5.31,257.985,20.712
-5.27,259.248,20.941
-5.24,261.249,21.044
-5.21,262.863,21.135
-5.18,264.478,21.33
-5.14,266.513,21.479
-5.11,268.268,21.525
-5.08,269.215,21.445
-5.05,269.882,21.41
-5.01,270.935,21.479
-4.98,272.549,21.548
-4.95,274.234,21.651
-4.92,275.883,21.788
-4.88,277.463,21.892
-4.85,278.726,21.926
-4.82,279.533,21.857
-4.79,280.235,21.811
-4.75,281.007,21.8
-4.72,282.06,21.834
-4.69,283.253,21.903
-4.66,284.517,21.949
-4.62,285.57,22.04
-4.59,286.447,22.063
-4.56,287.044,21.96
-4.52,287.36,21.949
-4.49,287.64,21.88
-4.46,287.886,21.8
-4.43,288.377,21.914
-4.39,289.465,22.063
-4.36,290.202,21.972
-4.33,290.378,21.903
-4.3,290.027,21.914
-4.26,290.237,21.811
-4.23,290.588,21.914
-4.2,290.799,21.857
-4.17,291.15,21.892
-4.13,291.606,22.029
-4.1,292.133,22.029
-4.07,292.238,21.926
-4.04,291.957,21.857
-4.0,291.606,21.731
-3.97,290.939,21.548
-3.94,290.448,21.491
-3.91,290.553,21.651
-3.87,291.01,21.674
-3.84,290.764,21.548
-3.81,289.5,21.399
-3.78,287.921,21.147
-3.74,286.272,20.883
-3.71,284.622,20.746
-3.68,283.289,20.723
-3.65,282.446,20.883
-3.61,281.99,21.009
-3.58,281.183,20.929
-3.55,279.463,20.78
-3.52,277.287,20.643
-3.48,275.217,20.483
-3.45,273.181,20.357
-3.42,271.602,20.357
-3.39,270.654,20.46
-3.35,269.812,20.563
-3.32,268.794,20.528
-3.29,267.426,20.494
-3.26,265.987,20.414
-3.22,264.513,20.242
-3.19,262.898,20.127
-3.16,261.635,20.047
-3.13,260.196,19.91
-3.09,258.687,19.852
-3.06,257.213,19.818
-3.03,255.914,19.738
-2.99,254.265,19.509
-2.96,251.913,19.268
-2.93,249.738,19.211
-2.9,248.404,19.222
-2.86,247.0,19.039
-2.83,245.105,18.867
-2.8,243.385,18.936
-2.77,242.157,18.844
-2.73,239.771,18.363
-2.7,236.752,18.134
-2.67,235.138,18.375
-2.64,234.471,18.317
-2.6,233.208,18.065
-2.57,231.242,18.02
-2.54,229.803,18.054
-2.51,228.54,17.802
-2.47,226.715,17.504
-2.44,224.223,17.298
-2.41,221.837,17.057
-2.38,219.556,16.805
-2.34,217.45,16.668
-2.31,215.59,16.507
-2.28,213.519,16.37
-2.25,211.098,16.187
-2.21,208.43,15.923
-2.18,205.833,15.683
-2.15,203.482,15.534
-2.12,201.411,15.396
-2.08,199.586,15.27
-2.05,197.726,15.156
-2.02,195.656,15.007
-1.99,193.375,14.766
-1.95,190.707,14.457
-1.92,188.04,14.182
-1.89,185.233,13.941
-1.86,182.46,13.655
-1.82,179.933,13.529
-1.79,177.933,13.414
-1.76,175.546,13.14
-1.73,172.493,12.761
-1.69,169.089,12.521
-1.66,166.246,12.395
-1.63,163.368,12.017
-1.6,160.49,11.765
-1.56,157.718,11.696
-1.53,155.086,11.352
-1.5,151.927,11.089
-1.46,148.874,10.917
-1.43,145.821,10.619
-1.4,142.276,10.253
-1.37,138.416,9.966
-1.33,135.046,9.772
-1.3,132.414,9.703
-1.27,130.484,9.6
-1.24,128.413,9.382
-1.2,125.781,9.142
-1.17,122.658,8.878
-1.14,119.604,8.569
-1.11,116.621,8.271
-1.07,113.603,8.007
-1.04,110.831,7.79
-1.01,107.777,7.469
-0.98,103.952,6.988
-0.94,99.39,6.553
-0.91,94.687,6.243
-0.88,90.265,5.923
-0.85,86.018,5.567
-0.81,81.737,5.292
-0.78,77.911,5.178
-0.75,74.577,5.063
-0.72,71.349,4.777
-0.68,67.944,4.468
-0.65,64.54,4.342
-0.62,61.662,4.227
-0.59,58.855,3.941
-0.55,55.766,3.631
-0.52,52.257,3.334
-0.49,48.642,3.047
-0.46,45.203,2.841
-0.42,42.114,2.566
-0.39,38.605,2.199
-0.36,34.674,1.879
-0.33,30.779,1.65
-0.29,27.094,1.398
-0.26,23.654,1.146
-0.23,20.215,0.916
-0.2,16.635,0.664
-0.16,12.915,0.424
-0.13,9.16,0.275
-0.1,5.896,0.16
-0.07,2.316,-0.046
-0.03,-1.825,-0.298
0.0,-6.001,-0.355
0.03,-9.441,-0.355
0.07,-12.143,-0.527
0.1,-14.459,-0.894
0.13,-16.776,-1.283
0.16,-18.951,-1.73
0.2,-21.513,-2.303
0.23,-25.374,-2.921
0.26,-30.287,-3.356
0.29,-35.481,-3.471
0.33,-39.342,-3.62
0.36,-42.5,-3.975
0.39,-45.869,-4.25
0.42,-49.414,-4.548
0.46,-53.31,-4.834
0.49,-57.1,-5.075
0.52,-60.504,-5.292
0.55,-63.698,-5.533
0.59,-66.891,-5.797
0.62,-70.085,-6.094
0.65,-73.489,-6.369
0.68,-76.929,-6.656
0.72,-80.228,-6.931
0.75,-83.702,-7.206
0.78,-87.071,-7.469
0.81,-90.44,-7.778
0.85,-93.915,-8.03
0.88,-97.389,-8.317
0.91,-100.583,-8.58
0.94,-103.496,-8.763
0.98,-106.374,-8.981
1.01,-109.602,-9.371
1.04,-113.077,-9.668
1.07,-116.727,-9.932
1.11,-120.341,-10.276
1.14,-123.851,-10.573
1.17,-126.764,-10.654
1.2,-129.747,-11.032
1.24,-132.835,-11.284
1.27,-135.994,-11.478
1.3,-139.117,-11.811
1.33,-142.697,-12.12
1.37,-146.452,-12.383
1.4,-149.155,-12.475
1.43,-150.874,-12.452
1.46,-153.05,-12.807
1.5,-156.63,-13.311
1.53,-160.526,-13.46
1.56,-163.333,-13.518
1.6,-165.755,-13.873
1.63,-168.597,-14.182
1.66,-171.335,-14.274
1.69,-173.756,-14.411
1.73,-176.003,-14.64
1.76,-178.354,-14.869
1.79,-181.197,-15.133
1.82,-184.566,-15.58
1.86,-188.567,-15.935
1.89,-192.111,-16.141
1.92,-194.884,-16.255
1.95,-197.095,-16.359
1.99,-199.13,-16.439
2.02,-201.271,-16.496
2.05,-203.342,-16.588
2.08,-205.588,-16.84
2.12,-207.869,-17.023
2.15,-209.834,-17.08
2.18,-211.203,-17.172
2.21,-212.537,-17.344
2.25,-214.081,-17.47
2.28,-215.836,-17.584
2.31,-217.555,-17.859
2.34,-219.977,-18.237
2.38,-222.574,-18.466
2.41,-224.96,-18.65
2.44,-226.855,-18.81
2.47,-228.645,-18.867
2.51,-230.19,-18.879
2.54,-231.874,-19.085
2.57,-234.12,-19.314
2.6,-236.226,-19.417
2.64,-237.665,-19.463
2.67,-239.911,-19.852
2.7,-242.403,-20.024
2.73,-243.877,-19.83
2.77,-244.333,-19.818
2.8,-245.702,-20.116
2.83,-248.088,-20.23
2.86,-250.018,-20.242
2.9,-251.703,-20.505
2.93,-253.949,-20.735
2.96,-255.669,-20.712
2.99,-256.827,-20.7
3.03,-257.739,-20.735
3.06,-259.073,-20.838
3.09,-260.757,-20.952
3.13,-262.653,-21.113
3.16,-264.478,-21.227
3.19,-266.162,-21.376
3.22,-267.601,-21.399
3.26,-268.654,-21.342
3.29,-269.566,-21.365
3.32,-270.654,-21.456
3.35,-272.128,-21.479
3.39,-273.602,-21.605
3.42,-275.322,-21.766
3.45,-277.077,-21.823
3.48,-278.375,-21.846
3.52,-279.358,-21.857
3.55,-280.27,-21.846
3.58,-281.288,-21.846
3.61,-282.306,-21.892
3.65,-283.675,-21.972
3.68,-284.938,-22.006
3.71,-286.201,-22.063
3.74,-287.149,-21.983
3.78,-287.57,-21.903
3.81,-287.886,-21.857
3.84,-287.991,-21.72
3.87,-287.816,-21.64
3.91,-288.448,-21.823
3.94,-289.465,-21.903
3.97,-289.992,-21.857
4.0,-290.167,-21.937
4.04,-290.834,-22.029
4.07,-291.08,-21.788
4.1,-290.869,-21.697
4.13,-291.15,-21.949
4.17,-291.992,-21.823
4.2,-291.992,-21.777
4.23,-291.922,-21.846
4.26,-291.957,-21.731
4.3,-291.29,-21.514
4.33,-290.273,-21.388
4.36,-289.255,-21.25
4.39,-288.728,-21.342
4.43,-289.395,-21.662
4.46,-290.799,-21.823
4.49,-291.08,-21.766
4.52,-290.132,-21.651
4.56,-288.553,-21.284
4.59,-286.517,-20.872
4.62,-284.096,-20.597
4.66,-282.13,-20.425
4.69,-280.656,-20.471
4.72,-279.568,-20.643
4.75,-278.656,-20.666
4.79,-277.217,-20.643
4.82,-275.392,-20.643
4.85,-273.778,-20.586
4.88,-272.374,-20.505
4.92,-271.356,-20.54
4.95,-270.654,-20.609
4.98,-269.917,-20.586
5.01,-268.794,-20.505
5.05,-267.496,-20.46
5.08,-265.987,-20.208
5.11,-263.881,-19.99
5.14,-261.951,-19.841
5.18,-260.231,-19.681
5.21,-258.652,-19.658
5.24,-257.248,-19.692
5.27,-256.125,-19.692
5.31,-255.072,-19.681
5.34,-253.773,-19.52
5.37,-251.913,-19.314
5.4,-250.053,-19.257
5.44,-248.579,-19.131
5.47,-247.07,-18.97
5.5,-245.175,-18.764
5.53,-243.245,-18.753
5.57,-241.701,-18.627
5.6,-239.771,-18.283
5.63,-237.103,-18.146
5.66,-235.033,-18.065
5.7,-233.804,-18.1
5.73,-232.892,-18.02
5.76,-231.207,-17.802
5.79,-228.926,-17.63
5.83,-226.785,-17.527
5.86,-224.68,-17.195
5.89,-222.047,-16.92
5.92,-219.977,-16.84
5.96,-218.117,-16.725
5.99,-216.257,-16.565
6.02,-214.326,-16.427
6.05,-212.502,-16.37
6.09,-210.782,-16.221
6.12,-208.676,-15.935
6.15,-206.184,-15.671
6.19,-203.693,-15.488
6.22,-201.587,-15.328
6.25,-199.727,-15.156
6.28,-197.937,-15.007
6.32,-195.972,-14.835
6.35,-193.585,-14.606
6.38,-190.778,-14.251
6.41,-187.619,-13.93
6.45,-184.601,-13.724
6.48,-181.793,-13.426
6.51,-179.372,-13.3
6.54,-177.231,-13.231
6.58,-174.879,-12.979
6.61,-171.967,-12.635
6.64,-168.843,-12.429
6.67,-165.895,-12.257
6.71,-163.333,-12.005
6.74,-160.42,-11.662
6.77,-157.964,-11.627
6.8,-155.928,-11.559
6.84,-153.331,-11.02
6.87,-150.102,-10.837
6.9,-146.768,-10.608
6.93,-143.434,-10.207
6.97,-139.89,-9.943
7.0,-136.766,-9.772
7.03,-134.064,-9.6
7.06,-131.467,-9.428
7.1,-128.764,-9.176
7.13,-125.606,-8.855
7.16,-122.166,-8.534
7.19,-118.727,-8.317
7.23,-115.604,-8.111
7.26,-112.796,-7.847
7.29,-110.094,-7.641
7.32,-107.216,-7.377
7.36,-103.741,-6.999
7.39,-99.706,-6.644
7.42,-95.424,-6.278
7.45,-90.932,-5.9
7.49,-86.44,-5.522
7.52,-82.053,-5.27
7.55,-78.052,-5.063
7.58,-74.367,-4.846
7.62,-70.752,-4.617
7.65,-67.207,-4.387
7.68,-63.452,-4.101
7.72,-59.697,-3.861
7.75,-56.223,-3.712
7.78,-53.52,-3.574
7.81,-50.783,-3.334
7.85,-47.694,-2.99
7.88,-43.974,-2.635
7.91,-40.044,-2.406
7.94,-36.674,-2.188
7.98,-33.727,-1.982
8.01,-30.814,-1.73
8.04,-27.409,-1.398
8.07,-23.514,-1.054
8.11,-19.478,-0.745
8.14,-15.723,-0.596
8.17,-12.529,-0.412
8.2,-9.3,-0.149
8.24,-5.545,0.195
8.27,-1.404,0.447
8.3,2.632,0.504
8.33,6.317,0.55
8.37,9.616,0.687
8.4,12.283,0.859
8.43,14.424,1.1
8.46,16.951,1.695
8.5,20.11,2.28
8.53,23.865,2.681
8.56,28.111,2.91
8.59,31.656,3.139
8.63,34.709,3.46
8.66,37.868,3.769
8.69,41.377,4.021
8.72,45.132,4.296
8.76,48.817,4.571
8.79,52.467,4.811
8.82,56.012,5.075
8.85,59.627,5.373
8.89,63.171,5.625
8.92,66.716,5.888
8.95,70.296,6.14
8.98,73.595,6.438
9.02,76.929,6.69
9.05,80.263,6.919
9.08,83.597,7.228
9.11,87.247,7.561
9.15,90.932,7.847
9.18,94.547,8.133
9.21,97.81,8.351
9.25,100.758,8.523
9.28,103.461,8.775
9.31,106.409,9.061
9.34,109.918,9.371
9.38,113.603,9.76
9.41,117.253,10.001
9.44,120.692,10.287
9.47,123.886,10.528
9.51,126.624,10.757
9.54,129.291,10.883
9.57,132.555,11.295
9.6,136.169,11.673
9.64,139.644,11.776
9.67,142.908,12.154
9.7,146.066,12.395
9.73,148.734,12.452
9.77,151.05,12.67
9.8,153.787,12.991
9.83,156.7,13.185
9.86,159.473,13.392
9.9,162.421,13.655
9.93,165.334,13.987
9.96,168.282,14.216
9.99,170.949,14.423
10.03,173.405,14.606
10.06,175.722,14.789
10.09,178.143,14.972
10.12,180.986,15.27
10.16,184.355,15.637
10.19,187.97,15.923
10.22,191.129,16.175
10.25,194.112,16.404
10.29,196.638,16.462
10.32,198.604,16.565
10.35,200.639,16.656
10.38,202.815,16.851
10.42,205.482,17.069
10.45,207.939,17.218
10.48,210.01,17.344
10.51,211.694,17.516
10.55,213.098,17.516
10.58,214.186,17.561
10.61,215.765,17.825
10.64,218.187,18.134
10.68,220.714,18.363
10.71,223.065,18.604
10.74,225.346,18.833
10.78,227.522,19.016
10.81,228.716,18.89
10.84,229.172,18.787
10.87,231.172,19.348
10.91,234.331,19.612
10.94,236.577,19.52
10.97,237.735,19.669
11.0,239.349,19.887
11.04,241.315,19.99
11.07,243.105,19.944
11.1,244.368,19.967
11.13,245.667,20.242
11.17,248.053,20.505
11.2,250.299,20.528
11.23,251.843,20.609
11.26,253.773,20.929
11.3,256.335,21.055
11.33,257.774,20.849
11.36,258.125,20.826
11.39,259.319,21.032
11.43,261.214,21.147
11.46,263.144,21.193
11.49,264.688,21.365
11.52,266.443,21.479
11.56,267.847,21.491
11.59,268.619,21.422
11.62,269.356,21.41
11.65,270.268,21.456
11.69,271.567,21.559
11.72,273.181,21.685
11.75,274.725,21.8
11.78,276.34,21.972
11.82,277.849,22.018
11.85,278.972,21.995
11.88,279.99,22.006
11.91,281.113,22.006
11.95,282.341,22.04
11.98,283.71,22.086
12.01,285.149,22.155
12.04,286.377,22.144
12.08,287.184,22.109
12.11,287.675,22.006
12.14,287.956,21.914
12.17,287.886,21.823
12.21,288.026,21.731
12.24,288.553,21.766
12.27,289.395,21.926
12.31,289.957,21.88
12.34,290.132,21.926
12.37,290.202,21.903
12.4,290.518,21.88
12.44,291.15,22.029
12.47,291.606,21.914
12.5,291.852,21.937
12.53,292.273,22.086
12.57,292.764,22.029
12.6,292.729,21.823
12.63,292.097,21.708
12.66,291.466,21.559
12.7,290.448,21.365
12.73,289.746,21.353
12.76,289.957,21.548
12.79,290.378,21.64
12.83,290.237,21.582
12.86,289.255,21.479
12.89,287.851,21.227
12.92,286.201,20.975
12.96,284.587,20.861
12.99,283.253,20.78
13.02,282.481,20.872
13.05,281.885,20.952
13.09,280.972,20.883
13.12,279.147,20.757
13.15,277.217,20.643
13.18,275.322,20.471
13.22,273.181,20.276
13.25,271.567,20.265
13.28,270.76,20.425
13.31,270.093,20.483
13.35,269.04,20.437
13.38,267.601,20.437
13.41,266.197,20.334
13.44,264.548,20.162
13.48,263.074,20.07
13.51,261.705,19.99
13.54,260.231,19.898
13.57,258.722,19.818
13.61,257.388,19.772
13.64,256.16,19.669
13.67,254.475,19.452
13.7,252.194,19.257
13.74,250.124,19.177
13.77,248.86,19.154
13.8,247.316,18.959
13.84,245.245,18.741
13.87,243.385,18.764
13.9,241.982,18.661
13.93,239.665,18.272
13.97,236.682,17.997
14.0,234.962,18.214
14.03,234.261,18.249
14.06,233.278,18.031
14.1,231.488,17.951
14.13,229.663,17.962
14.16,227.943,17.642
14.19,225.592,17.241
14.23,222.784,17.057
14.26,220.468,16.897
14.29,218.362,16.622
14.32,216.327,16.519
14.36,214.537,16.507
14.39,213.028,16.37
14.42,210.817,16.164
14.45,208.22,15.9
14.49,205.693,15.625
14.52,203.236,15.499
14.55,201.306,15.408
14.58,199.797,15.293
14.62,198.323,15.156
14.65,196.533,14.972
14.68,194.006,14.675
14.71,191.023,14.297
14.75,187.865,14.022
14.78,185.057,13.804
14.81,182.53,13.529
14.84,180.074,13.414
14.88,178.178,13.38
14.91,175.967,13.059
14.94,172.598,12.578
14.97,169.019,12.395
15.01,166.281,12.303
15.04,163.544,11.868
15.07,160.455,11.627
15.1,157.613,11.582
15.14,155.226,11.295
15.17,152.84,11.146
15.2,150.067,10.871
15.23,146.698,10.47
15.27,143.048,10.207
15.3,139.925,10.035
15.33,137.152,9.76
15.37,134.52,9.588
15.4,132.204,9.428
15.43,129.747,9.21
15.46,126.904,8.878
15.5,123.43,8.523
15.53,119.885,8.271
15.56,116.692,8.03
15.59,113.673,7.778
15.63,110.69,7.549
15.66,107.462,7.206
15.69,103.531,6.805
15.72,99.144,6.427
15.76,94.547,6.049
15.79,90.054,5.774
15.82,85.983,5.522
15.85,82.018,5.224
15.89,78.368,5.063
15.92,74.928,4.892
15.95,71.664,4.639
15.98,68.225,4.365
16.02,64.61,4.124
16.05,61.066,3.883
16.08,57.556,3.62
16.11,54.362,3.448
16.15,51.555,3.276
16.18,48.853,3.013
16.21,45.554,2.658
16.24,41.869,2.348
16.28,38.008,2.062
16.31,34.323,1.81
16.34,30.814,1.569
16.37,27.304,1.283
16.41,23.689,1.031
16.44,20.11,0.813
16.47,16.53,0.607
16.5,13.02,0.401
16.54,9.441,0.206
16.57,6.212,0.08
16.6,2.878,0.023
16.63,-0.597,-0.103
16.67,-4.211,-0.344
16.7,-7.896,-0.47
16.73,-11.23,-0.596
16.76,-14.424,-0.974
16.8,-17.863,-1.478
16.83,-21.233,-1.925
16.86,-24.251,-2.36
16.9,-27.444,-2.818
16.93,-31.48,-3.185
16.96,-35.867,-3.345
16.99,-39.377,-3.528
17.03,-42.535,-3.78
17.06,-45.554,-4.009
17.09,-48.747,-4.307
17.12,-52.151,-4.594
17.16,-55.766,-4.88
17.19,-59.416,-5.224
17.22,-63.242,-5.567
17.25,-66.786,-5.785
17.29,-69.945,-6.083
17.32,-73.244,-6.301
17.35,-76.297,-6.53
17.38,-79.526,-6.85
17.42,-83.316,-7.183
17.45,-87.001,-7.423
17.48,-90.405,-7.71
17.51,-93.704,-8.03
17.55,-97.073,-8.305
17.58,-100.407,-8.546
17.61,-103.671,-8.786
17.64,-106.795,-9.004
17.68,-110.023,-9.336
17.71,-113.498,-9.668
17.74,-117.148,-9.943
17.77,-120.833,-10.23
17.81,-124.097,-10.47
17.84,-126.869,-10.596
17.87,-129.852,-10.986
17.9,-132.941,-11.192
17.94,-135.889,-11.295
17.97,-138.802,-11.673
18.0,-142.276,-12.017
18.03,-145.821,-12.246
18.07,-149.084,-12.509
18.1,-151.26,-12.509
18.13,-153.12,-12.681
18.16,-155.858,-13.162
18.2,-159.718,-13.518
18.23,-163.052,-13.621
18.26,-165.72,-13.815
18.29,-168.352,-14.216
18.33,-171.23,-14.377
18.36,-173.756,-14.445
18.39,-176.108,-14.652
18.43,-178.529,-14.892
18.46,-181.407,-15.121
18.49,-184.776,-15.499
18.52,-188.461,-15.854
18.56,-191.76,-16.049
18.59,-194.392,-16.187
18.62,-196.498,-16.301
18.65,-198.639,-16.393
18.69,-200.71,-16.485
18.72,-202.78,-16.691
18.75,-205.412,-16.954
18.78,-207.869,-17.103
18.82,-209.834,-17.183
18.85,-211.308,-17.252
18.88,-212.466,-17.321
18.91,-213.765,-17.412
18.95,-215.414,-17.596
18.98,-217.204,-17.882
19.01,-219.696,-18.203
19.04,-222.328,-18.443
19.08,-224.89,-18.695
19.11,-227.066,-18.856
19.14,-228.856,-18.936
19.17,-230.435,-19.005
19.21,-232.295,-19.188
19.24,-234.471,-19.371
19.27,-236.612,-19.497
19.3,-238.542,-19.589
19.34,-240.297,-19.715
19.37,-241.946,-19.841
19.4,-243.561,-19.91
19.43,-244.965,-19.933
19.47,-246.474,-20.059
19.5,-248.158,-20.185
19.53,-249.702,-20.242
19.56,-251.387,-20.437
19.6,-253.282,-20.574
19.63,-255.388,-20.792
19.66,-257.774,-21.032
19.69,-259.775,-21.067
19.73,-260.793,-21.009
19.76,-261.88,-21.032
19.79,-263.741,-21.204
19.82,-265.601,-21.307
19.86,-267.32,-21.342
19.89,-268.549,-21.365
19.92,-269.18,-21.25
19.96,-269.566,-21.227
19.99,-270.514,-21.33
20.02,-272.093,-21.456
20.05,-273.637,-21.594
20.09,-275.252,-21.754
20.12,-276.866,-21.869
20.15,-278.305,-21.903
20.18,-279.253,-21.857
20.22,-280.025,-21.892
20.25,-281.042,-21.949
20.28,-282.341,-21.949
20.31,-283.64,-21.972
20.35,-284.938,-22.086
20.38,-286.201,-22.155
20.41,-287.079,-22.04
20.44,-287.36,-21.972
20.48,-287.675,-21.869
20.51,-287.675,-21.72
20.54,-287.465,-21.582
20.57,-287.781,-21.811
20.61,-289.044,-21.949
20.64,-290.062,-21.983
20.67,-290.027,-21.926
20.7,-290.378,-22.029
20.74,-290.904,-22.063
20.77,-291.501,-21.949
20.8,-291.606,-21.914
20.83,-291.641,-21.857
20.87,-291.887,-21.857
20.9,-292.273,-21.811
20.93,-292.203,-21.754
20.96,-291.676,-21.662
21.0,-290.694,-21.491
21.03,-289.641,-21.307
21.06,-288.939,-21.33
21.09,-288.974,-21.571
21.13,-289.571,-21.697
21.16,-289.536,-21.64
21.19,-288.412,-21.502
21.22,-286.693,-21.239
21.26,-284.868,-20.987
21.29,-283.183,-20.803
21.32,-281.815,-20.78
21.35,-280.937,-20.906
21.39,-280.305,-21.009
21.42,-279.604,-20.952
21.45,-278.059,-20.906
21.49,-276.445,-20.838
21.52,-274.831,-20.654
21.55,-273.006,-20.517
21.58,-271.742,-20.528
21.62,-270.935,-20.62
21.65,-270.163,-20.654
21.68,-269.215,-20.609
21.71,-267.671,-20.483
21.75,-265.601,-20.23
21.78,-263.249,-20.013
21.81,-261.389,-19.933
21.84,-260.091,-19.841
21.88,-258.862,-19.807
21.91,-257.564,-19.795
21.94,-256.265,-19.761
21.97,-254.967,-19.738
22.01,-253.423,-19.566
22.04,-251.562,-19.326
22.07,-249.738,-19.303
22.1,-248.404,-19.211
22.14,-246.93,-19.085
22.17,-244.859,-18.856
22.2,-243.14,-18.879
22.23,-241.876,-18.856
22.27,-240.367,-18.466
22.3,-237.63,-18.295
22.33,-235.594,-18.214
22.36,-234.401,-18.214
22.4,-233.383,-18.088
22.43,-231.488,-17.848
22.46,-229.137,-17.722
22.49,-226.926,-17.573
22.53,-224.609,-17.229
22.56,-222.047,-16.954
22.59,-219.801,-16.885
22.62,-217.906,-16.771
22.66,-216.081,-16.645
22.69,-214.291,-16.542
22.72,-212.572,-16.462
22.75,-210.887,-16.313
22.79,-208.571,-15.969
22.82,-205.869,-15.717
22.85,-203.342,-15.58
22.88,-201.482,-15.419
22.92,-199.867,-15.305
22.95,-198.148,-15.167
22.98,-196.182,-14.961
23.02,-193.761,-14.709
23.05,-190.883,-14.354
23.08,-187.83,-14.01
23.11,-184.811,-13.792
23.15,-182.039,-13.552
23.18,-179.688,-13.38
23.21,-177.547,-13.3
23.24,-175.125,-13.071
23.28,-172.177,-12.75
23.31,-169.124,-12.544
23.34,-166.316,-12.372
23.37,-163.544,-12.086
23.41,-160.49,-11.776
23.44,-158.174,-11.765
23.47,-156.139,-11.65
23.5,-153.401,-11.1
23.54,-149.997,-10.894
23.57,-146.382,-10.654
23.6,-143.013,-10.253
23.63,-139.503,-9.989
23.67,-136.31,-9.806
23.7,-133.432,-9.6
23.73,-130.87,-9.462
23.76,-128.273,-9.268
23.8,-125.395,-8.981
23.83,-122.166,-8.683
23.86,-118.867,-8.454
23.89,-115.814,-8.202
23.93,-112.971,-7.95
23.96,-110.199,-7.721
23.99,-107.181,-7.423
24.02,-104.97,-7.412
24.06,-104.022,-7.584
24.09,-103.18,-7.228
24.12,-100.372,-6.564
24.15,-95.88,-6.129
24.19,-90.932,-5.751
24.22,-86.264,-5.292
24.25,-81.702,-4.88
24.28,-76.823,-4.445
24.32,-70.682,-3.838
24.35,-63.873,-3.322
24.38,-57.591,-3.208
24.41,-52.888,-3.185
24.45,-49.59,-3.082
24.48,-46.887,-3.036
24.51,-44.536,-3.047
24.55,-41.939,-2.818
24.58,-38.184,-2.348
24.61,-33.586,-2.039
24.64,-29.55,-1.936
24.68,-26.076,-1.695
24.71,-22.707,-1.317
24.74,-19.232,-1.111
24.77,-15.968,-0.962
24.81,-12.564,-0.63
24.84,-8.949,-0.309
24.87,-5.545,-0.218
24.9,-3.088,-0.195
24.94,-0.632,0.057
24.97,2.386,0.298
25.0,5.826,0.389
25.03,9.09,0.515
25.07,12.424,0.882
25.1,15.968,1.283
25.13,19.267,1.661
25.16,22.356,2.096
25.2,25.9,2.761
25.23,30.779,3.116
25.26,35.201,3.219
25.29,38.078,3.379
25.33,40.71,3.574
25.36,44.15,4.067
25.39,48.853,4.571
25.42,53.134,4.571
25.46,56.328,4.639
25.49,59.381,5.109
25.52,62.891,5.418
25.55,66.33,5.487
25.59,69.629,5.831
25.62,73.033,6.163
25.65,76.051,6.243
25.68,78.508,6.415
25.72,81.421,6.862
25.75,85.457,7.332
25.78,89.738,7.584
25.81,93.283,7.732
25.85,96.407,8.042
25.88,99.53,8.443
25.91,102.654,8.5
25.94,105.18,8.637
25.98,108.199,9.096
26.01,112.234,9.542
26.04,116.27,9.772
26.08,119.604,9.943
26.11,122.623,10.23
26.14,125.676,10.562
26.17,128.484,10.654
26.21,130.94,10.768
26.24,133.853,11.226
26.27,137.679,11.673
26.3,141.399,11.776
26.34,144.382,11.983
26.37,147.119,12.28
26.4,149.962,12.532
26.43,153.015,12.681
26.47,155.437,12.842
26.5,153.963,12.04
26.53,147.786,10.86
26.56,142.03,11.078
26.6,142.381,12.326
26.63,148.628,13.277
26.66,155.086,13.85
26.69,157.893,14.056
26.73,159.789,14.789
26.76,164.597,15.912
26.79,172.458,16.588
26.82,180.53,17.0
26.86,186.987,17.367
26.89,191.515,17.47
26.92,194.498,17.229
26.95,196.814,17.046
26.99,199.446,17.011
27.02,202.113,16.851
27.05,204.289,16.794
27.08,205.974,16.954
27.12,207.693,17.057
27.15,209.413,17.172
27.18,211.449,17.424
27.21,213.309,17.504
27.25,214.748,17.538
27.28,216.397,17.836
27.31,219.029,18.237
27.34,221.872,18.432
27.38,224.223,18.547
27.41,226.224,18.776
27.44,228.119,18.993
27.47,229.558,18.821
27.51,230.225,18.776
27.54,231.313,19.051
27.57,233.699,19.268
27.61,235.91,19.394
27.64,237.63,19.635
27.67,239.56,19.864
27.7,241.595,20.001
27.74,243.245,20.07
27.77,244.754,20.116
27.8,246.579,20.322
27.83,248.825,20.505
27.87,251.036,20.654
27.9,252.861,20.712
27.93,255.072,20.941
27.96,257.423,21.055
28.0,258.968,20.895
28.03,259.319,20.803
28.06,260.512,20.964
28.09,262.617,21.158
28.13,264.513,21.181
28.16,265.776,21.204
28.19,266.934,21.365
28.22,268.198,21.388
28.26,269.04,21.25
28.29,269.672,21.273
28.32,270.76,21.502
28.35,272.549,21.571
28.39,274.234,21.662
28.42,275.813,21.892
28.45,277.463,21.949
28.48,278.726,21.903
28.52,279.498,21.926
28.55,280.305,21.949
28.58,281.429,21.914
28.61,282.516,21.926
28.65,283.85,22.029
28.68,285.289,22.086
28.71,286.447,22.121
28.74,287.149,22.098
28.78,287.57,21.96
28.81,287.64,21.823
28.84,287.254,21.685
28.87,286.974,21.582
28.91,287.5,21.777
28.94,288.553,21.949
28.97,289.185,21.88
29.0,289.22,21.914
29.04,289.36,22.006
29.07,289.5,21.857
29.1,288.939,21.697
29.14,288.553,21.72
29.17,289.255,21.949
29.2,290.308,21.983
29.23,290.623,21.914
29.27,290.518,21.937
29.3,290.483,21.937
29.33,290.448,21.766
29.36,290.027,21.651
29.4,289.957,21.697
29.43,290.588,21.766
29.46,291.01,21.685
29.49,290.623,21.651
29.53,289.781,21.548
29.56,288.412,21.216
29.59,286.658,20.952
29.62,285.078,20.803
29.66,283.71,20.746
29.69,282.938,20.861
29.72,282.341,20.929
29.75,281.253,20.906
29.79,279.709,20.746
29.82,277.498,20.574
29.85,275.322,20.391
29.88,273.006,20.253
29.92,271.707,20.322
29.95,271.181,20.517
29.98,270.795,20.609
30.01,269.777,20.597
30.05,268.443,20.62
30.08,267.039,20.402
30.11,265.285,20.139
30.14,263.705,20.059
30.18,262.617,19.99
30.21,261.424,19.864
30.24,259.845,19.749
30.27,258.371,19.726
30.31,257.213,19.658
30.34,255.914,19.452
30.37,253.914,19.28
30.4,252.159,19.257
30.44,250.826,19.199
30.47,249.246,18.959
30.5,247.105,18.833
30.53,245.21,18.753
30.57,243.28,18.512
30.6,240.858,18.306
30.63,238.086,18.065
30.67,235.875,18.02
30.7,234.506,18.1
30.73,233.067,17.939
30.76,230.751,17.733
30.8,228.4,17.619
30.83,226.224,17.493
30.86,224.083,17.16
30.89,221.381,16.943
30.93,219.205,16.977
30.96,217.941,16.931
30.99,216.537,16.805
31.02,214.502,16.588
31.06,212.817,16.611
31.09,211.694,16.576
31.12,210.08,16.129
31.15,207.343,15.74
31.19,204.71,15.706
31.22,202.885,15.557
31.25,201.236,15.316
31.28,199.236,15.098
31.32,196.849,14.892
31.35,194.252,14.606
31.38,191.339,14.262
31.41,188.286,14.01
31.45,185.338,13.827
31.48,182.881,13.586
31.51,180.179,13.38
31.54,177.02,13.002
31.58,174.774,13.14
31.61,173.16,13.059
31.64,171.23,12.59
31.67,167.58,12.292
31.71,163.474,11.845
31.74,160.526,11.845
31.77,158.981,11.891
31.8,157.507,11.524
31.84,154.77,11.204
31.87,151.225,10.906
31.9,147.189,10.436
31.93,142.943,10.024
31.97,138.696,9.714
32.0,134.976,9.474
32.03,131.958,9.416
32.06,129.747,9.359
32.1,127.606,9.21
32.13,125.255,9.004
32.16,122.447,8.741
32.2,119.324,8.477
32.23,116.27,8.202
32.26,113.463,7.985
32.29,110.971,7.767
32.33,108.304,7.446
32.36,104.9,7.011
32.39,100.583,6.553
32.42,95.529,6.14
32.46,90.616,5.728
32.49,85.913,5.43
32.52,81.877,5.212
32.55,78.438,5.109
32.59,75.314,4.949
32.62,72.05,4.662
32.65,68.33,4.365
32.68,64.33,4.101
32.72,60.434,3.872
32.75,56.995,3.654
32.78,54.012,3.505
32.81,51.344,3.379
32.85,48.853,3.15
32.88,45.975,2.83
32.91,42.676,2.566
32.94,39.482,2.406
32.98,36.639,2.177
33.01,33.691,1.821
33.04,30.217,1.455
33.07,26.286,1.146
33.11,22.25,0.848
33.14,18.074,0.515
33.17,13.968,0.286
33.2,10.072,0.126
33.24,6.177,-0.092
33.27,1.965,-0.298
33.3,-2.492,-0.344
33.33,-6.387,-0.332
33.37,-9.511,-0.424
33.4,-12.178,-0.642
33.43,-14.67,-1.02
33.46,-17.267,-1.455
33.5,-20.004,-1.959
33.53,-23.338,-2.451
33.56,-27.058,-2.841
33.59,-31.305,-3.104
33.63,-35.551,-3.196
33.66,-38.605,-3.448
33.69,-41.763,-3.723
33.73,-44.922,-4.021
33.76,-48.607,-4.365
33.79,-52.573,-4.605
33.82,-56.223,-4.892
33.86,-59.908,-5.247
33.89,-63.593,-5.533
33.92,-67.137,-5.751
33.95,-70.401,-6.003
33.99,-73.489,-6.255
34.02,-76.648,-6.472
34.05,-79.912,-6.782
34.08,-83.456,-7.114
34.12,-87.071,-7.343
34.15,-90.37,-7.687
34.18,-93.845,-7.973
34.21,-97.038,-8.225
34.25,-100.162,-8.466
34.28,-103.215,-8.683
34.31,-106.374,-8.993
34.34,-109.848,-9.336
34.38,-113.393,-9.6
34.41,-116.867,-9.909
34.44,-120.341,-10.173
34.47,-123.465,-10.39
34.51,-126.097,-10.528
34.54,-129.185,-10.917
34.57,-132.625,-11.238
34.6,-136.134,-11.387
34.64,-139.117,-11.673
34.67,-142.206,-11.994
34.7,-145.61,-12.257
34.73,-148.347,-12.349
34.77,-150.734,-12.509
34.8,-153.331,-12.819
34.83,-156.139,-13.071
34.86,-159.016,-13.277
34.9,-162.175,-13.621
34.93,-165.509,-13.907
34.96,-168.457,-14.079
34.99,-171.054,-14.285
35.03,-173.476,-14.468
35.06,-175.757,-14.617
35.09,-178.249,-14.835
35.12,-181.302,-15.179
35.16,-184.987,-15.625
35.19,-188.918,-15.889
35.22,-192.252,-16.072
35.26,-194.849,-16.233
35.29,-197.2,-16.359
35.32,-199.306,-16.393
35.35,-201.271,-16.485
35.39,-203.447,-16.576
35.42,-205.447,-16.794
35.45,-207.729,-17.0
35.48,-209.589,-17.092
35.52,-211.168,-17.195
35.55,-212.537,-17.332
35.58,-214.011,-17.481
35.61,-215.871,-17.653
35.65,-217.836,-17.882
35.68,-220.082,-18.203
35.71,-222.609,-18.466
35.74,-225.066,-18.661
35.78,-227.171,-18.833
35.81,-228.891,-18.913
35.84,-230.4,-18.936
35.87,-232.05,-19.108
35.91,-234.261,-19.314
35.94,-236.401,-19.429
35.97,-238.332,-19.623
36.0,-240.508,-19.852
36.04,-242.438,-19.864
36.07,-243.561,-19.875
36.1,-244.473,-19.887
36.13,-246.017,-20.047
36.17,-248.544,-20.379
36.2,-250.896,-20.471
36.23,-252.545,-20.54
36.26,-254.16,-20.735
36.3,-255.774,-20.803
36.33,-256.967,-20.689
36.36,-257.809,-20.7
36.39,-259.073,-20.861
36.43,-260.722,-20.975
36.46,-262.372,-21.078
36.49,-263.986,-21.25
36.52,-265.706,-21.41
36.56,-267.25,-21.399
36.59,-268.057,-21.399
36.62,-269.04,-21.445
36.65,-270.268,-21.525
36.69,-271.848,-21.605
36.72,-273.427,-21.754
36.75,-275.146,-21.834
36.79,-276.761,-21.937
36.82,-278.094,-21.937
36.85,-279.253,-21.914
36.88,-280.095,-21.926
36.92,-281.078,-21.96
36.95,-282.271,-21.972
36.98,-283.604,-22.018
37.01,-284.868,-22.098
37.05,-286.166,-22.121
37.08,-286.903,-22.04
37.11,-287.254,-21.983
37.14,-287.64,-21.892
37.18,-287.851,-21.766
37.21,-288.026,-21.754
37.24,-288.904,-22.018
37.27,-290.097,-21.995
37.31,-290.518,-21.949
37.34,-290.448,-21.96
37.37,-291.08,-22.109
37.4,-291.29,-21.903
37.44,-290.308,-21.502
37.47,-289.676,-21.754
37.5,-291.01,-21.983
37.53,-291.711,-21.834
37.57,-291.115,-21.708
37.6,-290.167,-21.743
37.63,-289.571,-21.628
37.66,-288.904,-21.433
37.7,-288.026,-21.399
37.73,-287.711,-21.548
37.76,-288.202,-21.72
37.79,-288.658,-21.754
37.83,-288.307,-21.743
37.86,-287.465,-21.628
37.89,-286.131,-21.33
37.92,-284.622,-21.158
37.96,-283.324,-21.009
37.99,-282.306,-20.987
38.02,-281.885,-21.135
38.05,-281.534,-21.204
38.09,-280.621,-21.078
38.12,-278.937,-20.929
38.15,-276.936,-20.78
38.18,-274.866,-20.54
38.22,-272.971,-20.437
38.25,-271.602,-20.494
38.28,-271.04,-20.62
38.32,-270.268,-20.666
38.35,-269.25,-20.7
38.38,-268.092,-20.62
38.41,-266.478,-20.357
38.45,-264.337,-20.173
38.48,-262.723,-20.116
38.51,-261.6,-20.001
38.54,-260.231,-19.944
38.58,-258.932,-19.921
38.61,-257.704,-19.921
38.64,-256.546,-19.818
38.67,-254.581,-19.474
38.71,-252.159,-19.268
38.74,-250.159,-19.222
38.77,-248.685,-19.131
38.8,-246.965,-18.959
38.84,-244.789,-18.844
38.87,-243.21,-18.936
38.9,-241.946,-18.81
38.93,-239.911,-18.478
38.97,-237.314,-18.398
39.0,-235.559,-18.375
39.03,-234.261,-18.237
39.06,-232.295,-17.916
39.1,-230.049,-17.825
39.13,-228.54,-17.951
39.16,-227.171,-17.71
39.19,-224.855,-17.298
39.23,-222.047,-17.16
39.26,-219.907,-17.115
39.29,-218.398,-16.954
39.32,-216.783,-16.782
39.36,-214.958,-16.691
39.39,-213.168,-16.553
39.42,-211.063,-16.29
39.45,-208.466,-15.969
39.49,-205.658,-15.728
39.52,-203.236,-15.591
39.55,-201.236,-15.442
39.58,-199.622,-15.362
39.62,-197.902,-15.247
39.65,-195.901,-15.064
39.68,-193.515,-14.801
39.71,-190.707,-14.457
39.75,-187.724,-14.125
39.78,-184.741,-13.896
39.81,-182.109,-13.689
39.85,-179.933,-13.552
39.88,-177.827,-13.403
39.91,-175.23,-13.117
39.94,-172.177,-12.796
39.98,-169.124,-12.578
40.01,-166.176,-12.383
40.04,-163.368,-12.063
40.07,-160.42,-11.788
40.11,-158.244,-11.856
40.14,-156.068,-11.65
40.17,-153.05,-11.146
40.2,-149.576,-11.009
40.24,-146.277,-10.734
40.27,-143.083,-10.321
40.3,-139.679,-10.115
40.33,-136.555,-9.909
40.37,-133.678,-9.657
40.4,-130.975,-9.554
40.43,-128.589,-9.359
40.46,-125.641,-9.061
40.5,-122.447,-8.775
40.53,-119.148,-8.511
40.56,-115.99,-8.294
40.59,-113.463,-8.122
40.63,-111.287,-7.962
40.66,-108.971,-7.698
40.69,-105.988,-7.32
40.72,-101.846,-6.873
40.76,-96.968,-6.369
40.79,-91.669,-5.923
40.82,-86.44,-5.533
40.85,-81.561,-5.189
40.89,-76.788,-4.88
40.92,-72.015,-4.639
40.95,-67.699,-4.456
40.98,-63.803,-4.307
41.02,-60.75,-4.25
41.05,-58.293,-4.158
41.08,-55.836,-4.009
41.11,-53.064,-3.746
41.15,-49.87,-3.482
41.18,-46.431,-3.208
41.21,-43.237,-2.978
41.24,-40.184,-2.726
41.28,-36.955,-2.36
41.31,-33.621,-2.096
41.34,-30.428,-1.936
41.38,-27.515,-1.673
41.41,-24.496,-1.352
41.44,-21.303,-1.123
41.47,-17.793,-0.813
41.51,-14.003,-0.424
41.54,-9.721,-0.092
41.57,-5.51,0.16
41.6,-1.649,0.286
41.64,1.86,0.355
41.67,5.65,0.676
41.7,9.827,0.916
41.73,13.301,0.928
41.77,15.793,1.168
41.8,18.25,1.741
41.83,20.671,2.131
41.86,23.654,2.417
41.9,27.831,2.852
41.93,32.323,3.322
41.96,36.745,3.574
41.99,40.359,3.7
42.03,43.623,3.941
42.06,46.957,4.25
42.09,50.467,4.433
42.12,53.696,4.594
42.16,56.819,4.846
42.19,60.118,5.166
42.22,63.557,5.418
42.25,66.646,5.613
42.29,69.769,5.934
42.32,73.103,6.301
42.35,76.613,6.553
42.38,79.912,6.759
42.42,83.281,7.102
42.45,86.826,7.48
42.48,90.44,7.721
42.51,93.88,7.985
42.55,97.108,8.271
42.58,100.407,8.546
42.61,103.601,8.763
42.64,106.654,8.993
42.68,110.023,9.313
42.71,113.568,9.668
42.74,117.148,9.921
42.77,120.552,10.138
42.81,123.605,10.379
42.84,126.869,10.722
42.87,129.958,10.917
42.91,132.906,11.1
42.94,135.538,11.375
42.97,138.591,11.639
43.0,142.136,12.005
43.04,145.364,12.212
43.07,147.856,12.28
43.1,149.927,12.498
43.13,152.103,12.739
43.17,154.559,12.876
43.2,157.086,13.14
43.23,160.104,13.506
43.26,163.158,13.804
43.3,166.211,14.079
43.33,169.229,14.388
43.36,172.247,14.606
43.39,175.195,14.835
43.43,178.214,15.156
43.46,181.793,15.499
43.49,185.548,15.763
43.52,188.882,15.98
43.56,192.076,16.221
43.59,195.164,16.427
43.62,197.937,16.519
43.65,200.253,16.622
43.69,202.499,16.714
43.72,204.745,16.874
43.75,207.202,17.011
43.78,209.343,17.103
43.82,211.238,17.229
43.85,212.782,17.355
43.88,213.8,17.286
43.91,214.537,17.378
43.95,216.222,17.687
43.98,218.608,17.997
44.01,221.03,18.203
44.04,223.03,18.363
44.08,224.75,18.65
44.11,226.82,18.833
44.14,228.224,18.695
44.17,229.277,18.856
44.21,231.067,19.154
44.24,233.453,19.337
44.27,235.594,19.474
44.3,237.138,19.566
44.34,238.963,19.864
44.37,241.28,20.082
44.4,243.21,19.99
44.44,244.193,20.001
44.47,245.631,20.242
44.5,247.737,20.414
44.53,249.913,20.483
44.57,251.668,20.643
44.6,253.528,20.849
44.63,255.353,20.872
44.66,257.072,20.929
44.7,258.125,20.895
44.73,258.862,20.861
44.76,260.301,21.124
44.79,262.688,21.353
44.83,264.793,21.376
44.86,266.232,21.388
44.89,267.075,21.479
44.92,268.057,21.445
44.96,269.11,21.422
44.99,270.374,21.536
45.02,271.848,21.594
45.05,273.251,21.697
45.09,274.796,21.846
45.12,276.375,21.983
45.15,277.884,21.96
45.18,278.831,21.949
45.22,279.779,22.006
45.25,281.042,21.972
45.28,282.166,21.972
45.31,283.429,22.063
45.35,284.938,22.109
45.38,286.061,22.144
45.41,286.763,22.086
45.44,287.114,21.983
45.48,287.395,21.949
45.51,287.64,21.88
45.54,287.886,21.834
45.57,288.974,22.063
45.61,290.343,22.166
45.64,290.202,21.811
45.67,290.132,21.983
45.7,290.869,22.109
45.74,291.957,21.96
45.77,291.957,21.903
45.8,291.887,21.96
45.83,292.589,22.075
45.87,293.361,22.006
45.9,293.291,21.937
45.93,293.15,21.88
45.97,292.764,21.731
46.0,291.957,21.548
46.03,290.974,21.376
46.06,290.202,21.376
46.1,290.237,21.571
46.13,290.588,21.617
46.16,290.237,21.514
46.19,289.149,21.433
46.23,287.746,21.216
46.26,286.272,20.975
46.29,284.517,20.883
46.32,283.464,20.849
46.36,282.762,20.952
46.39,282.095,21.032
46.42,281.007,20.906
46.45,279.147,20.757
46.49,277.077,20.654
46.52,275.287,20.54
46.55,273.497,20.391
46.58,272.093,20.437
46.62,271.181,20.631
46.65,270.479,20.643
46.68,269.321,20.563
46.71,267.741,20.54
46.75,266.373,20.402
46.78,264.828,20.185
46.81,263.074,20.059
46.84,261.354,19.967
46.88,259.845,19.864
46.91,258.406,19.807
46.94,256.932,19.841
46.97,255.704,19.749
47.01,254.054,19.474
47.04,251.668,19.314
47.07,249.702,19.28
47.1,248.299,19.211
47.14,246.579,18.993
47.17,244.719,18.89
47.2,242.964,18.925
47.23,241.245,18.673
47.27,238.893,18.375
47.3,236.472,18.317
47.33,234.752,18.283
47.36,233.278,18.1
47.4,231.874,18.077
47.43,230.119,18.02
47.46,228.4,17.894
47.5,227.101,17.836
47.53,225.627,17.596
47.56,223.451,17.298
47.59,221.24,17.103
47.63,219.31,17.011
47.66,217.731,16.874
47.69,216.116,16.622
47.72,213.976,16.45
47.76,211.378,16.21
47.79,208.571,15.877
47.82,205.869,15.648
47.85,203.447,15.522
47.89,201.447,15.408
47.92,199.867,15.339
47.95,198.183,15.202
47.98,196.112,15.064
48.02,193.69,14.778
48.05,190.742,14.445
48.08,187.83,14.182
48.11,184.952,13.941
48.15,182.425,13.712
48.18,180.144,13.586
48.21,178.143,13.472
48.24,175.616,13.082
48.28,172.247,12.761
48.31,168.913,12.567
48.34,166.176,12.361
48.37,163.123,11.971
48.41,160.315,11.834
48.44,157.648,11.696
48.47,155.296,11.49
48.5,152.84,11.295
48.54,149.997,10.997
48.57,146.803,10.677
48.6,143.188,10.344
48.63,139.503,10.058
48.67,136.205,9.806
48.7,133.502,9.691
48.73,131.432,9.6
48.76,129.291,9.359
48.8,126.518,9.073
48.83,123.36,8.786
48.86,120.026,8.489
48.89,116.762,8.202
48.93,113.849,7.962
48.96,110.936,7.698
48.99,107.672,7.32
49.03,103.601,6.873
49.06,99.004,6.507
49.09,94.476,6.197
49.12,90.019,5.877
49.16,85.878,5.579
49.19,81.912,5.35
49.22,78.297,5.201
49.25,75.034,4.983
49.29,71.594,4.731
49.32,67.979,4.502
49.35,64.4,4.273
49.38,60.995,3.998
49.42,57.591,3.769
49.45,54.538,3.574
49.48,51.73,3.391
49.51,48.853,3.127
49.55,45.589,2.818
49.58,42.079,2.52
49.61,38.64,2.291
49.64,35.236,2.016
49.68,31.656,1.638
49.71,27.725,1.34
49.74,23.865,1.134
49.77,20.18,0.905
49.81,16.705,0.664
49.84,13.161,0.435
49.87,9.441,0.218
49.9,5.65,0.046
49.94,1.965,-0.023
49.97,-1.755,-0.137
50.0,-5.44,-0.263
50.03,-8.984,-0.435
50.07,-12.213,-0.63
50.1,-15.021,-0.939
50.13,-17.723,-1.352
50.16,-20.25,-1.867
50.2,-23.128,-2.348
50.23,-26.357,-2.807
50.26,-30.463,-3.219
50.29,-34.99,-3.402
50.33,-38.745,-3.62
50.36,-42.816,-4.113
50.39,-47.168,-4.513
50.42,-51.52,-4.651
50.46,-55.205,-4.88
50.49,-58.784,-5.235
50.52,-62.364,-5.441
50.56,-65.698,-5.636
50.59,-68.716,-5.842
50.62,-71.454,-6.049
50.65,-73.981,-6.197
50.69,-76.472,-6.427
50.72,-79.35,-6.805
50.75,-82.965,-7.16
50.78,-86.65,-7.446
50.82,-90.16,-7.79
50.85,-93.564,-8.111
50.88,-96.758,-8.294
50.91,-99.565,-8.511
50.95,-102.057,-8.729
50.98,-104.619,-8.958
51.01,-107.251,-9.142
51.04,-110.55,-9.623
51.08,-114.691,-10.127
51.11,-119.429,-10.482
51.14,-123.079,-10.596
51.17,-126.132,-10.848
51.21,-129.466,-11.33
51.24,-133.221,-11.49
51.27,-136.415,-11.559
51.3,-139.293,-11.834
51.34,-142.767,-12.235
51.37,-146.347,-12.475
51.4,-149.049,-12.429
51.43,-150.945,-12.59
51.47,-153.296,-12.945
51.5,-156.104,-13.174
51.53,-159.262,-13.437
51.56,-162.561,-13.758
51.6,-165.649,-14.022
51.63,-168.352,-14.182
51.66,-170.773,-14.365
51.69,-173.23,-14.549
51.73,-175.757,-14.743
51.76,-178.389,-14.961
51.79,-181.407,-15.247
51.82,-184.811,-15.66
51.86,-188.426,-15.935
51.89,-191.795,-16.141
51.92,-194.568,-16.278
51.95,-196.989,-16.45
51.99,-199.341,-16.519
52.02,-201.411,-16.599
52.05,-203.377,-16.748
52.09,-205.693,-16.954
52.12,-208.009,-17.069
52.15,-209.764,-17.126
52.18,-211.098,-17.229
52.22,-212.466,-17.355
52.25,-214.011,-17.504
52.28,-215.73,-17.722
52.31,-217.625,-17.985
52.35,-220.047,-18.26
52.38,-222.539,-18.512
52.41,-224.89,-18.707
52.44,-226.785,-18.821
52.48,-228.259,-18.913
52.51,-229.593,-18.936
52.54,-231.277,-19.119
52.57,-233.383,-19.348
52.61,-235.454,-19.44
52.64,-237.454,-19.635
52.67,-239.525,-19.83
52.7,-241.525,-19.956
52.74,-243.245,-20.001
52.77,-244.754,-20.093
52.8,-246.368,-20.23
52.83,-248.228,-20.368
52.87,-250.194,-20.471
52.9,-252.264,-20.666
52.93,-254.37,-20.803
52.96,-256.125,-20.895
53.0,-257.318,-20.803
53.03,-258.231,-20.803
53.06,-259.354,-20.929
53.09,-261.214,-21.032
53.13,-263.004,-21.204
53.16,-264.723,-21.388
53.19,-266.548,-21.456
53.22,-267.812,-21.388
53.26,-268.373,-21.307
53.29,-269.04,-21.365
53.32,-270.268,-21.456
53.35,-271.918,-21.594
53.39,-273.567,-21.708
53.42,-275.252,-21.846
53.45,-276.796,-21.949
53.48,-278.059,-21.926
53.52,-278.831,-21.903
53.55,-279.779,-21.995
53.58,-280.621,-21.903
53.62,-281.534,-21.857
53.65,-282.622,-21.96
53.68,-284.096,-22.063
53.71,-285.464,-22.132
53.75,-286.482,-22.121
53.78,-287.079,-22.063
53.81,-287.57,-22.018
53.84,-287.711,-21.869
53.88,-287.746,-21.766
53.91,-288.342,-21.914
53.94,-289.29,-22.006
53.97,-289.746,-21.972
54.01,-290.132,-22.04
54.04,-290.448,-21.983
54.07,-290.694,-21.926
54.1,-291.396,-22.189
54.14,-291.922,-21.972
54.17,-291.536,-21.788
54.2,-291.466,-21.937
54.23,-292.133,-21.903
54.27,-291.922,-21.628
54.3,-290.553,-21.502
54.33,-289.571,-21.456
54.36,-288.869,-21.296
54.4,-288.167,-21.388
54.43,-288.658,-21.64
54.46,-289.395,-21.708
54.49,-289.149,-21.651
54.53,-287.956,-21.514
54.56,-286.447,-21.261
54.59,-284.798,-21.044
54.62,-283.394,-20.918
54.66,-282.306,-20.872
54.69,-281.709,-21.044
54.72,-281.323,-21.158
54.75,-280.481,-21.021
54.79,-278.831,-20.849
54.82,-276.831,-20.7
54.85,-274.901,-20.528
54.88,-273.146,-20.425
54.92,-271.988,-20.471
54.95,-271.286,-20.597
54.98,-270.584,-20.609
55.01,-269.496,-20.586
55.05,-268.057,-20.483
55.08,-266.232,-20.253
55.11,-264.267,-20.116
55.15,-262.758,-20.013
55.18,-261.424,-19.864
55.21,-259.88,-19.795
55.24,-258.336,-19.726
55.28,-256.686,-19.623
55.31,-254.897,-19.474
55.34,-252.65,-19.28
55.37,-250.369,-19.119
55.41,-248.474,-19.108
55.44,-247.176,-19.073
55.47,-245.807,-18.97
55.5,-244.228,-18.879
55.54,-243.069,-19.062
55.57,-242.297,-18.947
55.6,-240.472,-18.547
55.63,-238.016,-18.375
55.67,-236.507,-18.352
55.7,-235.384,-18.168
55.73,-233.559,-17.859
55.76,-231.067,-17.699
55.8,-228.751,-17.584
55.83,-226.505,-17.298
55.86,-223.978,-16.977
55.89,-221.31,-16.851
55.93,-219.24,-16.805
55.96,-217.52,-16.691
55.99,-215.765,-16.599
56.02,-214.046,-16.507
56.06,-212.361,-16.427
56.09,-210.291,-16.129
56.12,-207.553,-15.877
56.15,-205.026,-15.683
56.19,-202.991,-15.488
56.22,-201.271,-15.373
56.25,-199.657,-15.247
56.28,-197.305,-14.881
56.32,-195.27,-14.938
56.35,-193.55,-14.801
56.38,-191.234,-14.319
56.41,-187.689,-13.896
56.45,-184.917,-13.861
56.48,-183.302,-13.827
56.51,-181.898,-13.529
56.54,-178.915,-13.071
56.58,-175.336,-12.853
56.61,-171.931,-12.647
56.64,-169.299,-12.418
56.67,-166.176,-12.051
56.71,-162.631,-11.639
56.74,-159.438,-11.673
56.77,-157.999,-11.845
56.81,-156.7,-11.559
56.84,-154.173,-11.089
56.87,-150.453,-10.917
56.9,-147.049,-10.631
56.94,-143.925,-10.276
56.97,-140.521,-9.921
57.0,-136.871,-9.6
57.03,-133.643,-9.485
57.07,-131.256,-9.428
57.1,-129.08,-9.199
57.13,-126.413,-8.89
57.16,-123.079,-8.626
57.2,-119.64,-8.351
57.23,-116.446,-8.088
57.26,-113.393,-7.859
57.29,-110.48,-7.595
57.33,-107.146,-7.251
57.36,-103.145,-6.85
57.39,-98.723,-6.472
57.42,-94.16,-6.129
57.46,-89.809,-5.831
57.49,-85.562,-5.51
57.52,-81.351,-5.235
57.55,-77.174,-4.96
57.59,-72.963,-4.72
57.62,-69.032,-4.525
57.65,-65.207,-4.296
57.68,-61.697,-4.078
57.72,-58.434,-3.918
57.75,-55.415,-3.746
57.78,-52.502,-3.517
57.81,-49.379,-3.288
57.85,-46.255,-3.059
57.88,-43.307,-2.818
57.91,-40.465,-2.612
57.94,-37.657,-2.371
57.98,-34.955,-2.142
58.01,-32.217,-1.867
58.04,-29.059,-1.546
58.07,-25.655,-1.214
58.11,-21.935,-0.894
58.14,-18.074,-0.596
58.17,-14.249,-0.263
58.2,-10.107,-0.023
58.24,-6.422,0.195
58.27,-2.597,0.401
58.3,1.404,0.538
58.34,5.58,0.653
58.37,9.616,0.813
58.4,13.091,0.951
58.43,15.863,1.226
58.47,18.46,1.684
58.5,21.478,2.222
58.53,24.988,2.52
58.56,28.918,2.692
58.6,32.709,3.173
58.63,36.92,3.608
58.66,41.026,3.757
58.69,44.431,3.803
58.73,47.028,4.021
58.76,49.765,4.239
58.79,52.538,4.456
58.82,56.082,4.834
58.86,60.223,5.258
58.89,64.154,5.43
58.92,67.348,5.613
58.95,70.155,5.911
58.99,73.384,6.209
59.02,76.578,6.484
59.05,79.491,6.564
59.08,82.439,6.862
59.12,85.738,7.343
59.15,89.458,7.584
59.18,93.037,7.836
59.21,96.336,8.191
59.25,99.776,8.489
59.28,103.11,8.718
59.31,106.689,9.096
59.34,110.304,9.416
59.38,113.673,9.52
59.41,117.043,9.921
59.44,120.587,10.195
59.47,123.991,10.379
59.51,127.01,10.642
59.54,130.203,10.929
59.57,133.292,11.192
59.6,135.994,11.261
59.64,138.661,11.49
59.67,141.82,11.925
59.7,145.259,12.177
59.73,148.242,12.292
59.77,150.874,12.555
59.8,153.506,12.842
59.83,156.384,13.025
59.87,159.262,13.323
59.9,162.456,13.644
59.93,165.685,13.896
59.96,168.633,14.113
60.0,171.3,14.319
60.03,173.756,14.457
60.06,176.213,14.663
60.09,178.915,14.961
60.13,182.214,15.305
60.16,185.724,15.557
60.19,188.918,15.786
60.22,191.901,16.026
60.26,194.498,16.164
60.29,196.603,16.198
60.32,198.604,16.393
60.35,201.096,16.553
60.39,203.552,16.714
60.42,205.763,16.885
60.45,207.693,17.046
60.48,209.483,17.16
60.52,211.063,17.275
60.55,212.431,17.286
60.58,213.8,17.435
60.61,215.59,17.768
60.65,218.152,18.111
60.68,220.819,18.306
60.71,223.03,18.512
60.74,225.206,18.776
60.78,227.452,18.902
60.81,228.786,18.787
60.84,229.733,18.844
60.87,231.804,19.268
60.91,234.436,19.36
60.94,236.226,19.36
60.97,237.244,19.486
61.0,239.069,19.738
61.04,241.42,19.956
61.07,243.35,19.967
61.1,244.754,19.978
61.13,246.017,20.185
61.17,248.088,20.402
61.2,250.369,20.471
61.23,252.299,20.62
61.26,254.124,20.78
61.3,255.809,20.849
61.33,257.213,20.872
61.36,258.617,20.929
61.4,260.196,21.055
61.43,261.916,21.135
61.46,263.6,21.204
61.49,265.25,21.365
61.53,267.004,21.456
61.56,268.198,21.376
61.59,268.619,21.296
61.62,269.461,21.319
61.66,270.584,21.445
61.69,272.163,21.548
61.72,273.708,21.743
61.75,275.497,21.88
61.79,277.007,21.926
61.82,278.094,21.903
61.85,278.796,21.857
61.88,279.112,21.743
61.92,279.849,21.8
61.95,281.078,21.892
61.98,282.622,21.995
62.01,283.71,22.029
62.05,284.657,22.155
62.08,285.956,22.235
62.11,286.938,22.166
62.14,286.903,21.857
62.18,286.658,21.788
62.21,287.184,21.972
62.24,288.834,22.121
62.27,289.5,21.983
62.31,289.5,21.892
62.34,289.992,22.121
62.37,290.904,22.144
62.4,291.255,21.903
62.44,290.904,21.857
62.47,291.01,22.04
62.5,292.097,22.029
62.53,292.484,21.96
62.57,292.519,21.972
62.6,292.448,21.914
62.63,292.062,21.72
62.66,291.185,21.571
62.7,290.378,21.41
62.73,289.781,21.399
62.76,289.922,21.571
62.79,290.308,21.617
62.83,289.957,21.548
62.86,288.728,21.433
62.89,287.079,21.25
62.93,285.745,21.055
62.96,284.377,20.906
62.99,283.148,20.883
63.02,282.376,20.998
63.06,281.709,21.067
63.09,280.656,20.941
63.12,278.867,20.735
63.15,276.55,20.574
63.19,274.374,20.414
63.22,272.198,20.322
63.25,271.111,20.425
63.28,270.444,20.643
63.32,269.847,20.689
63.35,268.829,20.62
63.38,267.32,20.597
63.41,265.916,20.437
63.45,264.337,20.219
63.48,262.688,20.208
63.51,261.705,20.173
63.54,260.582,20.036
63.58,259.283,19.967
63.61,257.915,19.956
63.64,256.406,19.795
63.67,254.405,19.509
63.71,252.124,19.348
63.74,250.229,19.257
63.77,248.544,19.142
63.8,246.579,18.913
63.84,244.859,18.936
63.87,243.561,19.005
63.9,241.841,18.673
63.93,239.139,18.386
63.97,236.752,18.409
64.0,235.489,18.386
64.03,234.19,18.214
64.06,232.576,18.077
64.1,230.611,17.997
64.13,228.61,17.825
64.16,226.54,17.561
64.19,223.943,17.286
64.23,221.486,17.103
64.26,219.24,17.011
64.29,217.52,16.92
64.32,215.871,16.771
64.36,213.976,16.725
64.39,212.326,16.588
64.42,210.361,16.381
64.46,207.904,16.084
64.49,205.342,15.843
64.52,203.131,15.74
64.55,201.482,15.58
64.59,199.832,15.373
64.62,197.972,15.27
64.65,196.007,15.156
64.68,193.936,14.835
64.72,191.058,14.457
64.75,187.97,14.182
64.78,185.057,13.976
64.81,182.635,13.747
64.85,180.249,13.552
64.88,178.143,13.426
64.91,175.616,13.117
64.94,172.318,12.807
64.98,169.089,12.578
65.01,166.527,12.498
65.04,163.614,12.04
65.07,160.455,11.776
65.11,157.823,11.925
65.14,156.349,11.719
65.17,154.875,11.627
65.2,151.892,11.089
65.24,147.926,10.551
65.27,143.645,10.447
65.3,139.96,10.001
65.33,136.38,9.577
65.37,133.046,9.554
65.4,130.765,9.577
65.43,128.624,9.313
65.46,125.851,8.981
65.5,122.482,8.775
65.53,119.183,8.511
65.56,116.025,8.202
65.59,113.077,7.962
65.63,110.55,7.813
65.66,107.777,7.503
65.69,104.338,7.068
65.72,99.951,6.667
65.76,95.108,6.22
65.79,90.019,5.854
65.82,85.316,5.556
65.85,81.07,5.304
65.89,77.49,5.201
65.92,74.332,5.052
65.95,71.103,4.8
65.99,67.699,4.582
66.02,64.645,4.433
66.05,61.838,4.25
66.08,59.171,4.032
66.12,56.187,3.78
66.15,52.959,3.505
66.18,49.695,3.208
66.21,46.291,2.921
66.25,42.535,2.532
66.28,38.254,2.085
66.31,33.656,1.753
66.34,29.41,1.535
66.38,25.62,1.329
66.41,22.25,1.146
66.44,19.302,0.985
66.47,16.214,0.779
66.51,12.845,0.515
66.54,9.265,0.355
66.57,6.036,0.229
66.6,2.808,0.115
66.64,-0.316,-0.023
66.67,-3.65,-0.126
66.7,-7.019,-0.263
66.73,-10.493,-0.573
66.77,-14.249,-0.962
66.8,-18.039,-1.306
66.83,-21.268,-1.73
66.86,-24.496,-2.257
66.9,-28.287,-2.772
66.93,-32.919,-3.116
66.96,-37.692,-3.276
66.99,-41.237,-3.494
67.03,-44.325,-3.689
67.06,-46.992,-3.792
67.09,-49.379,-4.032
67.12,-52.538,-4.387
67.16,-56.223,-4.731
67.19,-59.978,-5.04
67.22,-63.698,-5.338
67.25,-66.891,-5.556
67.29,-69.91,-5.831
67.32,-72.858,-6.083
67.35,-76.157,-6.381
67.38,-79.842,-6.747
67.42,-83.632,-7.034
67.45,-87.317,-7.24
67.48,-90.721,-7.595
67.52,-94.09,-7.904
67.55,-97.424,-8.042
67.58,-100.232,-8.259
67.61,-102.829,-8.489
67.65,-105.566,-8.741
67.68,-108.339,-9.004
67.71,-111.813,-9.416
67.74,-115.884,-9.817
67.78,-120.166,-10.195
67.81,-123.851,-10.356
67.84,-126.764,-10.516
67.87,-129.431,-10.871
67.91,-132.449,-11.055
67.94,-135.608,-11.249
67.97,-138.802,-11.536
68.0,-142.136,-11.845
68.04,-145.47,-12.143
68.07,-148.453,-12.292
68.1,-151.085,-12.509
68.13,-154.068,-12.819
68.17,-157.086,-13.082
68.2,-160.28,-13.3
68.23,-163.474,-13.563
68.26,-166.562,-13.827
68.3,-169.229,-13.964
68.33,-171.44,-14.102
68.36,-173.721,-14.285
68.39,-175.967,-14.434
68.43,-178.389,-14.663
68.46,-181.302,-14.984
68.49,-184.776,-15.408
68.52,-188.356,-15.694
68.56,-191.69,-15.889
68.59,-194.322,-16.026
68.62,-196.568,-16.198
68.65,-198.885,-16.267
68.69,-200.885,-16.404
68.72,-203.131,-16.53
68.75,-205.447,-16.737
68.78,-207.693,-16.92
68.82,-209.554,-17.0
68.85,-210.992,-17.057
68.88,-212.291,-17.218
68.91,-213.765,-17.367
68.95,-215.555,-17.527
68.98,-217.59,-17.79
69.01,-220.047,-18.088
69.05,-222.328,-18.34
69.08,-224.504,-18.512
69.11,-226.189,-18.569
69.14,-227.277,-18.65
69.18,-228.645,-18.787
69.21,-230.716,-18.97
69.24,-232.927,-19.177
69.27,-234.998,-19.303
69.31,-236.682,-19.52
69.34,-238.858,-19.818
69.37,-241.385,-19.944
69.4,-243.245,-19.978
69.44,-244.894,-20.104
69.47,-246.579,-20.219
69.5,-248.509,-20.288
69.53,-250.369,-20.402
69.57,-252.264,-20.586
69.6,-254.195,-20.712
69.63,-255.704,-20.654
69.66,-256.546,-20.609
69.7,-257.458,-20.689
69.73,-258.968,-20.792
69.76,-260.617,-20.918
69.79,-262.372,-21.078
69.83,-264.021,-21.216
69.86,-265.565,-21.388
69.89,-267.11,-21.388
69.92,-268.163,-21.319
69.96,-269.04,-21.399
69.99,-270.268,-21.468
70.02,-271.707,-21.525
70.05,-273.216,-21.685
70.09,-274.866,-21.8
70.12,-276.48,-21.869
70.15,-277.744,-21.869
70.18,-278.726,-21.914
70.22,-279.744,-21.914
70.25,-280.902,-21.949
70.28,-282.236,-22.006
70.31,-283.675,-22.086
70.35,-285.078,-22.132
70.38,-286.342,-22.155
70.41,-287.149,-22.029
70.44,-287.395,-21.892
70.48,-287.5,-21.834
70.51,-287.64,-21.72
70.54,-287.921,-21.685
70.58,-288.658,-21.983
70.61,-289.851,-21.995
70.64,-290.273,-21.949
70.67,-290.413,-21.972
70.71,-291.08,-22.121
70.74,-291.22,-21.949
70.77,-290.553,-21.628
70.8,-290.378,-21.914
70.84,-291.676,-22.063
70.87,-292.168,-21.857
70.9,-291.571,-21.788
70.93,-291.045,-21.846
70.97,-290.659,-21.662
71.0,-289.851,-21.41
71.03,-288.799,-21.365
71.06,-288.342,-21.468
71.1,-288.448,-21.628
71.13,-288.693,-21.708
71.16,-288.377,-21.674
71.19,-287.36,-21.536
71.23,-286.096,-21.33
71.26,-284.833,-21.158
71.29,-283.429,-21.021
71.32,-282.411,-21.044
71.36,-282.025,-21.193
71.39,-281.709,-21.273
71.42,-280.797,-21.124
71.45,-279.218,-20.918
71.49,-277.042,-20.735
71.52,-274.971,-20.551
71.55,-273.181,-20.437
71.58,-271.777,-20.551
71.62,-271.321,-20.7
71.65,-270.76,-20.654
71.68,-269.566,-20.654
71.71,-268.092,-20.551
71.75,-266.162,-20.288
71.78,-263.881,-20.104
71.81,-261.916,-19.99
71.84,-260.371,-19.887
71.88,-258.897,-19.864
71.91,-257.494,-19.864
71.94,-256.265,-19.841
71.97,-254.721,-19.749
72.01,-252.58,-19.497
72.04,-250.369,-19.36
72.07,-248.72,-19.406
72.11,-247.948,-19.394
72.14,-246.719,-19.234
72.17,-244.719,-19.096
72.2,-243.35,-19.142
72.24,-242.122,-19.028
72.27,-240.262,-18.615
72.3,-237.84,-18.478
72.33,-235.98,-18.466
72.37,-234.647,-18.317
72.4,-232.576,-17.985
72.43,-230.154,-17.848
72.46,-228.575,-17.962
72.5,-227.312,-17.756
72.53,-224.89,-17.321
72.56,-221.977,-17.16
72.59,-219.766,-17.149
72.63,-218.117,-16.977
72.66,-216.467,-16.817
72.69,-214.748,-16.759
72.72,-213.028,-16.656
72.76,-211.133,-16.439
72.79,-208.536,-16.061
72.82,-205.658,-15.809
72.85,-203.201,-15.66
72.89,-201.376,-15.522
72.92,-199.727,-15.442
72.95,-198.218,-15.328
72.98,-196.463,-15.121
73.02,-193.971,-14.823
73.05,-190.813,-14.491
73.08,-187.935,-14.205
73.11,-185.057,-13.907
73.15,-182.144,-13.644
73.18,-179.617,-13.552
73.21,-177.441,-13.437
73.24,-174.985,-13.151
73.28,-171.896,-12.842
73.31,-168.913,-12.693
73.34,-166.141,-12.509
73.37,-163.403,-12.223
73.41,-160.49,-11.902
73.44,-158.209,-11.96
73.47,-155.963,-11.719
73.5,-152.875,-11.192
73.54,-149.365,-11.089
73.57,-146.382,-10.906
73.6,-143.61,-10.539
73.64,-140.486,-10.253
73.67,-137.012,-10.035
73.7,-134.169,-9.852
73.73,-131.607,-9.68
73.77,-128.87,-9.462
73.8,-125.922,-9.153
73.83,-122.588,-8.844
73.86,-119.148,-8.58
73.9,-115.919,-8.317
73.93,-112.866,-8.076
73.96,-109.988,-7.824
73.99,-106.689,-7.492
74.03,-102.829,-7.091
74.06,-98.442,-6.736
74.09,-93.915,-6.415
74.12,-89.493,-6.06
74.16,-85.316,-5.785
74.19,-81.386,-5.579
74.22,-77.701,-5.338
74.25,-74.051,-5.098
74.29,-70.436,-4.926
74.32,-67.102,-4.777
74.35,-63.979,-4.479
74.38,-60.539,-4.193
74.42,-57.205,-4.021
74.45,-54.257,-3.872
74.48,-51.485,-3.62
74.51,-48.537,-3.322
74.55,-45.273,-3.07
74.58,-41.904,-2.761
74.61,-38.254,-2.406
74.64,-34.639,-2.154
74.68,-31.2,-1.947
74.71,-27.866,-1.627
74.74,-24.005,-1.203
74.77,-19.864,-0.928
74.81,-15.898,-0.676
74.84,-12.003,-0.435
74.87,-8.142,-0.172
74.9,-4.247,0.069
74.94,-0.632,0.252
74.97,2.983,0.355
75.0,6.458,0.424
75.03,9.686,0.596
75.07,12.634,0.848
75.1,15.372,1.191
75.13,17.969,1.592
75.17,20.25,1.97
75.2,23.022,2.497
75.23,27.129,2.887
75.26,31.34,3.173
75.3,34.92,3.471
75.33,38.184,3.723
75.36,41.412,3.975
75.39,44.817,4.296
75.43,48.642,4.571
75.46,52.327,4.788
75.49,55.872,5.052
75.52,59.311,5.327
75.56,62.68,5.544
75.59,66.084,5.865
75.62,69.804,6.175
75.65,73.384,6.449
75.69,76.894,6.679
75.72,80.228,6.954
75.75,83.842,7.286
75.78,87.633,7.595
75.82,91.493,7.859
75.85,94.897,8.122
75.88,98.056,8.317
75.91,101.004,8.546
75.95,103.847,8.786
75.98,106.83,9.004
76.01,110.023,9.371
76.04,113.744,9.737
76.08,117.534,10.001
76.11,120.938,10.287
76.14,123.991,10.436
76.17,126.483,10.631
76.21,129.01,10.848
76.24,132.274,11.261
76.27,135.854,11.547
76.3,139.503,11.776
76.34,142.873,12.109
76.37,145.856,12.303
76.4,148.242,12.406
76.43,150.558,12.555
76.47,152.98,12.876
76.5,155.998,13.14
76.53,159.192,13.403
76.56,162.456,13.735
76.6,165.649,14.045
76.63,168.703,14.274
76.66,171.545,14.457
76.7,174.072,14.606
76.73,176.318,14.789
76.76,178.88,15.041
76.79,181.969,15.35
76.83,185.303,15.694
76.86,188.567,15.912
76.89,191.971,16.244
76.92,195.621,16.565
76.96,198.99,16.691
76.99,201.762,16.794
77.02,204.324,16.908
77.05,206.606,17.092
77.09,208.922,17.16
77.12,210.957,17.206
77.15,213.098,17.401
77.18,215.765,17.687
77.22,218.889,17.939
77.25,222.012,18.168
77.28,224.715,18.352
77.31,226.926,18.466
77.35,228.751,18.478
77.38,230.4,18.547
77.41,231.804,18.569
77.44,232.857,18.512
77.48,233.173,18.421
77.51,233.559,18.524
77.54,235.033,18.799
77.57,237.209,19.096
77.61,239.209,19.303
77.64,240.648,19.417
77.67,241.771,19.612
77.7,243.21,19.795
77.74,244.543,19.807
77.77,245.807,19.91
77.8,247.491,20.185
77.83,249.562,20.379
77.87,251.387,20.46
77.9,253.001,20.586
77.93,254.721,20.769
77.96,256.406,20.792
78.0,257.845,20.883
78.03,259.634,21.055
78.06,261.916,21.273
78.09,264.232,21.399
78.13,266.022,21.422
78.16,267.355,21.422
78.19,268.689,21.514
78.23,269.987,21.422
78.26,270.654,21.239
78.29,271.181,21.296
78.32,272.549,21.479
78.36,274.234,21.548
78.39,275.568,21.674
78.42,277.007,21.766
78.45,278.165,21.846
78.49,279.218,21.8
78.52,279.884,21.754
78.55,280.727,21.823
78.58,282.095,21.926
78.62,283.604,22.006
78.65,285.184,22.178
78.68,286.868,22.235
78.71,288.097,22.201
78.75,288.658,22.075
78.78,288.834,21.846
78.81,288.728,21.743
78.84,288.623,21.697
78.88,289.009,21.754
78.91,290.097,21.96
78.94,291.15,22.006
78.97,291.36,21.857
79.01,290.974,21.857
79.04,291.08,21.892
79.07,291.325,21.777
79.1,291.325,21.731
79.14,291.782,21.88
79.17,292.659,22.006
79.2,293.185,21.926
79.23,292.87,21.777
79.27,291.852,21.685
79.3,291.396,21.571
79.33,288.869,20.998
79.36,276.761,18.134
79.4,257.283,15.625
79.43,245.28,16.794
79.46,247.667,19.199
79.49,254.37,20.104
79.53,255.072,20.941
79.56,254.405,22.728
79.59,258.406,23.862
79.62,264.864,24.137
79.66,270.9,24.538
79.69,276.059,24.904
79.72,280.025,24.526
79.76,282.166,23.862
79.79,283.218,23.197
79.82,282.973,22.281
79.85,281.183,21.239
79.89,278.445,20.574
79.92,276.305,20.23
79.95,274.62,20.001
79.98,272.865,19.818
80.02,270.724,19.852
80.05,269.005,19.978
80.08,267.18,19.887
80.11,265.074,19.807
80.15,263.6,19.898
80.18,262.723,20.013
80.21,261.88,19.933
80.24,260.371,19.818
80.28,258.827,19.818
80.31,257.529,19.704
80.34,255.914,19.417
80.37,253.703,19.199
80.41,251.913,19.211
80.44,250.72,19.188
80.47,249.316,18.947
80.5,247.456,18.821
80.54,245.877,18.833
80.57,244.438,18.65
80.6,242.368,18.34
80.63,239.771,18.134
80.67,237.77,18.123
80.7,236.366,18.1
80.73,234.822,17.836
80.76,232.401,17.676
80.8,230.33,17.71
80.83,228.435,17.481
80.86,226.083,17.16
80.89,223.065,16.897
80.93,221.205,16.977
80.96,220.293,17.011
80.99,218.854,16.622
81.02,215.906,16.404
81.06,213.695,16.427
81.09,212.115,16.255
81.12,210.01,15.797
81.15,207.062,15.522
81.19,204.535,15.511
81.22,202.85,15.419
81.25,201.306,15.202
81.29,199.306,15.075
81.32,197.13,14.927
81.35,194.919,14.697
81.38,192.041,14.251
81.42,188.637,13.896
81.45,185.689,13.792
81.48,183.372,13.609
81.51,181.232,13.403
81.55,178.845,13.254
81.58,176.248,13.048
81.61,173.756,12.83
81.64,171.37,12.67
81.68,168.597,12.326
81.71,165.404,11.902
81.74,162.0,11.73
81.77,159.227,11.616
81.81,156.56,11.215
81.84,153.085,10.86
81.87,149.155,10.562
81.9,145.049,10.23
81.94,141.118,9.955
81.97,137.398,9.726
82.0,134.415,9.623
82.03,132.133,9.6
82.07,130.519,9.474
82.1,128.554,9.302
82.13,125.781,8.981
82.16,122.202,8.557
82.2,118.552,8.305
82.23,115.604,8.145
82.26,113.147,7.916
82.29,110.725,7.618
82.33,107.672,7.297
82.36,104.022,6.976
82.39,100.056,6.575
82.42,95.599,6.163
82.46,91.037,5.774
82.49,86.545,5.487
82.52,82.579,5.292
82.55,79.034,5.132
82.59,75.841,4.914
82.62,72.472,4.651
82.65,68.857,4.376
82.68,65.137,4.181
82.72,61.662,3.941
82.75,58.293,3.677
82.78,55.135,3.505
82.82,52.257,3.299
82.85,49.239,3.001
82.88,45.905,2.704
82.91,42.255,2.394
82.95,38.148,1.993
82.98,33.832,1.695
83.01,30.006,1.501
83.04,26.497,1.306
83.08,23.338,1.1
83.11,20.285,0.894
83.14,17.126,0.71
83.17,13.792,0.47
83.21,10.283,0.252
83.24,6.633,0.034
83.27,2.983,-0.126
83.3,-0.772,-0.183
83.34,-4.422,-0.218
83.37,-7.475,-0.298
83.4,-9.932,-0.389
83.43,-12.073,-0.676
83.47,-14.6,-1.157
83.5,-17.758,-1.707
83.53,-21.408,-2.268
83.56,-25.62,-2.818
83.6,-30.077,-3.311
83.63,-34.92,-3.666
83.66,-39.622,-3.723
83.69,-42.886,-3.849
83.73,-46.115,-4.193
83.76,-49.625,-4.456
83.79,-53.134,-4.639
83.82,-56.924,-4.96
83.86,-60.469,-5.292
83.89,-63.943,-5.43
83.92,-66.927,-5.648
83.95,-69.98,-6.003
83.99,-73.279,-6.278
84.02,-76.788,-6.518
84.05,-79.877,-6.77
84.08,-82.263,-6.828
84.12,-84.966,-7.183
84.15,-88.58,-7.813
84.18,-92.897,-8.065
84.21,-96.582,-8.168
84.25,-99.635,-8.523
84.28,-102.899,-8.912
84.31,-106.444,-9.107
84.35,-110.164,-9.439
84.38,-113.638,-9.691
84.41,-117.183,-9.955
84.44,-120.833,-10.367
84.48,-124.167,-10.482
84.51,-126.834,-10.573
84.54,-129.431,-10.906
84.57,-132.66,-11.238
84.61,-136.205,-11.49
84.64,-139.539,-11.742
84.67,-142.838,-12.028
84.7,-145.926,-12.269
84.74,-148.523,-12.406
84.77,-151.085,-12.613
84.8,-153.857,-12.876
84.83,-156.454,-13.036
84.87,-159.052,-13.231
84.9,-162.035,-13.609
84.93,-165.228,-13.896
84.96,-168.001,-14.045
85.0,-170.282,-14.216
85.03,-172.633,-14.48
85.06,-175.371,-14.675
85.09,-177.968,-14.892
85.13,-180.951,-15.247
85.16,-184.496,-15.706
85.19,-188.391,-16.003
85.22,-191.866,-16.164
85.26,-194.427,-16.324
85.29,-196.849,-16.439
85.32,-199.06,-16.519
85.35,-201.271,-16.599
85.39,-203.482,-16.702
85.42,-205.693,-16.943
85.45,-208.009,-17.069
85.48,-209.694,-17.149
85.52,-211.133,-17.206
85.55,-212.326,-17.321
85.58,-213.625,-17.447
85.61,-215.344,-17.63
85.65,-217.274,-17.882
85.68,-219.31,-18.168
85.71,-221.416,-18.375
85.74,-223.697,-18.627
85.78,-226.048,-18.844
85.81,-228.259,-19.028
85.84,-230.365,-19.154
85.88,-232.611,-19.394
85.91,-235.208,-19.623
85.94,-237.7,-19.692
85.97,-239.771,-19.795
86.01,-241.736,-19.921
86.04,-243.456,-19.887
86.07,-244.403,-19.761
86.1,-245.21,-19.852
86.14,-246.649,-19.99
86.17,-248.264,-20.093
86.2,-249.667,-20.208
86.23,-251.633,-20.483
86.27,-253.809,-20.757
86.3,-255.423,-20.746
86.33,-256.3,-20.712
86.36,-257.353,-20.861
86.4,-259.003,-21.009
86.43,-261.003,-21.067
86.46,-262.828,-21.284
86.49,-264.688,-21.456
86.53,-266.408,-21.479
86.56,-267.601,-21.479
86.59,-268.443,-21.422
86.62,-269.426,-21.422
86.66,-270.549,-21.468
86.69,-272.093,-21.605
86.72,-273.813,-21.743
86.75,-275.462,-21.869
86.79,-277.112,-22.006
86.82,-278.551,-22.006
86.85,-279.428,-21.903
86.88,-280.27,-21.949
86.92,-280.937,-21.846
86.95,-281.393,-21.766
86.98,-282.481,-21.995
87.01,-284.271,-22.132
87.05,-285.043,-21.949
87.08,-285.5,-22.018
87.11,-286.552,-22.178
87.14,-288.132,-22.201
87.18,-288.202,-21.857
87.21,-287.781,-21.926
87.24,-288.763,-22.258
87.27,-290.202,-22.006
87.31,-290.869,-22.098
87.34,-291.36,-22.212
87.37,-291.782,-22.121
87.41,-291.255,-21.811
87.44,-291.115,-21.926
87.47,-291.676,-22.018
87.5,-291.852,-21.788
87.54,-291.466,-21.788
87.57,-291.325,-21.857
87.6,-291.15,-21.731
87.63,-290.413,-21.525
87.67,-289.395,-21.491
87.7,-288.658,-21.456
87.73,-288.132,-21.502
87.76,-288.342,-21.72
87.8,-289.044,-21.834
87.83,-288.834,-21.777
87.86,-287.816,-21.64
87.89,-286.342,-21.399
87.93,-285.043,-21.158
87.96,-283.604,-21.021
87.99,-282.516,-20.975
88.02,-281.85,-21.044
88.06,-281.218,-21.158
88.09,-280.446,-21.067
88.12,-278.902,-20.918
88.15,-276.831,-20.815
88.19,-274.971,-20.689
88.22,-273.392,-20.494
88.25,-272.023,-20.54
88.28,-271.286,-20.677
88.32,-270.479,-20.689
88.35,-269.356,-20.609
88.38,-267.671,-20.494
88.41,-265.565,-20.185
88.45,-262.933,-19.933
88.48,-260.687,-19.864
88.51,-259.213,-19.864
88.54,-258.09,-19.875
88.58,-256.897,-19.898
88.61,-255.739,-19.967
88.64,-254.651,-19.898
88.67,-253.036,-19.658
88.71,-251.001,-19.532
88.74,-249.492,-19.452
88.77,-248.228,-19.303
88.8,-246.719,-19.165
88.84,-245.035,-19.062
88.87,-243.631,-19.005
88.9,-242.438,-18.902
88.94,-240.858,-18.673
88.97,-239.034,-18.547
89.0,-237.7,-18.615
89.03,-236.331,-18.329
89.07,-234.05,-17.974
89.1,-231.172,-17.756
89.13,-228.365,-17.493
89.16,-225.662,-17.252
89.2,-223.1,-17.023
89.23,-220.398,-16.863
89.26,-218.047,-16.84
89.29,-216.257,-16.817
89.33,-214.783,-16.84
89.36,-213.625,-16.805
89.39,-212.326,-16.737
89.42,-210.431,-16.473
89.46,-208.115,-16.187
89.49,-205.763,-15.958
89.52,-203.763,-15.774
89.55,-202.008,-15.591
89.59,-200.499,-15.465
89.62,-198.744,-15.236
89.65,-196.498,-14.995
89.68,-193.655,-14.629
89.72,-190.427,-14.354
89.75,-186.952,-13.953
89.78,-183.969,-13.815
89.81,-182.214,-13.884
89.85,-180.951,-13.678
89.88,-178.073,-13.22
89.91,-174.493,-13.002
89.94,-171.721,-12.979
89.98,-169.615,-12.647
90.01,-166.878,-12.361
90.04,-163.895,-12.12
90.07,-161.017,-11.96
90.11,-158.841,-11.914
90.14,-156.805,-11.639
90.17,-154.033,-11.238
90.2,-150.945,-11.02
90.24,-147.505,-10.711
90.27,-143.645,-10.23
90.3,-139.398,-9.852
90.33,-135.538,-9.646
90.37,-132.59,-9.554
90.4,-130.379,-9.451
90.43,-128.203,-9.302
90.47,-125.536,-9.073
90.5,-122.412,-8.752
90.53,-118.903,-8.466
90.56,-115.604,-8.237
90.6,-112.691,-8.007
90.63,-110.023,-7.755
90.66,-106.97,-7.423
90.69,-103.215,-7.011
90.73,-98.828,-6.644
90.76,-94.16,-6.22
90.79,-89.388,-5.819
90.82,-84.544,-5.533
90.86,-80.473,-5.373
90.89,-76.894,-5.132
90.92,-73.244,-4.926
90.95,-69.875,-4.788
90.99,-66.821,-4.651
91.02,-63.908,-4.41
91.05,-60.645,-4.158
91.08,-57.416,-3.929
91.12,-54.292,-3.712
91.15,-51.239,-3.425
91.18,-47.87,-3.139
91.21,-44.571,-2.864
91.25,-41.377,-2.623
91.28,-38.043,-2.28
91.31,-34.148,-1.902
91.34,-30.112,-1.581
91.38,-26.006,-1.294
91.41,-22.145,-1.077
91.44,-18.53,-0.848
91.47,-15.021,-0.596
91.51,-11.441,-0.355
91.54,-7.896,-0.115
91.57,-4.562,0.011
91.6,-1.685,0.103
91.64,1.474,0.321
91.67,4.984,0.504
91.7,8.247,0.504
91.73,11.09,0.687
91.77,14.143,1.168
91.8,17.267,1.569
91.83,20.355,1.97
91.86,23.514,2.543
91.9,27.69,3.059
91.93,32.182,3.276
91.96,36.008,3.494
92.0,39.622,3.861
92.03,43.132,4.055
92.06,46.431,4.204
92.09,49.59,4.433
92.13,53.204,4.777
92.16,57.03,5.063
92.19,60.68,5.247
92.22,63.943,5.441
92.26,67.207,5.762
92.29,70.612,6.083
92.32,73.84,6.209
92.35,76.578,6.415
92.39,79.561,6.759
92.42,82.86,7.08
92.45,85.738,7.148
92.48,88.861,7.572
92.52,92.827,8.122
92.55,97.354,8.466
92.58,101.18,8.615
92.61,104.514,8.912
92.65,107.672,9.199
92.68,110.69,9.382
92.71,113.322,9.451
92.74,116.481,9.898
92.78,120.131,10.321
92.81,123.956,10.447
92.84,126.799,10.585
92.87,129.361,10.825
92.91,132.344,11.181
92.94,135.783,11.433
92.97,139.468,11.753
93.0,142.662,11.971
93.04,145.54,12.223
93.07,148.418,12.498
93.1,151.506,12.681
93.13,154.594,12.968
93.17,157.823,13.254
93.2,160.982,13.483
93.23,164.105,13.712
93.26,166.913,13.941
93.3,169.58,14.056
93.33,171.651,14.171
93.36,173.792,14.388
93.39,176.143,14.56
93.43,178.74,14.881
93.46,182.6,15.465
93.49,187.338,15.935
93.53,191.55,16.095
93.56,194.708,16.313
93.59,197.797,16.611
93.62,200.674,16.633
93.66,202.71,16.53
93.69,204.184,16.553
93.72,205.798,16.656
93.75,207.623,16.737
93.79,209.167,16.794
93.82,210.396,16.897
93.85,211.168,16.989
93.88,211.624,17.011
93.92,212.186,17.115
93.95,213.133,17.355
93.98,214.677,17.642
94.01,216.608,17.951
94.05,218.924,18.306
94.08,221.346,18.65
94.11,223.767,18.867
94.14,225.978,19.085
94.18,228.329,19.291
94.21,230.646,19.429
94.24,232.787,19.52
94.27,234.717,19.635
94.31,236.542,19.692
94.34,239.069,19.921
94.37,241.841,20.185
94.4,243.947,20.082
94.44,244.754,20.013
94.47,245.842,20.173
94.5,247.878,20.322
94.53,250.053,20.368
94.57,251.949,20.586
94.6,253.598,20.654
94.63,254.897,20.654
94.66,255.914,20.735
94.7,257.318,20.803
94.73,258.897,20.872
94.76,260.371,20.975
94.79,261.67,21.113
94.83,263.109,21.25
94.86,265.144,21.433
94.89,267.355,21.582
94.92,269.005,21.617
94.96,270.198,21.571
94.99,271.356,21.617
95.02,272.655,21.64
95.06,274.023,21.651
95.09,275.497,21.685
95.12,276.866,21.8
95.15,278.235,21.846
95.19,279.323,21.823
95.22,280.341,21.914
95.25,281.534,21.926
95.28,282.657,21.88
95.32,283.604,21.96
95.35,284.868,22.018
95.38,285.886,21.96
95.41,286.623,21.949
95.45,287.289,21.926
95.48,287.851,21.892
95.51,288.132,21.811
95.54,288.237,21.766
95.58,289.114,21.926
95.61,290.273,22.075
95.64,290.308,21.754
95.67,290.132,21.914
95.71,290.764,22.018
95.74,291.606,21.88
95.77,291.747,21.903
95.8,291.606,21.788
95.84,291.536,21.811
95.87,291.957,21.857
95.9,292.168,21.743
95.93,290.799,21.41
95.97,287.851,20.895
96.0,284.447,20.597
96.03,282.341,20.597
96.06,281.464,20.78
96.1,281.85,21.204
96.13,282.938,21.662
96.16,284.026,22.075
96.19,285.219,22.235
96.23,285.956,22.247
96.26,286.903,22.27
96.29,287.956,22.166
96.32,288.623,21.983
96.36,289.079,21.926
96.39,289.325,21.685
96.42,288.518,21.216
96.45,286.412,20.746
96.49,283.569,20.402
96.52,280.762,20.013
96.55,277.638,19.704
96.59,274.936,19.726
96.62,273.251,19.818
96.65,271.567,19.887
96.68,269.847,19.967
96.72,268.092,20.036
96.75,266.373,20.036
96.78,264.723,19.967
96.81,263.144,19.898
96.85,261.459,19.864
96.88,259.74,19.83
96.91,257.88,19.704
96.94,256.265,19.681
96.98,254.826,19.612
97.01,253.036,19.348
97.04,250.615,19.108
97.07,248.264,19.142
97.11,247.0,19.142
97.14,245.245,18.799
97.17,242.859,18.65
97.2,241.42,18.913
97.24,240.823,18.856
97.27,238.788,18.363
97.3,236.121,18.26
97.33,234.927,18.558
97.37,234.576,18.386
97.4,233.173,18.042
97.43,231.102,17.962
97.46,229.417,17.939
97.5,227.838,17.642
97.53,225.487,17.286
97.56,222.784,17.057
97.59,220.187,16.874
97.63,217.976,16.679
97.66,216.046,16.611
97.69,214.397,16.507
97.72,212.642,16.347
97.76,210.466,16.164
97.79,207.904,15.98
97.82,205.412,15.751
97.85,203.307,15.591
97.89,201.517,15.488
97.92,200.113,15.419
97.95,198.674,15.236
97.98,196.603,15.007
98.02,194.041,14.686
98.05,190.953,14.308
98.08,187.865,14.067
98.12,185.127,13.85
98.15,182.811,13.598
98.18,180.705,13.575
98.21,179.126,13.483
98.25,176.74,13.117
98.28,173.265,12.716
98.31,169.861,12.509
98.34,166.913,12.315
98.38,164.0,11.937
98.41,161.157,11.788
98.44,158.56,11.65
98.47,155.612,11.261
98.51,152.383,11.043
98.54,149.506,10.883
98.57,146.663,10.573
98.6,143.504,10.287
98.64,140.662,10.173
98.67,138.275,10.035
98.7,135.538,9.703
98.73,132.414,9.359
98.77,129.256,9.187
98.8,126.413,8.993
98.83,123.57,8.626
98.86,120.377,8.317
98.9,117.043,8.088
98.93,113.814,7.847
98.96,110.901,7.652
98.99,107.988,7.332
99.03,104.303,6.908
99.06,99.776,6.461
99.09,94.792,6.049
99.12,89.774,5.705
99.16,85.141,5.396
99.19,81.07,5.178
99.22,77.56,5.086
99.25,74.472,4.914
99.29,71.033,4.639
99.32,67.278,4.399
99.35,63.522,4.158
99.38,59.978,3.872
99.42,56.468,3.654
99.45,53.31,3.494
99.48,50.291,3.288
99.51,47.343,3.036
99.55,44.255,2.772
99.58,40.921,2.486
99.61,37.271,2.188
99.65,33.762,1.959
99.68,30.568,1.695
99.71,27.339,1.42
99.74,24.04,1.203
99.78,20.636,0.974
99.81,17.372,0.745
99.84,13.828,0.493
99.87,10.002,0.229
99.91,6.317,0.034
99.94,2.457,-0.126
99.97,-1.79,-0.309
100.0,-5.861,-0.344
100.04,-9.055,-0.332
100.07,-11.371,-0.424
100.1,-13.547,-0.871
100.13,-16.495,-1.443
100.17,-19.794,-1.959
100.2,-23.619,-2.463
100.23,-27.69,-2.933
100.26,-32.217,-3.23
100.3,-36.604,-3.253
100.33,-39.587,-3.471
100.36,-42.606,-3.723
100.39,-45.518,-3.895
100.43,-48.537,-4.204
100.46,-51.906,-4.468
100.49,-55.31,-4.743
100.52,-58.679,-5.04
100.56,-62.189,-5.384
100.59,-65.839,-5.67
100.62,-69.418,-5.968
100.65,-72.647,-6.197
100.69,-75.806,-6.449
100.72,-79.07,-6.805
100.75,-82.825,-7.206
100.78,-86.966,-7.492
100.82,-90.967,-7.778
100.85,-94.547,-8.088
100.88,-97.74,-8.282
100.91,-100.618,-8.466
100.95,-103.531,-8.741
100.98,-107.005,-9.107
101.01,-111.006,-9.451
101.04,-114.937,-9.68
101.08,-118.446,-9.921
101.11,-121.71,-10.23
101.14,-124.623,-10.39
101.18,-127.29,-10.539
101.21,-129.712,-10.768
101.24,-132.73,-11.1
101.27,-136.169,-11.444
101.31,-140.135,-11.811
101.34,-143.294,-11.937
101.37,-145.505,-11.971
101.4,-147.891,-12.418
101.44,-150.734,-12.601
101.47,-153.577,-12.739
101.5,-156.419,-13.094
101.53,-159.613,-13.437
101.57,-162.666,-13.632
101.6,-165.649,-13.85
101.63,-168.562,-14.182
101.66,-171.616,-14.319
101.7,-173.967,-14.411
101.73,-176.178,-14.629
101.76,-178.459,-14.858
101.79,-181.407,-15.144
101.83,-184.987,-15.568
101.86,-188.847,-15.889
101.89,-192.287,-16.049
101.92,-194.849,-16.175
101.96,-196.954,-16.336
101.99,-199.165,-16.427
102.02,-201.341,-16.496
102.05,-203.482,-16.622
102.09,-205.798,-16.885
102.12,-207.974,-17.057
102.15,-209.764,-17.103
102.18,-211.273,-17.206
102.22,-212.607,-17.321
102.25,-214.151,-17.458
102.28,-215.941,-17.619
102.31,-217.941,-17.905
102.35,-220.258,-18.237
102.38,-222.644,-18.466
102.41,-225.066,-18.673
102.44,-227.452,-18.856
102.48,-229.382,-18.993
102.51,-231.207,-19.051
102.54,-232.927,-19.154
102.57,-234.962,-19.371
102.61,-236.682,-19.348
102.64,-238.191,-19.463
102.67,-240.472,-19.841
102.71,-242.789,-19.875
102.74,-243.912,-19.726
102.77,-244.508,-19.852
102.8,-245.947,-20.104
102.84,-248.053,-20.253
102.87,-249.773,-20.276
102.9,-251.176,-20.437
102.93,-252.721,-20.654
102.97,-254.51,-20.712
103.0,-255.914,-20.792
103.03,-257.388,-20.849
103.06,-258.897,-20.987
103.1,-260.722,-21.147
103.13,-262.582,-21.307
103.16,-264.478,-21.445
103.19,-266.302,-21.525
103.23,-267.706,-21.468
103.26,-268.689,-21.422
103.29,-269.531,-21.445
103.32,-270.724,-21.479
103.36,-272.198,-21.525
103.39,-273.743,-21.697
103.42,-275.427,-21.846
103.45,-277.042,-21.903
103.49,-278.2,-21.892
103.52,-279.077,-21.892
103.55,-279.919,-21.869
103.58,-281.078,-21.949
103.62,-282.376,-21.995
103.65,-283.85,-22.121
103.68,-285.394,-22.224
103.71,-286.798,-22.224
103.75,-287.535,-22.098
103.78,-287.711,-21.995
103.81,-287.64,-21.857
103.84,-287.43,-21.685
103.88,-287.5,-21.662
103.91,-288.377,-21.949
103.94,-289.43,-21.995
103.97,-289.781,-21.995
104.01,-290.308,-22.121
104.04,-291.255,-22.281
104.07,-291.676,-22.006
104.1,-291.641,-22.006
104.14,-291.817,-22.04
104.17,-291.887,-21.892
104.2,-291.711,-21.8
104.24,-292.238,-22.052
104.27,-291.641,-21.628
104.3,-290.308,-21.468
104.33,-289.5,-21.674
104.37,-288.974,-21.342
104.4,-288.202,-21.422
104.43,-288.623,-21.823
104.46,-289.5,-21.914
104.5,-289.044,-21.651
104.53,-287.289,-21.479
104.56,-285.675,-21.319
104.59,-284.377,-21.055
104.63,-282.938,-20.929
104.66,-281.955,-21.009
104.69,-281.639,-21.17
104.72,-281.218,-21.239
104.76,-280.411,-21.147
104.79,-278.726,-21.032
104.82,-276.971,-20.872
104.85,-275.182,-20.666
104.89,-273.427,-20.54
104.92,-272.234,-20.643
104.95,-271.742,-20.677
104.98,-270.689,-20.666
105.02,-269.321,-20.654
105.05,-267.776,-20.528
105.08,-265.706,-20.219
105.11,-263.319,-20.024
105.15,-261.284,-19.967
105.18,-259.985,-19.933
105.21,-258.897,-19.944
105.24,-257.809,-19.978
105.28,-256.686,-20.001
105.31,-255.493,-19.967
105.34,-253.598,-19.623
105.37,-251.247,-19.348
105.41,-250.089,-19.623
105.44,-249.597,-19.52
105.47,-247.948,-19.142
105.5,-245.105,-18.936
105.54,-242.859,-18.856
105.57,-241.139,-18.673
105.6,-239.49,-18.466
105.63,-237.138,-18.295
105.67,-234.962,-18.18
105.7,-233.524,-18.329
105.73,-232.857,-18.283
105.77,-231.488,-18.031
105.8,-229.523,-17.894
105.83,-227.522,-17.79
105.86,-225.206,-17.435
105.9,-222.679,-17.103
105.93,-220.293,-17.034
105.96,-218.538,-16.885
105.99,-216.783,-16.702
106.03,-214.818,-16.633
106.06,-212.993,-16.576
106.09,-211.273,-16.393
106.12,-208.922,-16.049
106.16,-206.29,-15.854
106.19,-204.044,-15.683
106.22,-201.973,-15.511
106.25,-200.148,-15.385
106.29,-198.358,-15.224
106.32,-196.288,-15.018
106.35,-193.69,-14.755
106.38,-190.672,-14.423
106.42,-187.794,-14.159
106.45,-184.846,-13.918
106.48,-182.004,-13.655
106.51,-179.582,-13.529
106.55,-177.441,-13.414
106.58,-174.915,-13.082
106.61,-171.721,-12.773
106.64,-168.422,-12.601
106.68,-165.474,-12.418
106.71,-162.596,-12.051
106.74,-159.402,-11.799
106.77,-157.121,-11.925
106.81,-155.507,-11.811
106.84,-152.173,-10.986
106.87,-148.242,-10.883
106.9,-144.943,-10.848
106.94,-142.908,-10.585
106.97,-140.767,-10.402
107.0,-137.784,-9.943
107.03,-134.344,-9.737
107.07,-131.747,-9.794
107.1,-129.642,-9.508
107.13,-126.939,-9.061
107.16,-123.289,-8.741
107.2,-119.534,-8.5
107.23,-115.779,-8.076
107.26,-112.129,-7.824
107.3,-109.216,-7.801
107.33,-106.479,-7.503
107.36,-102.934,-7.022
107.39,-98.407,-6.667
107.43,-93.669,-6.346
107.46,-88.791,-5.877
107.49,-83.948,-5.556
107.52,-79.701,-5.43
107.56,-76.262,-5.235
107.59,-73.033,-5.029
107.62,-69.734,-4.857
107.65,-66.611,-4.697
107.69,-63.698,-4.525
107.72,-60.96,-4.353
107.75,-58.118,-4.078
107.78,-54.889,-3.757
107.82,-51.309,-3.402
107.85,-47.414,-3.104
107.88,-43.834,-2.841
107.91,-40.43,-2.566
107.95,-36.955,-2.291
107.98,-33.446,-2.005
108.01,-29.831,-1.695
108.04,-26.076,-1.42
108.08,-22.391,-1.191
108.11,-18.987,-0.962
108.14,-15.723,-0.745
108.17,-12.248,-0.435
108.21,-8.353,-0.092
108.24,-4.597,0.023
108.27,-1.228,0.16
108.3,2.106,0.401
108.34,5.615,0.47
108.37,8.809,0.55
108.4,11.722,0.825
108.43,14.529,1.168
108.47,17.337,1.546
108.5,20.039,2.028
108.53,23.444,2.646
108.56,27.901,3.024
108.6,32.112,3.253
108.63,35.797,3.494
108.66,39.026,3.723
108.69,42.29,3.906
108.73,45.589,4.17
108.76,49.133,4.422
108.79,52.573,4.617
108.83,55.872,4.892
108.86,59.311,5.189
108.89,62.75,5.43
108.92,66.225,5.751
108.96,69.839,6.037
108.99,73.384,6.335
109.02,76.788,6.598
109.05,80.122,6.839
109.09,83.878,7.217
109.12,87.878,7.584
109.15,91.774,7.79
109.18,95.038,8.019
109.22,97.951,8.248
109.25,100.758,8.443
109.28,103.496,8.66
109.31,106.444,8.935
109.35,110.129,9.336
109.38,114.235,9.714
109.41,118.201,9.989
109.44,121.64,10.184
109.48,124.483,10.39
109.51,127.01,10.505
109.54,129.817,10.825
109.57,133.186,11.204
109.61,136.906,11.49
109.64,140.1,11.65
109.67,142.978,11.925
109.7,145.715,12.2
109.74,148.418,12.292
109.77,150.558,12.452
109.8,152.454,12.613
109.83,155.367,13.128
109.87,159.402,13.552
109.9,163.263,13.747
109.93,165.755,13.77
109.96,168.001,14.102
110.0,170.493,14.331
110.03,173.019,14.434
110.06,174.985,14.503
110.09,178.073,15.03
110.13,182.951,15.786
110.16,188.251,16.003
110.19,192.146,16.152
110.22,195.059,16.404
110.26,197.446,16.496
110.29,199.516,16.381
110.32,201.131,16.381
110.36,202.71,16.439
110.39,204.254,16.473
110.42,205.763,16.611
110.45,207.272,16.805
110.49,208.852,16.989
110.52,210.396,17.115
110.55,211.554,17.252
110.58,212.923,17.435
110.62,214.713,17.699
110.65,217.169,18.123
110.68,220.152,18.432
110.71,222.539,18.547
110.75,224.469,18.81
110.78,226.785,19.039
110.81,228.786,18.947
110.84,230.119,18.982
110.88,231.769,19.211
110.91,234.05,19.383
110.94,236.121,19.486
110.97,237.875,19.646
111.01,239.42,19.749
111.04,240.823,19.818
111.07,242.227,19.91
111.1,243.771,19.978
111.14,245.245,20.104
111.17,246.719,20.242
111.2,248.439,20.391
111.23,250.334,20.586
111.27,252.615,20.838
111.3,255.037,21.044
111.33,256.967,21.044
111.36,258.231,21.09
111.4,259.74,21.204
111.43,261.635,21.273
111.46,263.495,21.353
111.49,265.25,21.445
111.53,267.004,21.536
111.56,268.584,21.536
111.59,269.496,21.433
111.62,270.198,21.41
111.66,271.075,21.445
111.69,272.304,21.491
111.72,273.672,21.582
111.75,275.076,21.72
111.79,276.48,21.823
111.82,277.779,21.857
111.85,278.586,21.903
111.89,279.639,21.937
111.92,280.727,21.96
111.95,281.85,22.018
111.98,283.183,22.086
112.02,284.657,22.144
112.05,285.815,22.178
112.08,286.833,22.166
112.11,287.395,22.04
112.15,287.711,22.006
112.18,287.921,21.892
112.21,288.026,21.834
112.24,288.693,21.949
112.28,289.676,22.018
112.31,290.308,22.029
112.34,290.939,22.144
112.37,291.29,22.063
112.41,291.711,21.983
112.44,291.922,22.052
112.47,291.957,21.857
112.5,291.817,21.8
112.54,291.922,21.949
112.57,292.203,21.88
112.6,291.15,21.536
112.63,289.641,21.456
112.67,289.22,21.674
112.7,288.307,21.193
112.73,286.623,21.101
112.76,286.868,21.754
112.8,289.5,22.166
112.83,290.904,22.075
112.86,290.588,22.029
112.89,290.062,22.052
112.93,289.992,21.708
112.96,289.29,21.353
112.99,288.237,21.227
113.02,287.535,21.17
113.06,286.166,20.906
113.09,282.903,20.219
113.12,279.955,20.391
113.15,278.27,20.379
113.19,275.919,19.91
113.22,272.304,19.875
113.25,269.812,20.013
113.28,268.619,20.185
113.32,267.812,20.322
113.35,267.039,20.471
113.38,265.776,20.586
113.42,264.723,20.597
113.45,264.021,20.597
113.48,262.723,20.322
113.51,260.793,20.013
113.55,259.143,20.047
113.58,258.792,20.116
113.61,258.617,20.139
113.64,257.388,19.91
113.68,254.335,19.44
113.71,251.176,19.154
113.74,249.562,19.291
113.77,248.615,19.119
113.81,246.86,18.856
113.84,244.228,18.741
113.87,241.771,18.673
113.9,240.157,18.673
113.94,238.753,18.581
113.97,237.068,18.455
114.0,235.419,18.409
114.03,234.19,18.455
114.07,233.313,18.363
114.1,232.014,18.157
114.13,229.979,17.962
114.16,227.663,17.642
114.2,225.031,17.321
114.23,222.644,17.092
114.26,220.293,16.931
114.29,218.292,16.759
114.33,216.362,16.668
114.36,214.537,16.645
114.39,212.923,16.519
114.42,210.852,16.301
114.46,208.29,16.038
114.49,205.869,15.854
114.52,203.622,15.706
114.55,201.833,15.511
114.59,200.183,15.396
114.62,198.428,15.27
114.65,196.358,15.064
114.68,193.726,14.732
114.72,190.778,14.445
114.75,188.04,14.193
114.78,185.373,13.953
114.81,182.776,13.712
114.85,180.46,13.632
114.88,178.389,13.529
114.91,176.038,13.185
114.95,172.774,12.796
114.98,169.37,12.578
115.01,166.527,12.372
115.04,163.544,12.028
115.08,160.771,11.879
115.11,158.174,11.765
115.14,155.156,11.284
115.17,152.243,11.204
115.21,149.751,11.112
115.24,147.575,10.78
115.27,143.855,10.299
115.3,139.328,9.84
115.34,135.748,9.909
115.37,133.607,9.806
115.4,131.677,9.554
115.43,129.185,9.302
115.47,126.062,9.038
115.5,122.693,8.752
115.53,119.534,8.477
115.56,116.411,8.214
115.6,113.463,7.939
115.63,110.62,7.687
115.66,107.391,7.366
115.69,103.496,6.942
115.73,98.969,6.518
115.76,94.16,6.163
115.79,89.633,5.842
115.82,85.352,5.579
115.86,81.456,5.384
115.89,77.982,5.235
115.92,74.648,4.949
115.95,70.892,4.708
115.99,67.348,4.525
116.02,64.049,4.353
116.05,61.066,4.113
116.08,57.977,3.838
116.12,54.819,3.62
116.15,51.66,3.345
116.18,48.361,3.047
116.21,44.957,2.818
116.25,41.483,2.555
116.28,37.973,2.211
116.31,34.183,1.936
116.34,30.603,1.707
116.38,27.129,1.42
116.41,23.549,1.18
116.44,20.18,0.962
116.48,17.056,0.825
116.51,13.898,0.607
116.54,10.318,0.286
116.57,6.036,-0.023
116.61,1.579,-0.241
116.64,-2.562,-0.195
