Trigger_Date,2023/06/15
Trigger_Time,T 17:42:36.202 PDT
Samples_Per_Cycle,512
Microseconds_Per_Sample,32.567
Time (ms),Voltage (V),Current (A)
-16.67,3.439,-0.263
-16.64,-0.912,-0.263
-16.61,-4.597,-0.195
-16.58,-7.405,-0.206
-16.54,-9.616,-0.378
-16.51,-11.617,-0.664
-16.48,-13.968,-1.111
-16.45,-16.986,-1.638
-16.41,-20.531,-2.177
-16.38,-24.461,-2.623
-16.35,-28.883,-3.024
-16.32,-33.867,-3.242
-16.28,-38.219,-3.299
-16.25,-41.763,-3.517
-16.22,-45.132,-3.712
-16.19,-48.291,-3.746
-16.15,-51.485,-4.021
-16.12,-55.415,-4.399
-16.09,-59.521,-4.582
-16.06,-63.382,-4.72
-16.02,-66.821,-4.949
-15.99,-70.085,-5.155
-15.96,-73.244,-5.304
-15.93,-76.262,-5.464
-15.89,-79.596,-5.739
-15.86,-83.246,-6.003
-15.83,-86.931,-6.209
-15.79,-90.405,-6.415
-15.76,-93.81,-6.667
-15.73,-97.003,-6.816
-15.7,-99.776,-6.954
-15.66,-102.267,-7.045
-15.63,-104.478,-7.194
-15.6,-106.865,-7.354
-15.57,-109.462,-7.538
-15.53,-112.901,-8.019
-15.5,-116.797,-8.305
-15.47,-120.447,-8.42
-15.44,-123.57,-8.718
-15.4,-127.22,-9.027
-15.37,-130.975,-9.268
-15.34,-134.485,-9.382
-15.31,-137.749,-9.577
-15.27,-140.837,-9.749
-15.24,-144.417,-10.012
-15.21,-147.786,-10.184
-15.18,-150.523,-10.138
-15.14,-152.594,-10.241
-15.11,-155.086,-10.562
-15.08,-158.279,-10.78
-15.05,-161.613,-10.94
-15.01,-164.842,-11.146
-14.98,-167.86,-11.364
-14.95,-170.668,-11.467
-14.92,-173.055,-11.524
-14.88,-175.16,-11.639
-14.85,-177.547,-11.788
-14.82,-180.214,-11.983
-14.79,-183.478,-12.28
-14.75,-187.128,-12.613
-14.72,-190.883,-12.796
-14.69,-193.936,-12.91
-14.65,-196.638,-13.014
-14.62,-198.99,-13.105
-14.59,-201.201,-13.162
-14.56,-203.412,-13.197
-14.52,-205.588,-13.3
-14.49,-207.869,-13.472
-14.46,-210.01,-13.518
-14.43,-211.624,-13.552
-14.39,-212.923,-13.586
-14.36,-214.081,-13.644
-14.33,-215.379,-13.678
-14.3,-216.888,-13.838
-14.26,-218.713,-14.113
-14.23,-221.065,-14.365
-14.2,-223.627,-14.56
-14.17,-226.224,-14.743
-14.13,-228.329,-14.892
-14.1,-230.049,-14.892
-14.07,-231.418,-14.915
-14.04,-233.173,-15.121
-14.0,-235.384,-15.213
-13.97,-237.56,-15.282
-13.94,-239.665,-15.431
-13.91,-241.35,-15.465
-13.87,-242.578,-15.511
-13.84,-244.087,-15.522
-13.81,-245.631,-15.648
-13.78,-246.86,-15.591
-13.74,-248.193,-15.774
-13.71,-250.053,-15.912
-13.68,-252.44,-16.141
-13.65,-255.142,-16.393
-13.61,-257.213,-16.393
-13.58,-258.231,-16.278
-13.55,-259.389,-16.324
-13.52,-261.108,-16.473
-13.48,-263.214,-16.507
-13.45,-264.899,-16.588
-13.42,-266.618,-16.737
-13.38,-268.338,-16.759
-13.35,-269.531,-16.645
-13.32,-270.303,-16.519
-13.29,-270.935,-16.588
-13.25,-272.269,-16.737
-13.22,-273.883,-16.782
-13.19,-275.708,-16.931
-13.16,-277.252,-17.011
-13.12,-278.586,-16.943
-13.09,-279.604,-16.989
-13.06,-281.007,-16.989
-13.03,-282.025,-16.943
-12.99,-282.657,-16.863
-12.96,-283.499,-16.989
-12.93,-285.149,-17.149
-12.9,-286.623,-17.069
-12.86,-287.219,-16.897
-12.83,-287.465,-17.034
-12.8,-288.623,-17.057
-12.77,-289.29,-16.897
-12.73,-288.272,-16.496
-12.7,-287.711,-16.714
-12.67,-288.588,-16.92
-12.64,-290.237,-16.92
-12.6,-290.659,-16.908
-12.57,-290.588,-16.851
-12.54,-291.431,-17.241
-12.51,-292.343,-17.046
-12.47,-292.238,-16.679
-12.44,-292.062,-16.908
-12.41,-293.15,-17.103
-12.38,-293.852,-16.84
-12.34,-293.536,-16.737
-12.31,-293.185,-16.863
-12.28,-293.01,-16.668
-12.25,-291.957,-16.359
-12.21,-290.869,-16.37
-12.18,-290.764,-16.542
-12.15,-291.325,-16.656
-12.11,-291.711,-16.599
-12.08,-291.325,-16.53
-12.05,-290.027,-16.359
-12.02,-288.342,-16.129
-11.98,-286.798,-15.923
-11.95,-285.394,-15.809
-11.92,-284.306,-15.9
-11.89,-283.78,-16.049
-11.85,-283.183,-16.049
-11.82,-281.885,-15.889
-11.79,-279.744,-15.717
-11.76,-277.463,-15.522
-11.72,-274.971,-15.419
-11.69,-273.251,-15.476
-11.66,-272.479,-15.568
-11.63,-272.023,-15.706
-11.59,-271.286,-15.751
-11.56,-270.128,-15.751
-11.53,-268.724,-15.648
-11.5,-266.864,-15.396
-11.46,-264.723,-15.213
-11.43,-262.968,-15.167
-11.4,-261.74,-15.167
-11.37,-260.582,-15.156
-11.33,-259.319,-15.11
-11.3,-257.845,-15.018
-11.27,-256.09,-14.892
-11.24,-253.493,-14.583
-11.2,-251.212,-14.56
-11.17,-249.878,-14.686
-11.14,-248.65,-14.445
-11.11,-246.474,-14.331
-11.07,-244.228,-14.251
-11.04,-242.473,-14.228
-11.01,-240.999,-14.148
-10.97,-239.104,-13.999
-10.94,-237.173,-13.918
-10.91,-235.594,-13.93
-10.88,-234.261,-13.804
-10.84,-232.471,-13.609
-10.81,-230.47,-13.563
-10.78,-228.61,-13.552
-10.75,-226.855,-13.311
-10.71,-224.75,-13.14
-10.68,-221.942,-12.819
-10.65,-219.345,-12.727
-10.62,-218.082,-12.899
-10.58,-217.204,-12.75
-10.55,-215.204,-12.509
-10.52,-212.677,-12.475
-10.49,-210.431,-12.28
-10.45,-207.904,-11.937
-10.42,-205.237,-11.799
-10.39,-203.026,-11.742
-10.36,-201.131,-11.593
-10.32,-199.236,-11.49
-10.29,-197.235,-11.421
-10.26,-195.024,-11.215
-10.23,-192.322,-10.94
-10.19,-189.233,-10.688
-10.16,-186.075,-10.539
-10.13,-183.443,-10.379
-10.1,-181.091,-10.264
-10.06,-179.196,-10.241
-10.03,-177.231,-10.138
-10.0,-174.844,-9.886
-9.97,-171.791,-9.6
-9.93,-168.738,-9.428
-9.9,-166.035,-9.268
-9.87,-163.368,-9.004
-9.84,-160.666,-8.844
-9.8,-158.771,-8.958
-9.77,-156.279,-8.615
-9.74,-152.489,-7.985
-9.7,-148.277,-8.042
-9.67,-145.119,-7.881
-9.64,-143.083,-7.813
-9.61,-141.048,-7.698
-9.57,-138.521,-7.366
-9.54,-135.362,-7.24
-9.51,-132.344,-7.068
-9.48,-129.361,-6.816
-9.44,-126.132,-6.564
-9.41,-122.693,-6.323
-9.38,-119.183,-6.037
-9.35,-115.569,-5.865
-9.31,-112.41,-5.739
-9.28,-109.602,-5.59
-9.25,-106.479,-5.27
-9.22,-102.408,-4.926
-9.18,-97.81,-4.582
-9.15,-92.897,-4.296
-9.12,-88.089,-4.009
-9.09,-83.702,-3.826
-9.05,-79.982,-3.723
-9.02,-76.648,-3.574
-8.99,-73.103,-3.391
-8.96,-69.559,-3.242
-8.92,-65.944,-3.104
-8.89,-62.505,-2.921
-8.86,-59.311,-2.749
-8.83,-56.012,-2.555
-8.79,-52.573,-2.303
-8.76,-48.958,-2.073
-8.73,-45.378,-1.902
-8.7,-41.904,-1.661
-8.66,-38.148,-1.375
-8.63,-34.288,-1.146
-8.6,-30.533,-0.974
-8.57,-27.199,-0.859
-8.53,-24.181,-0.722
-8.5,-21.338,-0.573
-8.47,-18.39,-0.401
-8.43,-15.407,-0.252
-8.4,-12.073,-0.046
-8.37,-8.598,0.16
-8.34,-5.089,0.298
-8.3,-1.79,0.401
-8.27,1.79,0.481
-8.24,5.405,0.584
-8.21,8.844,0.699
-8.17,11.897,0.916
-8.14,14.775,1.237
-8.11,17.407,1.661
-8.08,20.215,2.085
-8.04,24.356,2.577
-8.01,29.094,2.967
-7.98,33.867,3.185
-7.95,38.219,3.288
-7.91,42.044,3.402
-7.88,45.518,3.586
-7.85,49.098,3.746
-7.82,52.538,3.849
-7.78,55.801,3.987
-7.75,59.065,4.158
-7.72,62.434,4.376
-7.69,65.733,4.594
-7.65,68.997,4.777
-7.62,72.261,4.995
-7.59,75.7,5.281
-7.56,79.175,5.476
-7.52,82.544,5.648
-7.49,86.089,5.934
-7.46,89.809,6.175
-7.43,93.318,6.381
-7.39,96.758,6.564
-7.36,100.127,6.793
-7.33,103.391,7.022
-7.29,106.654,7.137
-7.26,109.637,7.274
-7.23,112.936,7.629
-7.2,116.586,7.87
-7.16,120.166,8.03
-7.13,123.254,8.191
-7.1,125.957,8.317
-7.07,128.308,8.408
-7.03,130.659,8.592
-7.0,133.607,8.912
-6.97,137.012,9.142
-6.94,140.521,9.439
-6.9,143.68,9.577
-6.87,146.347,9.668
-6.84,148.698,9.863
-6.81,151.471,10.081
-6.77,154.594,10.31
-6.74,157.788,10.505
-6.71,160.701,10.688
-6.68,163.684,10.906
-6.64,166.737,11.123
-6.61,169.65,11.215
-6.58,171.756,11.204
-6.55,173.265,11.204
-6.51,174.985,11.421
-6.48,177.898,11.822
-6.45,182.214,12.223
-6.42,186.952,12.578
-6.38,191.199,12.842
-6.35,194.884,13.025
-6.32,197.762,13.094
-6.29,200.323,13.059
-6.25,202.64,13.094
-6.22,205.202,13.208
-6.19,207.799,13.254
-6.16,209.834,13.277
-6.12,211.378,13.323
-6.09,212.993,13.414
-6.06,214.432,13.403
-6.02,215.45,13.38
-5.99,216.502,13.506
-5.96,218.082,13.781
-5.93,220.258,14.056
-5.89,222.398,14.193
-5.86,224.294,14.331
-5.83,226.259,14.514
-5.8,227.908,14.594
-5.76,229.172,14.549
-5.73,230.435,14.675
-5.7,232.26,14.904
-5.67,234.541,15.098
-5.63,236.647,15.213
-5.6,238.507,15.385
-5.57,240.753,15.557
-5.54,242.754,15.58
-5.5,244.263,15.557
-5.47,245.596,15.625
-5.44,247.246,15.717
-5.41,249.176,15.843
-5.37,251.212,15.935
-5.34,253.107,16.038
-5.31,255.037,16.187
-5.28,256.757,16.21
-5.24,258.055,16.175
-5.21,259.283,16.267
-5.18,261.003,16.416
-5.15,262.863,16.404
-5.11,264.372,16.45
-5.08,265.846,16.565
-5.05,267.601,16.702
-5.02,269.391,16.679
-4.98,270.409,16.622
-4.95,271.391,16.679
-4.92,272.76,16.759
-4.88,274.304,16.737
-4.85,275.813,16.805
-4.82,277.603,16.966
-4.79,279.323,16.989
-4.75,280.621,16.943
-4.72,281.393,16.954
-4.69,282.376,16.966
-4.66,283.359,16.897
-4.62,284.271,16.943
-4.59,285.535,17.023
-4.56,286.798,17.069
-4.53,287.851,17.08
-4.49,288.623,17.0
-4.46,289.114,16.931
-4.43,289.255,16.817
-4.4,289.22,16.714
-4.36,289.36,16.782
-4.33,290.308,16.989
-4.3,291.36,17.0
-4.27,291.782,16.908
-4.23,291.676,16.954
-4.2,292.448,17.023
-4.17,292.905,17.046
-4.14,292.624,16.656
-4.1,292.203,16.759
-4.07,293.396,17.172
-4.04,294.87,17.115
-4.01,294.73,16.725
-3.97,294.098,16.817
-3.94,293.466,16.679
-3.91,292.87,16.439
-3.88,291.396,16.233
-3.84,290.343,16.301
-3.81,290.343,16.542
-3.78,290.764,16.53
-3.75,290.273,16.416
-3.71,288.763,16.324
-3.68,287.184,16.233
-3.65,285.991,16.129
-3.61,284.903,16.015
-3.58,284.061,16.118
-3.55,283.745,16.278
-3.52,283.113,16.244
-3.48,281.92,16.095
-3.45,280.025,15.912
-3.42,277.849,15.751
-3.39,275.708,15.602
-3.35,273.708,15.499
-3.32,272.374,15.625
-3.29,271.742,15.74
-3.26,270.83,15.74
-3.22,269.566,15.717
-3.19,268.057,15.717
-3.16,266.548,15.58
-3.13,264.864,15.454
-3.09,263.39,15.442
-3.06,262.126,15.385
-3.03,260.793,15.27
-3.0,259.389,15.293
-2.96,258.125,15.259
-2.93,256.581,15.087
-2.9,254.405,14.846
-2.87,251.984,14.72
-2.83,250.124,14.697
-2.8,248.509,14.606
-2.77,246.649,14.434
-2.74,244.859,14.537
-2.7,243.42,14.514
-2.67,241.49,14.159
-2.64,238.718,14.01
-2.61,236.542,14.09
-2.57,235.103,14.01
-2.54,233.594,13.907
-2.51,232.05,13.896
-2.48,230.681,13.884
-2.44,229.242,13.77
-2.41,227.312,13.586
-2.38,224.469,13.14
-2.34,222.083,13.162
-2.31,220.889,13.288
-2.28,219.661,13.036
-2.25,217.696,12.865
-2.21,215.73,12.876
-2.18,214.011,12.739
-2.15,211.729,12.395
-2.12,208.781,12.143
-2.08,205.869,12.028
-2.05,203.587,11.891
-2.02,201.692,11.788
-1.99,199.973,11.753
-1.95,197.972,11.616
-1.92,195.691,11.433
-1.89,192.883,11.169
-1.86,189.655,10.929
-1.82,186.636,10.734
-1.79,183.864,10.585
-1.76,181.618,10.436
-1.73,179.828,10.459
-1.69,178.073,10.379
-1.66,175.441,10.001
-1.63,171.826,9.703
-1.6,168.633,9.668
-1.56,165.93,9.416
-1.53,162.982,9.119
-1.5,160.245,9.084
-1.47,158.069,9.061
-1.43,155.893,8.821
-1.4,152.805,8.477
-1.37,149.155,8.191
-1.34,145.821,8.156
-1.3,142.557,7.824
-1.27,139.468,7.606
-1.24,137.082,7.732
-1.2,135.222,7.584
-1.17,132.835,7.286
-1.14,129.572,7.022
-1.11,125.992,6.805
-1.07,122.412,6.507
-1.04,118.903,6.289
-1.01,115.709,6.071
-0.98,112.585,5.911
-0.94,109.743,5.774
-0.91,106.444,5.51
-0.88,102.513,5.155
-0.85,97.951,4.823
-0.81,93.248,4.525
-0.78,88.615,4.261
-0.75,84.158,3.975
-0.72,79.982,3.838
-0.68,76.402,3.803
-0.65,73.314,3.608
-0.62,69.875,3.402
-0.59,66.295,3.288
-0.55,63.031,3.139
-0.52,59.837,2.967
-0.49,56.679,2.795
-0.46,53.59,2.6
-0.42,50.502,2.429
-0.39,47.414,2.257
-0.36,44.115,1.993
-0.33,40.535,1.695
-0.29,36.885,1.512
-0.26,33.481,1.283
-0.23,30.006,1.065
-0.2,26.462,0.882
-0.16,22.987,0.687
-0.13,19.337,0.481
-0.1,15.582,0.332
-0.07,11.687,0.137
-0.03,7.791,0.0
0.0,4.001,-0.092
0.03,0.281,-0.092
0.07,-3.053,-0.103
0.1,-6.071,-0.183
0.13,-8.879,-0.378
0.16,-11.617,-0.642
0.2,-14.459,-0.997
0.23,-17.477,-1.478
0.26,-20.811,-1.982
0.29,-24.461,-2.429
0.33,-28.568,-2.818
0.36,-33.34,-3.07
0.39,-37.236,-3.001
0.42,-40.605,-3.242
0.46,-44.887,-3.803
0.49,-49.59,-3.998
0.52,-53.555,-3.883
0.55,-56.679,-4.147
0.59,-59.802,-4.399
0.62,-63.031,-4.479
0.65,-66.365,-4.743
0.68,-69.875,-4.972
0.72,-73.174,-5.109
0.75,-76.122,-5.224
0.78,-78.964,-5.441
0.81,-82.053,-5.682
0.85,-85.527,-5.991
0.88,-89.177,-6.22
0.91,-92.862,-6.472
0.94,-96.301,-6.701
0.98,-99.53,-6.85
1.01,-102.267,-6.965
1.04,-104.759,-7.091
1.07,-107.251,-7.32
1.11,-110.304,-7.526
1.14,-113.884,-7.939
1.17,-118.095,-8.282
1.2,-122.166,-8.5
1.24,-125.536,-8.534
1.27,-128.413,-8.832
1.3,-131.361,-9.004
1.34,-134.52,-9.153
1.37,-137.573,-9.313
1.4,-141.048,-9.611
1.43,-144.241,-9.726
1.47,-147.049,-9.794
1.5,-149.155,-9.898
1.53,-151.576,-10.104
1.56,-154.63,-10.447
1.6,-158.279,-10.699
1.63,-161.613,-10.837
1.66,-164.597,-11.066
1.69,-167.72,-11.284
1.73,-170.563,-11.375
1.76,-173.055,-11.433
1.79,-175.301,-11.536
1.82,-177.687,-11.708
1.86,-180.319,-11.902
1.89,-183.618,-12.189
1.92,-187.233,-12.521
1.95,-190.883,-12.739
1.99,-193.901,-12.819
2.02,-196.393,-12.853
2.05,-198.463,-12.968
2.08,-200.885,-13.071
2.12,-203.342,-13.128
2.15,-205.623,-13.231
2.18,-207.904,-13.369
2.21,-210.045,-13.46
2.25,-211.729,-13.483
2.28,-212.993,-13.54
2.31,-214.221,-13.586
2.34,-215.485,-13.609
2.38,-217.099,-13.804
2.41,-219.205,-14.079
2.44,-221.451,-14.331
2.48,-223.767,-14.48
2.51,-225.978,-14.583
2.54,-227.768,-14.697
2.57,-229.628,-14.801
2.61,-231.313,-14.892
2.64,-233.383,-15.053
2.67,-235.454,-15.144
2.7,-237.56,-15.259
2.74,-239.56,-15.373
2.77,-241.174,-15.362
2.8,-242.508,-15.408
2.83,-243.736,-15.476
2.87,-245.21,-15.545
2.9,-246.93,-15.683
2.93,-249.001,-15.843
2.96,-251.071,-15.958
3.0,-253.001,-16.095
3.03,-254.897,-16.255
3.06,-256.546,-16.255
3.09,-257.809,-16.118
3.13,-258.862,-16.175
3.16,-260.301,-16.381
3.19,-262.337,-16.462
3.22,-264.302,-16.507
3.26,-266.162,-16.691
3.29,-268.127,-16.737
3.32,-269.426,-16.622
3.35,-270.023,-16.519
3.39,-270.76,-16.553
3.42,-272.058,-16.702
3.45,-273.708,-16.794
3.48,-275.462,-16.863
3.52,-277.182,-17.0
3.55,-278.937,-17.103
3.58,-280.27,-17.0
3.61,-281.148,-16.943
3.65,-282.166,-16.966
3.68,-282.762,-16.817
3.71,-283.429,-16.84
3.75,-284.868,-17.057
3.78,-286.377,-17.103
3.81,-287.219,-16.943
3.84,-287.57,-17.0
3.88,-288.553,-17.069
3.91,-289.395,-16.966
3.94,-288.623,-16.542
3.97,-287.886,-16.691
4.01,-289.395,-17.126
4.04,-291.08,-17.023
4.07,-290.694,-16.622
4.1,-290.132,-16.943
4.14,-291.255,-17.264
4.17,-292.273,-16.954
4.2,-291.676,-16.633
4.23,-291.255,-16.897
4.27,-292.273,-17.034
4.3,-292.94,-16.863
4.33,-293.08,-16.828
4.36,-293.15,-16.931
4.4,-293.221,-16.782
4.43,-292.589,-16.542
4.46,-291.501,-16.53
4.49,-291.29,-16.622
4.53,-291.782,-16.668
4.56,-292.062,-16.645
4.59,-291.431,-16.553
4.62,-289.992,-16.301
4.66,-287.921,-16.049
4.69,-286.026,-15.912
4.72,-284.622,-15.866
4.75,-283.71,-15.946
4.79,-283.218,-16.118
4.82,-282.587,-16.175
4.85,-281.499,-16.061
4.88,-279.604,-15.889
4.92,-277.322,-15.728
4.95,-275.322,-15.602
4.98,-273.532,-15.568
5.02,-272.479,-15.683
5.05,-271.988,-15.797
5.08,-271.321,-15.774
5.11,-270.128,-15.763
5.15,-268.443,-15.637
5.18,-266.302,-15.35
5.21,-264.056,-15.224
5.24,-262.477,-15.282
5.28,-261.494,-15.27
5.31,-260.231,-15.213
5.34,-258.792,-15.259
5.37,-257.529,-15.305
5.41,-256.195,-15.075
5.44,-253.598,-14.675
5.47,-251.036,-14.663
5.5,-249.527,-14.812
5.54,-248.299,-14.56
5.57,-246.474,-14.423
5.6,-244.614,-14.537
5.63,-243.666,-14.537
5.67,-242.227,-14.285
5.7,-239.946,-14.09
5.73,-237.63,-14.022
5.76,-235.84,-13.918
5.8,-234.12,-13.827
5.83,-232.155,-13.666
5.86,-230.295,-13.632
5.89,-228.61,-13.586
5.93,-226.785,-13.392
5.96,-224.574,-13.151
5.99,-222.083,-13.071
6.02,-220.047,-12.979
6.06,-218.047,-12.796
6.09,-215.871,-12.681
6.12,-213.94,-12.601
6.16,-212.01,-12.464
6.19,-209.554,-12.246
6.22,-206.816,-12.063
6.25,-204.5,-11.983
6.29,-202.359,-11.914
6.32,-200.674,-11.765
6.35,-199.06,-11.719
6.38,-197.305,-11.65
6.42,-195.235,-11.41
6.45,-192.322,-11.112
6.48,-189.198,-10.929
6.51,-186.671,-10.768
6.55,-184.109,-10.516
6.58,-181.793,-10.436
6.61,-179.266,-10.299
6.64,-176.634,-10.035
6.68,-174.529,-10.161
6.71,-172.598,-9.932
6.74,-169.861,-9.52
6.77,-166.071,-9.21
6.81,-162.982,-9.222
6.84,-160.736,-9.142
6.87,-159.052,-9.061
6.9,-156.7,-8.775
6.94,-153.436,-8.466
6.97,-149.646,-8.248
7.0,-146.417,-8.065
7.03,-143.434,-7.904
7.07,-140.521,-7.664
7.1,-137.538,-7.492
7.13,-134.766,-7.4
7.16,-132.063,-7.183
7.2,-129.291,-6.988
7.23,-126.553,-6.873
7.26,-123.746,-6.644
7.29,-120.271,-6.301
7.33,-116.692,-6.049
7.36,-113.147,-5.923
7.39,-110.129,-5.739
7.43,-106.795,-5.418
7.46,-102.864,-5.098
7.49,-98.267,-4.743
7.52,-93.423,-4.399
7.56,-88.44,-4.101
7.59,-83.807,-3.929
7.62,-79.877,-3.803
7.65,-76.367,-3.654
7.69,-72.928,-3.54
7.72,-69.489,-3.391
7.75,-65.839,-3.208
7.78,-62.259,-3.001
7.82,-58.784,-2.864
7.85,-55.766,-2.738
7.88,-52.924,-2.566
7.91,-49.835,-2.325
7.95,-46.396,-2.039
7.98,-42.43,-1.741
8.01,-38.324,-1.512
8.04,-34.393,-1.306
8.08,-30.849,-1.157
8.11,-27.831,-1.031
8.14,-24.847,-0.905
8.17,-21.935,-0.699
8.21,-18.741,-0.504
8.24,-15.617,-0.367
8.27,-12.354,-0.172
8.3,-8.949,0.046
8.34,-5.615,0.137
8.37,-2.351,0.332
8.4,1.474,0.538
8.43,5.37,0.573
8.47,9.019,0.653
8.5,12.283,0.928
8.53,15.231,1.214
8.57,17.899,1.592
8.6,20.461,2.051
8.63,24.321,2.497
8.66,28.883,2.875
8.7,33.656,3.139
8.73,37.903,3.242
8.76,41.588,3.368
8.79,45.062,3.551
8.83,48.607,3.735
8.86,52.292,3.849
8.89,55.696,4.009
8.92,59.1,4.181
8.96,62.505,4.399
8.99,65.909,4.639
9.02,69.418,4.834
9.05,72.823,5.018
9.09,76.192,5.247
9.12,79.561,5.441
9.15,82.755,5.636
9.18,86.159,5.923
9.22,89.844,6.186
9.25,93.459,6.369
9.28,96.722,6.61
9.31,99.951,6.793
9.35,103.18,6.988
9.38,106.233,7.16
9.41,109.146,7.274
9.44,112.375,7.584
9.48,115.99,7.87
9.51,119.534,8.019
9.54,122.658,8.156
9.57,125.325,8.305
9.61,127.711,8.454
9.64,130.414,8.683
9.67,133.923,9.096
9.7,137.538,9.21
9.74,141.013,9.405
9.77,143.996,9.668
9.8,146.979,9.783
9.84,149.365,9.84
9.87,151.787,10.047
9.9,154.594,10.299
9.93,157.788,10.459
9.97,160.912,10.665
10.0,164.0,10.929
10.03,167.229,11.158
10.06,170.247,11.341
10.1,172.949,11.387
10.13,174.95,11.41
10.16,176.845,11.559
10.19,179.617,11.822
10.23,183.337,12.189
10.26,187.479,12.509
10.29,191.374,12.693
10.32,194.989,12.956
10.36,198.499,13.162
10.39,201.762,13.231
10.42,204.64,13.243
10.45,207.202,13.334
10.49,209.554,13.369
10.52,211.414,13.3
10.55,212.852,13.346
10.58,214.642,13.483
10.62,216.783,13.632
10.65,219.415,13.896
10.68,222.398,14.136
10.71,225.276,14.285
10.75,227.487,14.377
10.78,229.593,14.445
10.81,231.383,14.503
10.84,233.067,14.503
10.88,234.366,14.48
10.91,235.068,14.388
10.94,235.735,14.48
10.97,237.209,14.732
11.01,239.349,14.904
11.04,240.823,14.915
11.07,241.631,14.984
11.11,242.754,15.144
11.14,244.052,15.213
11.17,245.21,15.236
11.2,246.544,15.454
11.24,248.65,15.763
11.27,251.247,15.992
11.3,253.528,16.084
11.33,255.388,16.152
11.37,256.932,16.221
11.4,258.266,16.175
11.43,259.108,16.026
11.46,260.336,16.21
11.5,262.442,16.381
11.53,265.074,16.553
11.56,267.426,16.748
11.59,269.496,16.771
11.63,270.76,16.759
11.66,271.742,16.668
11.69,272.479,16.462
11.72,273.322,16.496
11.76,274.76,16.725
11.79,276.656,16.805
11.82,278.41,16.851
11.85,279.884,16.989
11.89,281.253,17.011
11.92,282.201,16.92
11.95,282.867,16.851
11.98,283.64,16.885
12.02,284.798,16.885
12.05,286.026,16.954
12.08,287.43,17.092
12.11,288.799,17.149
12.15,289.922,17.103
12.18,290.483,16.954
12.21,290.413,16.805
12.25,290.343,16.759
12.28,290.483,16.737
12.31,290.869,16.771
12.34,291.817,16.92
12.38,292.448,16.954
12.41,292.624,16.828
12.44,292.273,16.771
12.47,292.203,16.828
12.51,292.308,16.794
12.54,292.484,16.771
12.57,292.905,16.931
12.6,294.028,17.08
12.64,294.554,16.966
12.67,294.308,16.851
12.7,293.536,16.691
12.73,292.975,16.633
12.77,288.658,15.591
12.8,273.216,12.235
12.83,253.212,10.665
12.86,243.526,12.922
12.9,248.158,15.156
12.93,255.493,15.717
12.96,257.529,16.668
12.99,258.511,18.317
13.03,262.582,19.016
13.06,268.233,19.016
13.09,274.129,19.394
13.12,279.463,19.486
13.16,282.657,18.879
13.19,283.92,18.306
13.22,284.236,17.745
13.25,283.429,16.851
13.29,281.323,16.015
13.32,278.691,15.648
13.35,276.726,15.522
13.38,275.146,15.328
13.42,273.111,15.202
13.45,271.075,15.236
13.48,269.18,15.247
13.52,267.004,15.11
13.55,264.618,15.098
13.58,263.144,15.316
13.61,262.617,15.396
13.65,261.81,15.339
13.68,260.477,15.385
13.71,259.319,15.396
13.74,258.231,15.259
13.78,256.616,15.03
13.81,254.51,14.846
13.84,252.756,14.812
13.87,251.247,14.732
13.91,249.562,14.514
13.94,247.456,14.423
13.97,245.631,14.468
14.0,244.087,14.331
14.04,241.911,14.067
14.07,239.384,13.999
14.1,237.84,14.113
14.13,236.823,14.067
14.17,235.419,13.873
14.2,233.769,13.873
14.23,232.05,13.735
14.26,229.242,13.323
14.3,225.803,13.014
14.33,222.96,12.979
14.36,221.205,13.002
14.39,219.766,12.922
14.43,218.011,12.773
14.46,215.871,12.67
14.49,213.8,12.635
14.52,211.694,12.464
14.56,208.922,12.097
14.59,205.974,11.971
14.62,203.833,11.994
14.65,202.289,11.902
14.69,200.674,11.776
14.72,198.744,11.696
14.75,196.463,11.513
14.79,193.585,11.215
14.82,190.251,10.825
14.85,187.128,10.734
14.88,185.057,10.791
14.92,183.408,10.596
14.95,181.302,10.402
14.98,179.021,10.39
15.01,176.669,10.15
15.05,173.827,9.84
15.08,170.738,9.623
15.11,167.545,9.371
15.14,164.175,9.084
15.18,161.192,9.016
15.21,158.63,8.924
15.24,155.928,8.706
15.27,152.84,8.443
15.31,149.435,8.248
15.34,146.101,8.065
15.37,142.873,7.859
15.4,139.433,7.538
15.44,135.924,7.389
15.47,133.011,7.343
15.5,130.589,7.251
15.53,128.413,7.102
15.57,125.887,6.896
15.6,122.763,6.621
15.63,119.324,6.381
15.66,115.99,6.209
15.7,113.077,6.071
15.73,110.339,5.877
15.76,107.286,5.556
15.79,103.285,5.166
15.83,98.618,4.823
15.86,93.845,4.468
15.89,89.072,4.17
15.93,84.474,3.975
15.96,80.544,3.883
15.99,77.245,3.815
16.02,74.086,3.62
16.06,70.576,3.448
16.09,67.032,3.299
16.12,63.487,3.104
16.15,60.048,2.944
16.19,56.96,2.818
16.22,54.012,2.669
16.25,51.134,2.474
16.28,48.116,2.257
16.32,44.817,1.993
16.35,41.307,1.718
16.38,37.411,1.466
16.41,33.481,1.191
16.45,29.691,1.008
16.48,26.146,0.871
16.51,22.707,0.676
16.54,19.197,0.47
16.58,15.547,0.344
16.61,12.038,0.206
16.64,8.528,0.115
16.67,4.948,-0.034
16.71,1.193,-0.103
16.74,-2.211,-0.103
16.77,-5.124,-0.137
16.8,-7.686,-0.263
16.84,-10.072,-0.493
16.87,-12.669,-0.859
16.9,-15.723,-1.352
16.93,-19.022,-1.799
16.97,-22.531,-2.303
17.0,-26.321,-2.692
17.03,-30.989,-3.139
17.06,-36.71,-3.368
17.1,-41.483,-3.505
17.13,-45.273,-3.654
17.16,-48.256,-3.654
17.2,-51.064,-3.849
17.23,-54.608,-4.25
17.26,-58.293,-4.319
17.29,-61.768,-4.422
17.33,-65.031,-4.731
17.36,-67.944,-4.834
17.39,-70.892,-5.006
17.42,-74.261,-5.43
17.46,-78.087,-5.659
17.49,-81.772,-5.751
17.52,-85.246,-6.083
17.55,-88.861,-6.381
17.59,-92.616,-6.553
17.62,-96.196,-6.724
17.65,-99.319,-6.908
17.68,-102.338,-7.057
17.72,-105.461,-7.286
17.75,-108.9,-7.538
17.78,-112.761,-7.893
17.81,-116.551,-8.042
17.85,-120.096,-8.259
17.88,-123.289,-8.466
17.91,-125.922,-8.431
17.94,-128.027,-8.546
17.98,-130.309,-8.741
18.01,-132.695,-8.878
18.04,-135.503,-9.13
18.07,-138.872,-9.474
18.11,-142.557,-9.737
18.14,-145.961,-9.966
18.17,-148.874,-10.104
18.2,-151.752,-10.31
18.24,-154.77,-10.562
18.27,-157.823,-10.677
18.3,-160.876,-10.837
18.34,-164.07,-11.1
18.37,-167.264,-11.307
18.4,-170.282,-11.398
18.43,-172.879,-11.49
18.47,-175.195,-11.65
18.5,-177.722,-11.788
18.53,-180.249,-11.937
18.56,-183.302,-12.235
18.6,-186.987,-12.567
18.63,-190.742,-12.727
18.66,-193.761,-12.819
18.69,-196.252,-12.933
18.73,-198.534,-12.979
18.76,-200.745,-13.036
18.79,-202.885,-13.128
18.82,-205.132,-13.231
18.86,-207.553,-13.403
18.89,-209.904,-13.506
18.92,-211.694,-13.518
18.95,-213.168,-13.598
18.99,-214.677,-13.724
19.02,-216.397,-13.804
19.05,-218.292,-13.941
19.08,-220.363,-14.159
19.12,-222.714,-14.388
19.15,-225.136,-14.56
19.18,-227.277,-14.663
19.21,-229.031,-14.732
19.25,-230.47,-14.732
19.28,-231.804,-14.743
19.31,-233.453,-14.927
19.34,-235.559,-15.087
19.38,-237.595,-15.167
19.41,-239.314,-15.316
19.44,-240.929,-15.419
19.47,-242.227,-15.35
19.51,-243.175,-15.362
19.54,-244.473,-15.534
19.57,-246.579,-15.786
19.61,-249.036,-15.958
19.64,-251.071,-16.003
19.67,-252.826,-16.061
19.7,-254.51,-16.221
19.74,-256.09,-16.187
19.77,-257.108,-16.095
19.8,-258.231,-16.221
19.83,-260.056,-16.45
19.87,-262.372,-16.53
19.9,-264.302,-16.588
19.93,-266.127,-16.702
19.96,-267.741,-16.737
20.0,-268.829,-16.679
20.03,-269.707,-16.633
20.06,-270.76,-16.633
20.09,-272.093,-16.668
20.13,-273.497,-16.771
20.16,-275.006,-16.943
20.19,-276.971,-17.011
20.22,-278.726,-17.023
20.26,-280.095,-17.034
20.29,-281.078,-17.011
20.32,-282.025,-17.011
20.35,-283.078,-16.989
20.39,-284.271,-17.034
20.42,-285.675,-17.172
20.45,-287.149,-17.218
20.48,-288.307,-17.16
20.52,-288.904,-17.023
20.55,-288.974,-16.908
20.58,-289.149,-16.863
20.61,-289.114,-16.668
20.65,-289.079,-16.702
20.68,-289.325,-16.885
20.71,-290.378,-16.885
20.74,-291.29,-17.115
20.78,-291.922,-16.966
20.81,-292.062,-17.08
20.84,-292.027,-16.989
20.88,-291.606,-16.599
20.91,-291.115,-16.691
20.94,-291.852,-16.977
20.97,-292.764,-16.931
21.01,-292.694,-16.794
21.04,-292.238,-16.817
21.07,-291.922,-16.748
21.1,-291.325,-16.553
21.14,-290.483,-16.507
21.17,-290.413,-16.645
21.2,-290.974,-16.748
21.23,-291.396,-16.737
21.27,-291.01,-16.702
21.3,-290.027,-16.53
21.33,-288.412,-16.233
21.36,-286.693,-16.038
21.4,-285.114,-15.992
21.43,-284.061,-16.061
21.46,-283.64,-16.164
21.49,-283.148,-16.152
21.53,-281.92,-16.061
21.56,-279.814,-15.912
21.59,-277.533,-15.728
21.62,-275.462,-15.591
21.66,-273.708,-15.591
21.69,-272.865,-15.728
21.72,-272.444,-15.809
21.75,-271.672,-15.809
21.79,-270.444,-15.854
21.82,-269.11,-15.751
21.85,-267.355,-15.488
21.88,-265.285,-15.316
21.92,-263.565,-15.27
21.95,-262.231,-15.224
21.98,-260.757,-15.167
22.02,-259.248,-15.133
22.05,-257.634,-15.087
22.08,-255.669,-14.949
22.11,-253.352,-14.732
22.15,-251.176,-14.617
22.18,-249.281,-14.594
22.21,-247.667,-14.64
22.24,-246.193,-14.629
22.28,-245.07,-14.583
22.31,-244.298,-14.697
22.34,-243.069,-14.526
22.37,-240.753,-14.113
22.41,-238.086,-13.987
22.44,-236.191,-14.045
22.47,-234.822,-13.907
22.5,-232.822,-13.598
22.54,-230.47,-13.529
22.57,-228.294,-13.552
22.6,-226.399,-13.38
22.63,-224.329,-13.14
22.67,-221.942,-13.082
22.7,-219.836,-13.059
22.73,-218.011,-12.876
22.76,-215.52,-12.613
22.8,-213.625,-12.67
22.83,-212.537,-12.761
22.86,-211.098,-12.487
22.89,-208.395,-12.12
22.93,-205.658,-12.051
22.96,-203.517,-12.017
22.99,-202.043,-11.811
23.02,-200.288,-11.685
23.06,-198.253,-11.616
23.09,-195.972,-11.398
23.12,-193.234,-11.112
23.15,-189.9,-10.803
23.19,-186.531,-10.585
23.22,-183.618,-10.459
23.25,-181.232,-10.39
23.29,-179.407,-10.333
23.32,-177.441,-10.23
23.35,-174.985,-10.012
23.38,-172.037,-9.772
23.42,-169.019,-9.623
23.45,-166.141,-9.439
23.48,-163.193,-9.164
23.51,-160.385,-8.993
23.55,-158.279,-9.107
23.58,-155.893,-8.786
23.61,-152.699,-8.328
23.64,-148.909,-8.248
23.68,-145.786,-8.145
23.71,-143.188,-7.939
23.74,-140.591,-7.732
23.77,-137.889,-7.584
23.81,-135.362,-7.469
23.84,-132.8,-7.309
23.87,-129.922,-7.068
23.9,-126.588,-6.759
23.94,-122.974,-6.449
23.97,-119.043,-6.175
24.0,-115.393,-5.991
24.03,-112.094,-5.888
24.07,-109.251,-5.728
24.1,-106.128,-5.464
24.13,-102.303,-5.144
24.16,-97.916,-4.823
24.2,-93.178,-4.479
24.23,-88.335,-4.181
24.26,-83.842,-3.987
24.29,-79.771,-3.872
24.33,-76.297,-3.735
24.36,-72.928,-3.54
24.39,-69.489,-3.391
24.42,-65.979,-3.208
24.46,-62.224,-2.956
24.49,-58.328,-2.772
24.52,-54.854,-2.635
24.56,-51.625,-2.463
24.59,-48.361,-2.245
24.62,-44.887,-2.016
24.65,-41.553,-1.844
24.69,-38.148,-1.695
24.72,-34.814,-1.455
24.75,-31.726,-1.306
24.78,-28.954,-1.214
24.82,-26.251,-1.008
24.85,-23.303,-0.756
24.88,-20.004,-0.561
24.91,-16.74,-0.367
24.95,-13.617,-0.183
24.98,-10.107,0.069
25.01,-6.317,0.309
25.04,-2.281,0.504
25.08,1.895,0.573
25.11,5.685,0.596
25.14,9.09,0.676
25.17,12.178,0.951
25.21,15.231,1.352
25.24,18.214,1.73
25.27,20.706,2.005
25.3,24.11,2.325
25.34,28.322,2.818
25.37,33.165,3.127
25.4,37.341,3.185
25.43,40.921,3.334
25.47,44.431,3.528
25.5,48.045,3.677
25.53,51.66,3.849
25.56,55.205,4.055
25.6,58.925,4.25
25.63,62.575,4.468
25.66,66.154,4.697
25.7,69.594,4.869
25.73,72.858,5.063
25.76,76.122,5.315
25.79,79.491,5.453
25.83,82.579,5.625
25.86,85.878,5.923
25.89,89.563,6.175
25.92,93.108,6.381
25.96,96.442,6.553
25.99,99.495,6.736
26.02,102.654,6.965
26.05,105.672,7.125
26.09,108.514,7.274
26.12,111.848,7.572
26.15,115.428,7.859
26.18,118.973,8.03
26.22,122.131,8.214
26.25,124.974,8.374
26.28,127.466,8.511
26.31,130.203,8.718
26.35,133.643,9.119
26.38,137.328,9.245
26.41,140.837,9.439
26.44,143.961,9.726
26.48,147.049,9.829
26.51,149.611,9.875
26.54,151.997,10.127
26.57,154.98,10.356
26.61,158.174,10.551
26.64,161.333,10.734
26.67,164.491,10.952
26.7,167.439,11.158
26.74,170.422,11.307
26.77,172.984,11.387
26.8,175.125,11.456
26.83,177.161,11.604
26.87,180.214,11.948
26.9,184.952,12.521
26.93,190.918,13.014
26.97,196.428,13.277
27.0,199.902,13.128
27.03,201.587,13.002
27.06,203.061,13.002
27.1,204.921,12.979
27.13,206.851,12.887
27.16,208.43,12.865
27.19,209.308,12.956
27.23,210.326,13.036
27.26,211.449,13.071
27.29,212.291,13.14
27.32,212.782,13.151
27.36,213.239,13.311
27.39,214.397,13.563
27.42,216.222,13.873
27.45,218.503,14.136
27.49,220.609,14.331
27.52,222.679,14.56
27.55,224.925,14.801
27.58,227.136,14.869
27.62,229.242,15.041
27.65,231.418,15.224
27.68,233.734,15.305
27.71,235.805,15.385
27.75,237.63,15.373
27.78,240.192,15.763
27.81,243.175,15.877
27.84,245.245,15.728
27.88,245.631,15.522
27.91,246.228,15.625
27.94,248.264,15.935
27.97,250.931,15.946
28.01,252.686,15.98
28.04,253.984,16.175
28.07,255.493,16.255
28.11,257.072,16.244
28.14,258.687,16.393
28.17,260.793,16.553
28.2,262.828,16.553
28.24,264.407,16.611
28.27,265.987,16.759
28.3,268.233,16.897
28.33,270.233,16.885
28.37,271.497,16.782
28.4,272.479,16.725
28.43,273.392,16.771
28.46,274.655,16.782
28.5,275.989,16.805
28.53,277.603,16.931
28.56,279.288,17.011
28.59,280.586,17.034
28.63,281.674,17.069
28.66,282.797,17.092
28.69,283.85,17.034
28.72,284.798,17.023
28.76,285.815,17.08
28.79,286.903,17.08
28.82,287.816,17.069
28.85,288.448,17.069
28.89,289.149,17.011
28.92,289.5,16.966
28.95,289.5,16.851
28.98,289.676,16.851
29.02,290.378,16.977
29.05,291.22,17.023
29.08,291.571,16.92
29.11,291.852,16.989
29.15,291.922,16.943
29.18,292.799,17.08
29.21,293.571,17.172
29.24,293.501,16.737
29.28,293.642,17.057
29.31,294.344,17.137
29.34,293.958,16.679
29.38,291.396,16.21
29.41,287.746,15.797
29.44,284.201,15.591
29.47,282.025,15.66
29.51,282.025,16.164
29.54,283.499,16.714
29.57,285.114,17.023
29.6,286.061,17.218
29.64,286.798,17.332
29.67,287.605,17.298
29.7,288.412,17.183
29.73,289.009,17.069
29.77,289.711,17.023
29.8,290.413,16.977
29.83,290.553,16.725
29.86,289.36,16.347
29.9,287.044,15.969
29.93,284.341,15.625
29.96,281.288,15.27
29.99,278.2,15.087
30.03,275.638,15.156
30.06,273.918,15.27
30.09,272.269,15.293
30.12,270.303,15.305
30.16,268.127,15.396
30.19,266.373,15.373
30.22,264.548,15.293
30.25,262.793,15.305
30.29,261.179,15.316
30.32,259.599,15.236
30.35,258.02,15.213
30.38,256.616,15.236
30.42,255.247,15.179
30.45,253.598,14.995
30.48,251.527,14.892
30.51,249.773,14.823
30.55,248.193,14.766
30.58,246.053,14.48
30.61,243.982,14.423
30.65,242.157,14.549
30.68,240.613,14.342
30.71,238.507,14.102
30.74,236.472,14.159
30.78,235.138,14.216
30.81,234.05,14.102
30.84,232.646,14.045
30.87,231.067,13.999
30.91,229.488,13.804
30.94,227.452,13.632
30.97,224.574,13.208
31.0,221.977,13.117
31.04,220.468,13.277
31.07,219.521,13.059
31.1,217.52,12.83
31.13,215.344,12.83
31.17,213.379,12.739
31.2,211.273,12.441
31.23,208.536,12.177
31.26,205.763,12.074
31.3,203.377,11.937
31.33,201.376,11.834
31.36,199.727,11.834
31.39,198.148,11.696
31.43,196.112,11.49
31.46,193.269,11.238
31.49,189.97,10.963
31.52,186.917,10.768
31.56,184.145,10.642
31.59,181.934,10.493
31.62,179.968,10.482
31.65,178.073,10.413
31.69,175.652,10.104
31.72,172.423,9.806
31.75,169.299,9.691
31.79,166.527,9.474
31.82,163.614,9.176
31.85,160.947,9.096
31.88,158.701,9.096
31.92,156.56,8.867
31.95,153.577,8.534
31.98,149.857,8.248
32.01,146.523,8.214
32.05,143.434,7.881
32.08,140.311,7.606
32.11,137.538,7.664
32.14,135.397,7.549
32.18,132.976,7.297
32.21,129.817,7.034
32.24,126.237,6.759
32.27,122.623,6.541
32.31,119.359,6.404
32.34,116.306,6.163
32.37,113.252,5.934
32.4,109.988,5.762
32.44,106.479,5.418
32.47,102.127,5.063
32.5,97.705,4.834
32.53,93.388,4.559
32.57,89.037,4.273
32.6,84.439,3.987
32.63,80.228,3.861
32.66,76.648,3.815
32.7,73.489,3.666
32.73,70.12,3.448
32.76,66.576,3.276
32.79,62.996,3.127
32.83,59.662,2.956
32.86,56.433,2.761
32.89,53.275,2.589
32.92,50.291,2.474
32.96,47.414,2.268
32.99,44.185,2.005
33.02,40.746,1.73
33.06,37.061,1.524
33.09,33.376,1.283
33.12,29.691,1.031
33.15,25.935,0.836
33.19,22.461,0.699
33.22,19.092,0.55
33.25,15.723,0.378
33.28,11.897,0.137
33.32,7.826,-0.046
33.35,3.79,-0.092
33.38,0.105,-0.057
33.41,-2.983,-0.057
33.45,-5.44,-0.115
33.48,-8.072,-0.344
33.51,-11.125,-0.745
33.54,-14.494,-1.088
33.58,-17.899,-1.478
33.61,-20.847,-1.879
33.64,-24.04,-2.337
33.67,-28.041,-2.887
33.71,-33.13,-3.219
33.74,-38.289,-3.265
33.77,-42.22,-3.391
33.8,-45.659,-3.586
33.84,-48.326,-3.551
33.87,-51.028,-3.769
33.9,-54.047,-4.032
33.93,-56.995,-4.044
33.97,-59.978,-4.273
34.0,-63.452,-4.685
34.03,-67.313,-4.903
34.06,-70.857,-5.086
34.1,-74.507,-5.441
34.13,-78.438,-5.705
34.16,-82.193,-5.865
34.19,-85.878,-6.129
34.23,-89.633,-6.404
34.26,-93.423,-6.587
34.29,-97.038,-6.77
34.33,-100.267,-6.919
34.36,-103.18,-7.011
34.39,-105.847,-7.16
34.42,-108.69,-7.412
34.46,-112.059,-7.664
34.49,-115.604,-7.847
34.52,-118.867,-8.076
34.55,-122.061,-8.328
34.59,-125.044,-8.454
34.62,-127.782,-8.615
34.65,-130.624,-8.821
34.68,-133.678,-9.073
34.72,-137.082,-9.325
34.75,-141.223,-9.714
34.78,-144.908,-9.875
34.81,-148.347,-9.966
34.85,-150.909,-10.161
34.88,-152.84,-10.001
34.91,-155.016,-10.31
34.94,-158.315,-10.745
34.98,-162.035,-10.837
35.01,-164.772,-10.848
35.04,-167.404,-11.192
35.07,-170.457,-11.49
35.11,-173.441,-11.49
35.14,-176.003,-11.524
35.17,-178.143,-11.742
35.2,-180.424,-11.856
35.24,-183.267,-12.097
35.27,-186.952,-12.487
35.3,-190.813,-12.739
35.33,-194.112,-12.796
35.37,-196.533,-12.853
35.4,-198.393,-12.956
35.43,-200.499,-13.014
35.47,-202.675,-13.048
35.5,-204.991,-13.197
35.53,-207.553,-13.392
35.56,-209.869,-13.495
35.6,-211.694,-13.529
35.63,-213.203,-13.586
35.66,-214.607,-13.644
35.69,-216.081,-13.689
35.73,-217.696,-13.85
35.76,-219.661,-14.056
35.79,-221.732,-14.297
35.82,-224.188,-14.48
35.86,-226.399,-14.606
35.89,-228.154,-14.652
35.92,-229.558,-14.675
35.95,-230.821,-14.801
35.99,-232.681,-14.972
36.02,-234.682,-15.11
36.05,-236.893,-15.202
36.08,-239.034,-15.385
36.12,-240.858,-15.408
36.15,-242.403,-15.454
36.18,-243.982,-15.545
36.21,-245.456,-15.591
36.25,-247.0,-15.706
36.28,-248.93,-15.797
36.31,-250.966,-15.946
36.34,-252.475,-15.946
36.38,-253.738,-15.969
36.41,-255.388,-16.21
36.44,-257.388,-16.301
36.47,-259.108,-16.255
36.51,-260.582,-16.393
36.54,-262.617,-16.599
36.57,-264.793,-16.668
36.6,-266.794,-16.668
36.64,-268.408,-16.702
36.67,-269.496,-16.645
36.7,-270.128,-16.485
36.74,-270.689,-16.519
36.77,-271.953,-16.645
36.8,-273.462,-16.714
36.83,-275.041,-16.817
36.87,-276.866,-16.954
36.9,-278.586,-17.034
36.93,-279.955,-17.011
36.96,-281.042,-17.023
37.0,-282.025,-17.0
37.03,-283.078,-16.966
37.06,-284.236,-16.989
37.09,-285.464,-17.126
37.13,-286.903,-17.172
37.16,-288.026,-17.046
37.19,-288.448,-16.954
37.22,-288.588,-16.828
37.26,-288.412,-16.759
37.29,-288.237,-16.668
37.32,-288.483,-16.725
37.35,-289.571,-16.943
37.39,-290.483,-16.954
37.42,-290.659,-16.954
37.45,-290.799,-16.966
37.48,-291.852,-17.126
37.52,-292.133,-16.863
37.55,-291.185,-16.576
37.58,-291.045,-16.908
37.61,-292.484,-17.115
37.65,-293.466,-16.908
37.68,-293.396,-16.828
37.71,-293.256,-16.954
37.74,-293.15,-16.805
37.78,-292.484,-16.53
37.81,-291.431,-16.427
37.84,-290.904,-16.565
37.87,-291.36,-16.691
37.91,-291.817,-16.645
37.94,-291.29,-16.553
37.97,-289.816,-16.427
38.01,-288.167,-16.164
38.04,-286.482,-15.992
38.07,-285.008,-15.946
38.1,-284.166,-15.958
38.14,-283.71,-16.038
38.17,-283.043,-16.095
38.2,-281.709,-16.049
38.23,-279.919,-15.912
38.27,-277.744,-15.751
38.3,-275.673,-15.637
38.33,-273.918,-15.545
38.36,-272.725,-15.602
38.4,-271.883,-15.751
38.43,-271.146,-15.774
38.46,-270.058,-15.763
38.49,-268.724,-15.74
38.53,-267.004,-15.499
38.56,-264.899,-15.328
38.59,-263.144,-15.259
38.62,-261.775,-15.202
38.66,-260.301,-15.156
38.69,-258.897,-15.144
38.72,-257.318,-15.11
38.75,-255.634,-15.007
38.79,-253.528,-14.743
38.82,-251.457,-14.663
38.85,-250.089,-14.869
38.88,-248.93,-14.663
38.92,-247.07,-14.434
38.95,-244.684,-14.411
38.98,-242.859,-14.342
39.01,-241.42,-14.251
39.05,-239.63,-14.113
39.08,-237.595,-13.999
39.11,-235.559,-13.896
39.15,-233.91,-13.838
39.18,-232.26,-13.735
39.21,-230.54,-13.621
39.24,-228.856,-13.586
39.28,-226.926,-13.46
39.31,-224.785,-13.208
39.34,-222.293,-13.048
39.37,-220.082,-13.002
39.41,-218.362,-12.865
39.44,-215.976,-12.613
39.47,-213.274,-12.383
39.5,-211.308,-12.59
39.54,-209.869,-12.452
39.57,-207.939,-12.143
39.6,-204.886,-11.925
39.63,-202.289,-11.822
39.67,-201.025,-12.051
39.7,-200.569,-11.971
39.73,-199.236,-11.662
39.76,-196.709,-11.478
39.8,-193.69,-11.238
39.83,-190.532,-10.837
39.86,-187.303,-10.631
39.89,-184.215,-10.47
39.93,-181.583,-10.276
39.96,-179.407,-10.321
39.99,-177.652,-10.264
40.02,-175.16,-9.943
40.06,-171.896,-9.646
40.09,-168.597,-9.52
40.12,-165.685,-9.359
40.15,-162.912,-9.119
40.19,-160.069,-8.924
40.22,-158.069,-9.084
40.25,-156.068,-8.901
40.28,-152.664,-8.214
40.32,-148.488,-8.156
40.35,-144.978,-8.076
40.38,-142.943,-7.996
40.42,-141.083,-7.95
40.45,-138.837,-7.595
40.48,-135.783,-7.458
40.51,-132.8,-7.332
40.55,-129.922,-7.08
40.58,-126.939,-6.759
40.61,-123.395,-6.484
40.64,-119.534,-6.186
40.68,-115.674,-5.934
40.71,-112.059,-5.785
40.74,-109.076,-5.67
40.77,-105.952,-5.396
40.81,-102.127,-5.086
40.84,-97.881,-4.766
40.87,-93.143,-4.422
40.9,-88.37,-4.158
40.94,-84.018,-3.952
40.97,-80.017,-3.826
41.0,-76.402,-3.677
41.03,-72.928,-3.551
41.07,-69.594,-3.391
41.1,-66.084,-3.242
41.13,-62.61,-3.001
41.16,-58.96,-2.795
41.2,-55.556,-2.635
41.23,-52.397,-2.52
41.26,-49.274,-2.337
41.29,-46.22,-2.096
41.33,-43.027,-1.902
41.36,-39.658,-1.718
41.39,-36.113,-1.443
41.42,-32.674,-1.237
41.46,-29.445,-1.123
41.49,-26.321,-0.916
41.52,-22.987,-0.63
41.56,-19.408,-0.458
41.59,-15.968,-0.321
41.62,-12.81,-0.149
41.65,-9.441,0.103
41.69,-5.545,0.367
41.72,-1.369,0.561
41.75,2.843,0.607
41.78,6.703,0.619
41.82,10.107,0.756
41.85,12.985,0.974
41.88,15.582,1.329
41.91,18.074,1.776
41.95,21.162,2.245
41.98,25.76,2.543
42.01,30.322,2.772
42.04,34.569,3.082
42.08,38.464,3.23
42.11,41.904,3.334
42.14,45.132,3.437
42.17,48.572,3.643
42.21,51.765,3.746
42.24,54.643,3.815
42.27,57.767,4.147
42.3,61.522,4.433
42.34,65.207,4.571
42.37,68.787,4.8
42.4,72.121,5.075
42.43,75.525,5.304
42.47,78.894,5.453
42.5,82.158,5.682
42.53,85.632,5.957
42.56,89.423,6.209
42.6,93.248,6.404
42.63,96.547,6.621
42.66,99.635,6.724
42.69,102.478,6.873
42.73,105.356,7.148
42.76,108.549,7.366
42.79,112.024,7.572
42.83,115.463,7.801
42.86,118.832,8.03
42.89,122.166,8.225
42.92,125.185,8.374
42.96,127.747,8.511
42.99,130.414,8.66
43.02,133.818,9.084
43.05,137.433,9.279
43.09,141.048,9.428
43.12,144.171,9.714
43.15,147.224,9.84
43.18,149.681,9.863
43.22,152.068,10.058
43.25,154.875,10.321
43.28,157.964,10.516
43.31,161.087,10.677
43.35,163.965,10.906
43.38,167.088,11.112
43.41,170.071,11.261
43.44,172.844,11.398
43.48,175.195,11.467
43.51,177.336,11.604
43.54,179.898,11.879
43.57,183.583,12.28
43.61,188.005,12.624
43.64,192.392,12.876
43.67,195.972,12.991
43.7,198.499,13.025
43.74,200.359,12.979
43.77,202.043,12.991
43.8,204.079,13.059
43.83,206.395,13.128
43.87,208.255,13.197
43.9,209.764,13.243
43.93,211.203,13.311
43.96,212.396,13.38
44.0,213.239,13.403
44.03,214.151,13.529
44.06,215.8,13.781
44.1,218.222,14.079
44.13,220.749,14.319
44.16,222.925,14.457
44.19,224.995,14.675
44.23,227.101,14.869
44.26,229.031,14.846
44.29,230.611,14.892
44.32,232.506,15.133
44.36,234.927,15.224
44.39,236.858,15.224
44.42,238.191,15.236
44.45,240.402,15.625
44.49,242.999,15.763
44.52,245.07,15.66
44.55,245.772,15.522
44.58,246.544,15.614
44.62,248.193,15.9
44.65,250.58,15.923
44.68,252.37,15.958
44.71,254.019,16.221
44.75,256.055,16.37
44.78,257.704,16.29
44.81,259.108,16.381
44.84,261.073,16.576
44.88,263.284,16.645
44.91,265.179,16.668
44.94,266.864,16.759
44.97,268.759,16.828
45.01,270.303,16.782
45.04,271.181,16.645
45.07,271.848,16.622
45.1,272.865,16.691
45.14,274.199,16.714
45.17,275.638,16.817
45.2,277.287,16.977
45.24,279.042,17.023
45.27,280.446,17.034
45.3,281.569,17.0
45.33,282.481,17.023
45.37,283.429,17.023
45.4,284.447,17.011
45.43,285.5,17.057
45.46,286.728,17.103
45.5,287.816,17.069
45.53,288.553,17.011
45.56,289.079,16.989
45.59,289.43,16.931
45.63,289.395,16.794
45.66,289.255,16.817
45.69,289.922,16.943
45.72,290.799,17.0
45.76,291.115,16.897
45.79,291.185,16.954
45.82,290.974,16.908
45.85,291.431,17.0
45.89,292.168,17.023
45.92,292.413,16.885
45.95,292.589,17.011
45.98,293.326,17.103
46.02,293.852,17.046
46.05,293.747,16.874
46.08,292.659,16.645
46.11,291.185,16.393
46.15,289.571,16.278
46.18,289.079,16.45
46.21,289.886,16.737
46.24,290.869,16.874
46.28,291.255,16.885
46.31,290.799,16.805
46.34,289.886,16.668
46.37,289.149,16.507
46.41,288.307,16.359
46.44,287.465,16.267
46.47,286.798,16.244
46.51,285.956,16.141
46.54,284.341,15.923
46.57,281.885,15.717
46.6,279.147,15.568
46.64,276.62,15.419
46.67,274.409,15.339
46.7,272.549,15.408
46.73,271.181,15.58
46.77,270.023,15.625
46.8,268.724,15.648
46.83,267.215,15.683
46.86,265.671,15.602
46.9,264.021,15.465
46.93,262.477,15.476
46.96,261.389,15.476
46.99,260.406,15.408
47.03,259.143,15.339
47.06,257.634,15.305
47.09,255.984,15.179
47.12,254.37,15.041
47.16,252.615,14.938
47.19,250.439,14.652
47.22,248.123,14.583
47.25,246.017,14.514
47.29,244.438,14.48
47.32,242.929,14.537
47.35,241.35,14.319
47.38,238.963,14.079
47.42,236.647,14.102
47.45,235.138,14.148
47.48,234.015,14.067
47.51,232.576,13.953
47.55,230.927,13.873
47.58,229.102,13.712
47.61,227.171,13.563
47.64,224.434,13.14
47.68,221.696,13.071
47.71,220.222,13.311
47.74,219.345,13.14
47.78,217.52,12.876
47.81,215.379,12.865
47.84,213.414,12.796
47.87,211.273,12.475
47.91,208.536,12.177
47.94,205.658,12.063
47.97,203.166,11.937
48.0,201.236,11.811
48.04,199.516,11.788
48.07,197.832,11.673
48.1,195.691,11.49
48.13,192.989,11.238
48.17,189.935,11.009
48.2,187.163,10.825
48.23,184.496,10.677
48.26,182.109,10.516
48.3,180.109,10.493
48.33,178.319,10.402
48.36,175.932,10.115
48.39,172.668,9.783
48.43,169.159,9.588
48.46,165.93,9.405
48.49,162.982,9.153
48.52,160.35,9.038
48.56,158.104,9.038
48.59,155.998,8.878
48.62,153.296,8.569
48.65,149.751,8.294
48.69,146.628,8.282
48.72,143.75,8.007
48.75,140.732,7.687
48.78,137.959,7.71
48.82,135.713,7.561
48.85,133.292,7.32
48.88,130.238,7.057
48.92,126.764,6.782
48.95,123.009,6.518
48.98,119.394,6.289
49.01,115.884,6.037
49.05,112.515,5.854
49.08,109.497,5.762
49.11,106.374,5.544
49.14,102.478,5.121
49.18,97.775,4.766
49.21,92.686,4.468
49.24,87.773,4.227
49.27,83.211,4.009
49.31,79.35,3.872
49.34,76.051,3.815
49.37,72.998,3.712
49.4,69.769,3.505
49.44,66.33,3.311
49.47,62.961,3.185
49.5,59.732,3.001
49.53,56.573,2.772
49.57,53.38,2.577
49.6,50.327,2.451
49.63,47.414,2.291
49.66,44.431,2.028
49.7,40.991,1.718
49.73,37.201,1.524
49.76,33.586,1.283
49.79,29.971,1.065
49.83,26.427,0.859
49.86,22.882,0.722
49.89,19.548,0.584
49.92,16.214,0.401
49.96,12.564,0.183
49.99,8.704,0.046
50.02,5.019,-0.046
50.05,1.404,-0.069
50.09,-2.141,-0.126
50.12,-5.229,-0.195
50.15,-8.212,-0.309
50.19,-11.09,-0.607
50.22,-14.108,-0.985
50.25,-17.477,-1.432
50.28,-20.601,-1.867
50.32,-23.865,-2.371
50.35,-28.111,-2.887
50.38,-33.025,-3.208
50.41,-38.043,-3.23
50.45,-41.833,-3.334
50.48,-45.132,-3.586
50.51,-48.151,-3.62
50.54,-51.239,-3.849
50.58,-54.749,-4.17
50.61,-58.609,-4.307
50.64,-62.399,-4.536
50.67,-65.909,-4.811
50.71,-68.541,-4.697
50.74,-70.963,-4.926
50.77,-74.051,-5.373
50.8,-77.49,-5.453
50.84,-80.824,-5.636
50.87,-84.369,-6.049
50.9,-88.3,-6.301
50.93,-92.16,-6.53
50.97,-95.985,-6.805
51.0,-99.495,-6.988
51.03,-102.899,-7.148
51.06,-106.233,-7.4
51.1,-109.602,-7.572
51.13,-112.866,-7.744
51.16,-116.095,-7.927
51.19,-119.254,-8.145
51.23,-122.552,-8.351
51.26,-125.571,-8.477
51.29,-128.273,-8.569
51.33,-130.94,-8.867
51.36,-133.888,-9.038
51.39,-137.117,-9.302
51.42,-140.486,-9.577
51.46,-144.101,-9.794
51.49,-147.47,-9.978
51.52,-149.892,-9.955
51.55,-151.892,-10.047
51.59,-154.314,-10.31
51.62,-157.262,-10.562
51.65,-160.42,-10.745
51.68,-163.614,-10.986
51.72,-166.948,-11.215
51.75,-170.001,-11.387
51.78,-172.704,-11.478
51.81,-174.985,-11.547
51.85,-177.161,-11.73
51.88,-179.863,-11.925
51.91,-183.057,-12.2
51.94,-186.812,-12.521
51.98,-190.707,-12.761
52.01,-194.041,-12.865
52.04,-196.603,-12.945
52.07,-198.814,-13.002
52.11,-200.885,-13.048
52.14,-203.061,-13.094
52.17,-205.132,-13.162
52.2,-207.378,-13.369
52.24,-209.659,-13.46
52.27,-211.484,-13.46
52.3,-212.817,-13.552
52.33,-214.256,-13.666
52.37,-215.906,-13.735
52.4,-217.555,-13.907
52.43,-219.626,-14.125
52.46,-221.907,-14.319
52.5,-224.469,-14.48
52.53,-226.715,-14.663
52.56,-228.926,-14.812
52.6,-230.54,-14.812
52.63,-231.734,-14.789
52.66,-233.173,-14.904
52.69,-235.033,-15.018
52.73,-236.752,-15.121
52.76,-238.472,-15.224
52.79,-240.157,-15.396
52.82,-241.806,-15.465
52.86,-243.456,-15.511
52.89,-244.789,-15.454
52.92,-246.088,-15.591
52.95,-248.334,-15.946
52.99,-251.106,-16.129
53.02,-253.036,-16.049
53.05,-254.335,-16.095
53.08,-256.195,-16.255
53.12,-258.09,-16.267
53.15,-259.599,-16.233
53.18,-261.108,-16.336
53.21,-262.968,-16.519
53.25,-264.828,-16.576
53.28,-266.478,-16.599
53.31,-268.198,-16.656
53.34,-269.601,-16.565
53.38,-270.233,-16.485
53.41,-270.83,-16.507
53.44,-271.777,-16.599
53.47,-273.181,-16.691
53.51,-274.796,-16.782
53.54,-276.62,-16.943
53.57,-278.375,-17.046
53.6,-279.814,-16.977
53.64,-280.656,-16.989
53.67,-281.709,-17.0
53.7,-282.762,-16.92
53.73,-283.815,-16.989
53.77,-285.114,-17.126
53.8,-286.552,-17.103
53.83,-287.711,-17.046
53.87,-288.448,-17.023
53.9,-288.869,-16.943
53.93,-289.009,-16.863
53.96,-289.044,-16.748
54.0,-289.255,-16.691
54.03,-289.886,-16.92
54.06,-290.694,-16.943
54.09,-290.834,-16.885
54.13,-290.904,-16.908
54.16,-291.852,-17.069
54.19,-292.203,-16.851
54.22,-291.36,-16.565
54.26,-291.185,-16.931
54.29,-292.694,-17.092
54.32,-293.571,-16.851
54.35,-293.326,-16.805
54.39,-293.291,-16.931
54.42,-293.221,-16.737
54.45,-292.273,-16.473
54.48,-291.01,-16.416
54.52,-290.518,-16.507
54.55,-290.834,-16.622
54.58,-291.15,-16.656
54.61,-290.869,-16.565
54.65,-289.641,-16.404
54.68,-287.991,-16.198
54.71,-286.307,-16.038
54.74,-284.903,-15.98
54.78,-284.026,-16.026
54.81,-283.71,-16.141
54.84,-283.148,-16.187
54.87,-281.99,-16.061
54.91,-280.025,-15.854
54.94,-277.568,-15.671
54.97,-275.462,-15.534
55.01,-273.637,-15.465
55.04,-272.444,-15.625
55.07,-271.883,-15.809
55.1,-271.461,-15.786
55.14,-270.444,-15.74
55.17,-268.9,-15.694
55.2,-266.899,-15.465
55.23,-264.618,-15.316
55.27,-262.968,-15.282
55.3,-261.6,-15.247
55.33,-260.301,-15.236
55.36,-259.143,-15.19
55.4,-257.634,-15.179
55.43,-255.984,-15.098
55.46,-253.914,-14.846
55.49,-251.633,-14.629
55.53,-249.562,-14.56
55.56,-247.737,-14.537
55.59,-246.474,-14.549
55.62,-245.175,-14.48
55.66,-243.771,-14.457
55.69,-242.227,-14.365
55.72,-240.332,-14.148
55.75,-238.016,-14.022
55.79,-236.156,-13.999
55.82,-234.717,-13.873
55.85,-232.716,-13.666
55.88,-230.54,-13.552
55.92,-228.54,-13.506
55.95,-226.575,-13.38
55.98,-224.644,-13.151
56.01,-222.293,-13.025
56.05,-220.152,-13.014
56.08,-218.292,-12.853
56.11,-216.292,-12.716
56.14,-214.291,-12.67
56.18,-212.396,-12.578
56.21,-210.08,-12.292
56.24,-207.729,-12.223
56.28,-205.237,-11.96
56.31,-202.57,-11.662
56.34,-200.674,-11.971
56.37,-199.937,-11.925
56.41,-198.463,-11.536
56.44,-195.831,-11.421
56.47,-192.953,-11.238
56.5,-189.935,-10.871
56.54,-186.882,-10.688
56.57,-184.25,-10.562
56.6,-181.863,-10.356
56.63,-179.652,-10.344
56.67,-177.687,-10.276
56.7,-175.336,-10.001
56.73,-171.967,-9.646
56.76,-168.352,-9.428
56.8,-165.228,-9.336
56.83,-162.526,-9.13
56.86,-159.718,-8.867
56.89,-157.507,-9.061
56.93,-155.542,-8.832
56.96,-152.559,-8.34
56.99,-148.944,-8.317
57.02,-145.961,-8.202
57.06,-143.329,-7.996
57.09,-140.662,-7.721
57.12,-137.749,-7.538
57.15,-135.081,-7.469
57.19,-132.59,-7.274
57.22,-129.747,-6.999
57.25,-126.413,-6.736
57.28,-122.833,-6.461
57.32,-119.148,-6.209
57.35,-115.674,-6.014
57.38,-112.41,-5.9
57.41,-109.602,-5.716
57.45,-106.444,-5.43
57.48,-102.548,-5.098
57.51,-98.126,-4.777
57.55,-93.213,-4.422
57.58,-88.3,-4.147
57.61,-83.842,-3.941
57.64,-79.842,-3.815
57.68,-76.297,-3.689
57.71,-72.928,-3.551
57.74,-69.594,-3.402
57.77,-66.295,-3.242
57.81,-62.75,-3.024
57.84,-59.065,-2.841
57.87,-55.731,-2.681
57.9,-52.678,-2.52
57.94,-49.66,-2.314
57.97,-46.466,-2.108
58.0,-43.202,-1.925
58.03,-39.938,-1.73
58.07,-36.464,-1.455
58.1,-33.025,-1.26
58.13,-29.726,-1.111
58.16,-26.602,-0.894
58.2,-23.268,-0.642
58.23,-19.759,-0.47
58.26,-16.109,-0.263
58.29,-12.424,-0.034
58.33,-8.563,0.183
58.36,-4.492,0.378
58.39,-0.491,0.538
58.42,3.545,0.584
58.46,7.019,0.538
58.49,9.581,0.584
58.52,11.722,0.871
58.55,14.284,1.363
58.59,17.267,1.821
58.62,20.671,2.268
58.65,25.058,2.681
58.69,29.585,2.967
58.72,33.727,3.196
58.75,37.552,3.379
58.78,41.377,3.551
58.82,45.097,3.654
58.85,48.677,3.849
58.88,52.187,4.032
58.91,55.731,4.181
58.95,59.311,4.387
58.98,63.066,4.697
59.01,66.856,4.869
59.04,70.19,4.949
59.08,72.998,5.132
59.11,76.016,5.373
59.14,78.999,5.556
59.17,82.263,5.739
59.21,85.492,5.957
59.24,88.159,6.026
59.27,91.177,6.358
59.3,94.792,6.77
59.34,98.232,6.816
59.37,101.109,6.885
59.4,103.741,7.194
59.43,106.865,7.48
59.47,110.936,7.801
59.5,115.042,8.065
59.53,118.587,8.179
59.56,121.991,8.408
59.6,125.29,8.672
59.63,128.308,8.741
59.66,130.975,8.832
59.69,134.169,9.256
59.73,137.784,9.394
59.76,141.399,9.52
59.79,144.452,9.76
59.82,147.189,9.84
59.86,149.4,9.909
59.89,151.752,10.127
59.92,154.7,10.425
59.96,157.928,10.596
59.99,160.876,10.768
60.02,163.789,11.02
60.05,166.878,11.226
60.09,169.826,11.364
60.12,172.388,11.49
60.15,174.739,11.547
60.18,176.88,11.673
60.22,179.582,11.914
60.25,182.881,12.257
60.28,186.812,12.567
60.31,190.672,12.796
60.35,194.217,13.014
60.38,197.411,13.117
60.41,199.832,13.094
60.44,201.727,13.094
60.48,203.763,13.162
60.51,205.939,13.3
60.54,208.255,13.357
60.57,210.15,13.369
60.61,211.694,13.46
60.64,212.852,13.529
60.67,213.66,13.414
60.7,214.502,13.563
60.74,216.257,13.896
60.77,218.608,14.102
60.8,220.854,14.274
60.83,223.1,14.503
60.87,225.487,14.743
60.9,227.698,14.869
60.93,229.172,14.766
60.96,230.33,14.835
61.0,232.12,15.11
61.03,234.647,15.293
61.06,236.963,15.316
61.09,238.683,15.328
61.13,240.788,15.66
61.16,243.21,15.786
61.19,245.0,15.602
61.23,245.912,15.648
61.26,247.316,15.889
61.29,249.211,15.912
61.32,250.896,15.889
61.36,252.65,16.049
61.39,254.721,16.267
61.42,256.616,16.255
61.45,258.195,16.278
61.49,259.283,16.278
61.52,260.617,16.29
61.55,262.617,16.542
61.58,265.144,16.725
61.62,267.145,16.714
61.65,268.513,16.668
61.68,269.496,16.668
61.71,270.128,16.553
61.75,270.9,16.519
61.78,272.163,16.633
61.81,273.602,16.771
61.84,275.252,16.851
61.88,276.971,16.989
61.91,278.726,17.103
61.94,280.305,17.092
61.97,281.429,16.966
62.01,282.13,17.0
62.04,283.148,17.057
62.07,284.306,16.977
62.1,285.394,17.011
62.14,286.623,17.149
62.17,287.851,17.08
62.2,288.518,16.989
62.23,288.974,16.954
62.27,289.22,16.897
62.3,289.22,16.714
62.33,289.29,16.702
62.37,289.922,16.851
62.4,290.799,16.92
62.43,291.115,16.828
62.46,291.185,16.874
62.5,291.115,16.794
62.53,291.466,16.828
62.56,292.027,16.943
62.59,292.484,16.828
62.63,292.834,16.943
62.66,293.571,17.069
62.69,294.344,16.966
62.72,294.344,16.828
62.76,293.712,16.714
62.79,292.764,16.496
62.82,291.571,16.301
62.85,290.904,16.37
62.89,291.22,16.576
62.92,291.782,16.656
62.95,291.606,16.588
62.98,290.588,16.439
63.02,289.149,16.278
63.05,287.886,16.175
63.08,286.763,16.049
63.11,285.745,16.015
63.15,284.903,16.141
63.18,284.868,16.233
63.21,285.921,16.656
63.24,288.307,17.08
63.28,289.851,16.874
63.31,288.904,16.393
63.34,286.763,16.164
63.37,285.008,15.843
63.41,283.113,15.396
63.44,280.692,15.121
63.47,277.673,14.892
63.5,274.199,14.629
63.54,270.584,14.468
63.57,267.601,14.571
63.6,265.425,14.64
63.64,263.53,14.675
63.67,261.6,14.801
63.7,259.81,14.892
63.73,257.915,14.823
63.77,255.388,14.617
63.8,252.545,14.468
63.83,250.159,14.445
63.86,248.474,14.503
63.9,247.211,14.549
63.93,246.158,14.571
63.96,245.105,14.629
63.99,243.877,14.514
64.03,242.508,14.388
64.06,240.753,14.216
64.09,238.753,13.999
64.12,237.103,14.056
64.16,236.121,14.033
64.19,234.682,13.758
64.22,232.26,13.54
64.25,229.839,13.426
64.29,227.417,13.243
64.32,224.82,12.933
64.35,222.258,12.876
64.38,220.328,12.842
64.42,218.398,12.739
64.45,216.573,12.635
64.48,214.713,12.601
64.51,212.466,12.372
64.55,209.624,12.109
64.58,206.746,11.96
64.61,204.64,11.937
64.64,202.956,11.925
64.68,201.517,11.822
64.71,200.113,11.799
64.74,198.463,11.696
64.78,195.901,11.284
64.81,192.357,10.917
64.84,189.023,10.768
64.87,186.461,10.665
64.91,184.355,10.505
64.94,182.249,10.39
64.97,180.424,10.356
65.0,178.635,10.287
65.04,175.792,9.852
65.07,171.861,9.394
65.1,168.352,9.394
65.13,165.79,9.325
65.17,163.193,8.935
65.2,160.175,8.786
65.23,157.683,8.901
65.26,155.823,8.775
65.3,152.98,8.305
65.33,149.12,7.985
65.36,145.715,8.019
65.39,143.539,7.95
65.43,141.153,7.606
65.46,137.959,7.297
65.49,135.011,7.297
65.52,132.449,7.228
65.56,129.185,6.69
65.59,124.693,6.232
65.62,120.341,6.175
65.65,116.095,5.98
65.69,107.356,4.239
65.72,94.441,2.864
65.75,85.281,4.044
65.78,84.299,5.258
65.82,86.685,4.972
65.85,87.106,4.903
65.88,84.264,4.937
65.91,80.473,4.731
65.95,77.771,4.823
65.98,76.543,4.674
66.01,75.525,4.433
66.05,73.981,4.204
66.08,71.735,3.918
66.11,68.997,3.643
66.14,66.049,3.437
66.18,62.961,3.07
66.21,59.872,2.818
66.24,56.819,2.6
66.27,53.45,2.314
66.31,49.765,1.959
66.34,45.694,1.718
66.37,41.833,1.501
66.4,37.938,1.226
66.44,33.867,0.962
66.47,30.077,0.871
66.5,26.567,0.756
66.53,23.128,0.538
66.57,19.443,0.332
66.6,15.582,0.218
66.63,12.178,0.115
66.66,9.125,0.126
66.7,6.317,0.08
66.73,3.194,0.08
66.76,0.456,0.0
66.79,-2.036,-0.206
66.83,-5.159,-0.378
66.86,-8.388,-0.527
66.89,-11.687,-0.813
66.92,-15.091,-1.214
66.96,-18.671,-1.661
66.99,-22.356,-2.131
67.02,-25.9,-2.486
67.05,-30.112,-2.887
67.09,-35.165,-3.276
67.12,-40.289,-3.379
67.15,-44.36,-3.482
67.18,-47.905,-3.643
67.22,-51.204,-3.826
67.25,-54.538,-3.987
67.28,-58.083,-4.17
67.32,-61.768,-4.399
67.35,-65.242,-4.594
67.38,-68.576,-4.731
67.41,-71.91,-5.006
67.45,-75.279,-5.224
67.48,-78.648,-5.373
67.51,-81.912,-5.59
67.54,-85.352,-5.854
67.58,-88.966,-6.106
67.61,-92.651,-6.369
67.64,-96.091,-6.507
67.67,-99.039,-6.587
67.71,-101.495,-6.77
67.74,-104.163,-6.976
67.77,-107.146,-7.183
67.8,-110.41,-7.469
67.84,-113.954,-7.732
67.87,-117.569,-7.962
67.9,-120.833,-8.191
67.93,-123.746,-8.248
67.97,-126.237,-8.397
68.0,-128.975,-8.729
68.03,-132.169,-8.912
68.06,-135.503,-9.084
68.1,-138.802,-9.348
68.13,-142.346,-9.623
68.16,-145.75,-9.817
68.19,-148.804,-9.943
68.23,-151.576,-10.115
68.26,-154.489,-10.31
68.29,-157.507,-10.47
68.32,-160.455,-10.665
68.36,-163.684,-10.94
68.39,-166.983,-11.123
68.42,-169.791,-11.204
68.46,-172.282,-11.272
68.49,-174.493,-11.433
68.52,-176.88,-11.627
68.55,-179.512,-11.776
68.59,-182.706,-12.028
68.62,-186.461,-12.406
68.65,-190.286,-12.613
68.68,-193.48,-12.716
68.72,-196.112,-12.819
68.75,-198.569,-12.91
68.78,-201.06,-12.968
68.81,-203.201,-13.002
68.85,-205.342,-13.082
68.88,-207.553,-13.254
68.91,-209.799,-13.369
68.94,-211.624,-13.357
68.98,-213.098,-13.392
69.01,-214.432,-13.518
69.04,-215.941,-13.598
69.07,-217.661,-13.735
69.11,-219.591,-13.964
69.14,-221.872,-14.205
69.17,-224.258,-14.354
69.2,-226.575,-14.514
69.24,-228.645,-14.663
69.27,-230.611,-14.778
69.3,-232.506,-14.789
69.33,-234.19,-14.892
69.37,-236.156,-15.041
69.4,-237.981,-15.075
69.43,-239.63,-15.179
69.46,-241.42,-15.305
69.5,-242.894,-15.247
69.53,-243.771,-15.224
69.56,-244.719,-15.339
69.59,-246.333,-15.568
69.63,-248.615,-15.751
69.66,-251.001,-15.854
69.69,-253.177,-16.061
69.73,-255.247,-16.198
69.76,-256.721,-16.095
69.79,-257.739,-16.026
69.82,-258.968,-16.187
69.86,-260.933,-16.301
69.89,-262.933,-16.359
69.92,-264.618,-16.462
69.95,-266.338,-16.565
69.99,-267.952,-16.576
70.02,-269.321,-16.542
70.05,-269.882,-16.427
70.08,-270.479,-16.45
70.12,-271.918,-16.737
70.15,-273.778,-16.679
70.18,-275.217,-16.714
70.21,-276.62,-16.954
70.25,-278.34,-16.989
70.28,-279.814,-16.897
70.31,-280.762,-16.908
70.34,-281.815,-16.92
70.38,-282.832,-16.908
70.41,-284.166,-16.977
70.44,-285.464,-17.034
70.47,-286.728,-17.057
70.51,-287.851,-17.115
70.54,-288.728,-17.011
70.57,-288.974,-16.885
70.6,-288.553,-16.691
70.64,-288.448,-16.668
70.67,-288.693,-16.759
70.7,-289.43,-16.851
70.73,-290.237,-16.908
70.77,-290.659,-16.931
70.8,-290.974,-16.989
70.83,-291.571,-16.977
70.86,-291.747,-16.931
70.9,-291.396,-16.794
70.93,-291.045,-16.702
70.96,-291.396,-16.828
71.0,-292.133,-16.92
71.03,-292.448,-16.782
71.06,-292.097,-16.748
71.09,-291.711,-16.748
71.13,-291.36,-16.645
71.16,-290.764,-16.542
71.19,-290.588,-16.645
71.22,-291.115,-16.794
71.26,-291.641,-16.714
71.29,-291.431,-16.599
71.32,-290.167,-16.519
71.35,-288.553,-16.267
71.39,-286.868,-16.061
71.42,-285.464,-16.003
71.45,-284.482,-16.049
71.48,-284.026,-16.141
71.52,-283.429,-16.141
71.55,-282.236,-16.061
71.58,-280.446,-15.935
71.61,-278.235,-15.74
71.65,-276.059,-15.58
71.68,-274.164,-15.522
71.71,-272.971,-15.648
71.74,-272.198,-15.797
71.78,-271.497,-15.854
71.81,-270.549,-15.854
71.84,-269.321,-15.786
71.87,-267.566,-15.534
71.91,-265.32,-15.316
71.94,-263.354,-15.305
71.97,-262.021,-15.282
72.0,-260.968,-15.247
72.04,-259.705,-15.247
72.07,-258.371,-15.224
72.1,-256.686,-15.11
72.14,-254.51,-14.858
72.17,-252.335,-14.732
72.2,-250.51,-14.732
72.23,-249.106,-14.697
72.27,-247.562,-14.629
72.3,-246.088,-14.571
72.33,-244.649,-14.583
72.36,-243.491,-14.514
72.4,-241.28,-14.148
72.43,-238.647,-13.953
72.46,-236.893,-14.159
72.49,-235.805,-13.964
72.53,-233.699,-13.644
72.56,-230.856,-13.529
72.59,-228.435,-13.46
72.62,-226.399,-13.392
72.66,-224.258,-13.208
72.69,-221.907,-13.025
72.72,-219.45,-12.979
72.75,-217.555,-12.991
72.79,-215.625,-12.761
72.82,-213.625,-12.693
72.85,-212.466,-12.91
72.88,-211.589,-12.693
72.92,-209.238,-12.28
72.95,-206.29,-12.177
72.98,-203.833,-12.097
73.01,-201.762,-11.845
73.05,-199.832,-11.742
73.08,-197.867,-11.582
73.11,-195.375,-11.41
73.14,-192.497,-11.215
73.18,-189.549,-10.952
73.21,-186.707,-10.757
73.24,-183.829,-10.608
73.27,-181.337,-10.493
73.31,-179.512,-10.493
73.34,-177.687,-10.436
73.37,-175.336,-10.184
73.41,-172.247,-9.875
73.44,-169.054,-9.726
73.47,-166.351,-9.588
73.5,-163.614,-9.302
73.54,-160.596,-9.061
73.57,-158.35,-9.199
73.6,-156.174,-9.05
73.63,-153.506,-8.557
73.67,-150.137,-8.5
73.7,-146.873,-8.259
73.73,-143.575,-7.927
73.76,-140.311,-7.79
73.8,-137.398,-7.687
73.83,-134.801,-7.503
73.86,-132.169,-7.332
73.89,-129.361,-7.148
73.93,-126.237,-6.908
73.96,-122.728,-6.633
73.99,-119.113,-6.392
74.02,-115.674,-6.197
74.06,-112.515,-6.037
74.09,-109.567,-5.888
74.12,-106.514,-5.625
74.15,-102.724,-5.292
74.19,-98.372,-4.983
74.22,-93.704,-4.651
74.25,-89.001,-4.353
74.28,-84.579,-4.124
74.32,-80.473,-3.998
74.35,-76.823,-3.838
74.38,-73.279,-3.654
74.41,-69.734,-3.528
74.45,-66.19,-3.368
74.48,-62.645,-3.127
74.51,-58.96,-2.967
74.55,-55.731,-2.83
74.58,-52.818,-2.704
74.61,-49.94,-2.497
74.64,-46.712,-2.234
74.68,-43.343,-2.062
74.71,-40.114,-1.879
74.74,-36.71,-1.569
74.77,-33.235,-1.386
74.81,-29.936,-1.214
74.84,-26.672,-1.008
74.87,-23.409,-0.768
74.9,-19.794,-0.527
74.94,-15.898,-0.263
74.97,-11.476,0.057
75.0,-6.738,0.321
75.03,-2.071,0.447
75.07,1.825,0.435
75.1,4.984,0.389
75.13,7.3,0.389
75.16,8.809,0.458
75.2,10.283,0.768
75.23,12.389,1.283
75.26,15.547,1.821
75.29,19.583,2.314
75.33,24.251,2.761
75.36,29.445,2.933
75.39,33.481,3.082
75.42,37.096,3.345
75.46,40.675,3.586
75.49,44.466,3.7
75.52,48.291,3.895
75.55,52.187,4.101
75.59,55.766,4.158
75.62,59.065,4.33
75.65,62.68,4.685
75.68,66.576,4.88
75.72,70.155,4.937
75.75,73.068,5.086
75.78,76.051,5.35
75.82,78.929,5.51
75.85,82.053,5.67
75.88,85.246,5.957
75.91,88.124,6.094
75.95,91.493,6.415
75.98,95.459,6.793
76.01,99.004,6.873
76.04,101.952,6.965
76.08,104.654,7.24
76.11,107.742,7.492
76.14,111.533,7.79
76.17,115.498,8.076
76.21,119.008,8.156
76.24,122.202,8.374
76.27,125.29,8.603
76.3,128.484,8.775
76.34,131.467,8.89
76.37,134.485,9.096
76.4,137.433,9.313
76.43,140.556,9.451
76.47,143.68,9.703
76.5,146.803,9.863
76.53,149.471,9.921
76.56,151.892,10.092
76.6,154.735,10.367
76.63,157.858,10.562
76.66,160.736,10.734
76.69,163.789,10.986
76.73,166.843,11.204
76.76,169.896,11.364
76.79,172.633,11.478
76.82,175.02,11.536
76.86,177.09,11.639
76.89,179.512,11.868
76.92,182.811,12.212
76.95,186.671,12.475
76.99,190.356,12.704
77.02,193.831,12.899
77.05,196.849,13.036
77.09,199.271,13.071
77.12,201.376,13.105
77.15,203.517,13.14
77.18,205.658,13.266
77.22,207.904,13.357
77.25,209.975,13.369
77.28,211.589,13.472
77.31,213.168,13.586
77.35,214.467,13.54
77.38,215.555,13.609
77.41,217.134,13.861
77.44,219.31,14.102
77.48,221.696,14.297
77.51,223.907,14.457
77.54,226.118,14.686
77.57,228.435,14.858
77.61,229.909,14.686
77.64,230.891,14.732
77.67,232.436,15.007
77.7,234.752,15.167
77.74,236.787,15.19
77.77,238.507,15.305
77.8,240.192,15.465
77.83,242.087,15.66
77.87,243.666,15.522
77.9,245.316,15.717
77.93,247.597,16.015
77.96,249.562,15.9
78.0,250.615,15.877
78.03,252.335,16.129
78.06,254.756,16.29
78.09,257.072,16.29
78.13,258.687,16.278
78.16,260.161,16.37
78.19,261.74,16.485
78.23,263.951,16.576
78.26,265.636,16.53
78.29,266.548,16.393
78.32,267.847,16.633
78.36,269.637,16.702
78.39,270.97,16.496
78.42,271.111,16.393
78.45,271.637,16.519
78.49,273.322,16.748
78.52,275.392,16.817
78.55,277.217,16.943
78.58,278.867,17.046
78.62,280.235,17.034
78.65,281.148,16.943
78.68,281.815,16.954
78.71,282.797,16.966
78.75,283.85,16.966
78.78,285.114,17.0
78.81,286.307,17.103
78.84,287.535,17.172
78.88,288.483,17.057
78.91,288.904,17.0
78.94,289.29,16.908
78.97,289.22,16.748
79.01,289.149,16.748
79.04,289.816,16.908
79.07,290.869,16.966
79.1,291.185,16.851
79.14,291.185,16.897
79.17,291.01,16.805
79.2,291.325,16.874
79.23,291.922,16.954
79.27,292.308,16.805
79.3,292.484,16.954
79.33,293.326,17.103
79.36,294.098,16.977
79.4,294.098,16.851
79.43,293.677,16.748
79.46,292.905,16.565
79.5,291.852,16.324
79.53,290.974,16.37
79.56,291.08,16.565
79.59,291.606,16.622
79.63,291.571,16.519
79.66,290.553,16.404
79.69,288.904,16.21
79.72,287.325,16.038
79.76,286.201,15.992
79.79,286.272,16.267
79.82,287.921,16.759
79.85,289.43,16.828
79.89,288.869,16.416
79.92,285.745,15.9
79.95,281.779,15.442
79.98,278.165,15.087
80.02,275.392,14.904
80.05,272.971,14.904
80.08,270.865,15.03
80.11,268.794,15.156
80.15,267.25,15.35
80.18,266.092,15.465
80.21,264.688,15.431
80.24,262.828,15.35
80.28,260.898,15.247
80.31,259.038,15.167
80.34,257.248,15.098
80.37,255.634,15.075
80.41,254.37,15.11
80.44,253.247,15.087
80.47,251.738,14.927
80.5,250.124,14.858
80.54,248.72,14.869
80.57,247.562,14.789
80.6,245.842,14.549
80.63,244.508,14.629
80.67,244.087,14.823
80.7,243.35,14.549
80.73,241.104,14.125
80.77,238.226,13.987
80.8,235.91,13.907
80.83,233.804,13.666
80.86,231.523,13.483
80.9,229.312,13.495
80.93,227.628,13.54
80.96,226.118,13.449
80.99,224.294,13.277
81.03,222.188,13.185
81.06,220.012,13.014
81.09,217.661,12.819
81.12,215.309,12.739
81.16,213.274,12.601
81.19,211.343,12.509
81.22,209.518,12.441
81.25,207.378,12.212
81.29,205.132,12.04
81.32,203.201,12.051
81.35,201.587,11.937
81.38,199.692,11.708
81.42,197.691,11.616
81.45,195.831,11.559
81.48,193.971,11.352
81.51,191.374,10.986
81.55,188.426,10.745
81.58,185.443,10.585
81.61,182.6,10.379
81.64,179.828,10.173
81.68,177.477,10.161
81.71,175.301,10.047
81.74,172.914,9.829
81.77,170.317,9.623
81.81,167.825,9.646
81.84,164.386,9.061
81.87,160.561,8.775
81.91,157.437,8.935
81.94,155.858,8.867
81.97,154.103,8.66
82.0,151.401,8.317
82.04,147.786,8.088
82.07,144.347,7.893
82.1,141.083,7.652
82.13,137.889,7.412
82.17,134.766,7.228
82.2,131.712,7.091
82.23,128.835,6.942
82.26,125.711,6.656
82.3,121.886,6.369
82.33,117.955,6.163
82.36,114.41,5.98
82.39,111.217,5.842
82.43,108.374,5.728
82.46,105.215,5.476
82.49,101.25,5.086
82.52,96.758,4.777
82.56,92.3,4.617
82.59,88.475,4.445
82.62,85.036,4.227
82.65,81.807,4.124
82.69,79.245,4.124
82.72,76.894,3.987
82.75,74.016,3.712
82.78,70.576,3.46
82.82,67.032,3.253
82.85,63.242,2.944
82.88,59.311,2.646
82.91,55.45,2.417
82.95,51.801,2.268
82.98,48.361,2.028
83.01,44.571,1.753
83.04,40.64,1.546
83.08,37.025,1.455
83.11,33.937,1.34
83.14,30.743,1.134
83.18,27.409,0.905
83.21,23.795,0.699
83.24,19.899,0.47
83.27,15.863,0.241
83.31,11.827,0.08
83.34,7.861,-0.023
83.37,3.86,-0.183
83.4,0.07,-0.126
83.44,-3.229,-0.057
83.47,-5.931,-0.183
83.5,-8.598,-0.378
83.53,-11.266,-0.642
83.57,-14.214,-1.042
83.6,-17.442,-1.535
83.63,-20.917,-1.993
83.66,-24.567,-2.463
83.7,-28.708,-2.898
83.73,-33.34,-3.139
83.76,-37.938,-3.162
83.79,-41.377,-3.288
83.83,-44.501,-3.494
83.86,-47.519,-3.597
83.89,-50.958,-3.872
83.92,-55.099,-4.261
83.96,-59.206,-4.376
83.99,-62.645,-4.468
84.02,-65.909,-4.766
84.05,-69.313,-5.006
84.09,-72.787,-5.166
84.12,-75.981,-5.315
84.15,-79.07,-5.51
84.18,-82.263,-5.739
84.22,-85.703,-5.991
84.25,-89.177,-6.22
84.28,-92.792,-6.484
84.32,-96.371,-6.713
84.35,-99.706,-6.85
84.38,-102.513,-6.954
84.41,-104.935,-7.114
84.45,-107.812,-7.4
84.48,-111.357,-7.698
84.51,-114.832,-7.824
84.54,-118.095,-7.985
84.58,-121.324,-8.374
84.61,-124.553,-8.477
84.64,-127.571,-8.626
84.67,-130.624,-8.844
84.71,-133.467,-8.993
84.74,-136.345,-9.222
84.77,-139.679,-9.52
84.8,-143.259,-9.737
84.84,-146.733,-9.966
84.87,-149.751,-9.989
84.9,-152.068,-10.115
84.93,-154.945,-10.447
84.97,-158.209,-10.665
85.0,-161.438,-10.803
85.03,-164.632,-11.009
85.06,-167.65,-11.192
85.1,-170.528,-11.249
85.13,-172.844,-11.284
85.16,-174.915,-11.444
85.19,-177.477,-11.673
85.23,-180.354,-11.822
85.26,-183.337,-12.12
85.29,-186.952,-12.498
85.32,-190.707,-12.681
85.36,-193.901,-12.727
85.39,-196.077,-12.796
85.42,-198.358,-12.91
85.45,-200.745,-13.014
85.49,-203.061,-13.094
85.52,-205.132,-13.162
85.55,-207.448,-13.311
85.59,-209.659,-13.426
85.62,-211.694,-13.437
85.65,-212.958,-13.437
85.68,-213.835,-13.529
85.72,-215.099,-13.621
85.75,-216.853,-13.792
85.78,-218.994,-14.056
85.81,-221.486,-14.331
85.85,-224.118,-14.434
85.88,-226.329,-14.56
85.91,-228.049,-14.652
85.94,-229.523,-14.686
85.98,-231.067,-14.789
86.01,-232.962,-14.904
86.04,-234.998,-15.007
86.07,-236.752,-15.075
86.11,-238.437,-15.247
86.14,-240.262,-15.362
86.17,-242.227,-15.408
86.2,-243.947,-15.511
86.24,-245.631,-15.534
86.27,-246.86,-15.625
86.3,-248.474,-15.717
86.33,-250.159,-15.786
86.37,-251.773,-15.832
86.4,-253.598,-16.049
86.43,-255.774,-16.221
86.46,-257.564,-16.187
86.5,-258.968,-16.21
86.53,-260.687,-16.416
86.56,-262.968,-16.565
86.59,-265.215,-16.542
86.63,-267.039,-16.576
86.66,-268.689,-16.645
86.69,-269.952,-16.588
86.72,-270.514,-16.381
86.76,-270.619,-16.37
86.79,-271.707,-16.565
86.82,-273.497,-16.633
86.86,-275.182,-16.691
86.89,-276.901,-16.989
86.92,-278.796,-17.069
86.95,-280.341,-16.966
86.99,-281.323,-16.954
87.02,-282.516,-17.023
87.05,-283.324,-16.84
87.08,-283.745,-16.759
87.12,-284.798,-16.92
87.15,-286.237,-16.977
87.18,-286.974,-16.794
87.21,-287.079,-16.805
87.25,-287.605,-16.989
87.28,-289.009,-17.0
87.31,-288.869,-16.588
87.34,-288.237,-16.633
87.38,-288.869,-16.954
87.41,-290.308,-16.92
87.44,-290.799,-16.863
87.47,-290.939,-16.931
87.51,-291.466,-17.0
87.54,-292.097,-16.977
87.57,-292.097,-16.782
87.6,-292.062,-16.782
87.64,-292.554,-16.931
87.67,-293.361,-16.977
87.7,-293.712,-16.897
87.73,-293.642,-16.84
87.77,-293.291,-16.782
87.8,-292.694,-16.588
87.83,-291.782,-16.381
87.86,-290.904,-16.393
87.9,-290.939,-16.553
87.93,-291.15,-16.588
87.96,-290.974,-16.496
88.0,-289.886,-16.359
88.03,-288.202,-16.129
88.06,-286.517,-15.992
88.09,-285.114,-15.935
88.13,-283.92,-15.969
88.16,-283.359,-16.106
88.19,-282.867,-16.175
88.22,-281.885,-16.072
88.26,-280.165,-15.9
88.29,-277.744,-15.706
88.32,-275.357,-15.534
88.35,-273.357,-15.465
88.39,-272.128,-15.602
88.42,-271.672,-15.786
88.45,-271.251,-15.797
88.48,-270.233,-15.774
88.52,-268.759,-15.694
88.55,-266.689,-15.419
88.58,-264.442,-15.282
88.61,-262.933,-15.282
88.65,-261.951,-15.236
88.68,-260.547,-15.179
88.71,-259.038,-15.167
88.74,-257.599,-15.19
88.78,-256.335,-15.087
88.81,-254.3,-14.789
88.84,-251.598,-14.606
88.87,-249.457,-14.594
88.91,-247.807,-14.571
88.94,-246.544,-14.549
88.97,-244.93,-14.468
89.0,-243.175,-14.457
89.04,-241.525,-14.423
89.07,-239.806,-14.205
89.1,-237.7,-14.01
89.13,-235.594,-13.918
89.17,-233.699,-13.838
89.2,-231.769,-13.689
89.23,-229.979,-13.632
89.27,-228.47,-13.644
89.3,-226.996,-13.506
89.33,-224.89,-13.311
89.36,-222.82,-13.231
89.4,-220.889,-13.128
89.43,-218.854,-12.91
89.46,-216.608,-12.739
89.49,-214.467,-12.624
89.53,-212.256,-12.509
89.56,-209.834,-12.257
89.59,-207.097,-12.074
89.62,-204.395,-11.994
89.66,-202.078,-11.856
89.69,-200.113,-11.799
89.72,-198.674,-11.879
89.75,-197.2,-11.708
89.79,-195.164,-11.513
89.82,-192.462,-11.295
89.85,-189.619,-11.043
89.88,-186.952,-10.837
89.92,-184.39,-10.619
89.95,-181.828,-10.425
89.98,-179.758,-10.447
90.01,-177.757,-10.367
90.05,-175.476,-10.115
90.08,-172.493,-9.863
90.11,-169.51,-9.703
90.14,-166.176,-9.371
90.18,-163.263,-9.199
90.21,-160.876,-9.176
90.24,-159.087,-9.084
90.27,-156.595,-8.844
90.31,-153.542,-8.546
90.34,-150.102,-8.42
90.37,-146.979,-8.156
90.4,-143.961,-7.973
90.44,-140.872,-7.767
90.47,-137.784,-7.549
90.5,-134.941,-7.48
90.54,-132.344,-7.343
90.57,-129.572,-7.068
90.6,-126.273,-6.805
90.63,-122.693,-6.575
90.67,-118.903,-6.346
90.7,-115.533,-6.117
90.73,-112.34,-5.957
90.76,-109.462,-5.831
90.8,-106.233,-5.556
90.83,-102.338,-5.235
90.86,-98.196,-4.972
90.89,-93.704,-4.617
90.93,-89.037,-4.296
90.96,-84.439,-4.078
90.99,-80.263,-3.975
91.02,-76.578,-3.815
91.06,-73.174,-3.631
91.09,-69.559,-3.505
91.12,-66.19,-3.356
91.15,-63.031,-3.185
91.19,-60.013,-3.07
91.22,-57.275,-2.99
91.25,-54.503,-2.818
91.28,-51.52,-2.543
91.32,-48.08,-2.303
91.35,-44.571,-2.073
91.38,-40.921,-1.764
91.41,-36.92,-1.443
91.45,-32.744,-1.191
91.48,-28.673,-0.985
91.51,-24.777,-0.779
91.54,-20.847,-0.55
91.58,-16.881,-0.344
91.61,-13.091,-0.195
91.64,-9.581,-0.092
91.68,-6.387,0.034
91.71,-3.369,0.046
91.74,-0.632,0.115
91.77,2.562,0.309
91.81,5.756,0.367
91.84,8.493,0.378
91.87,11.055,0.699
91.9,14.108,1.214
91.94,17.513,1.627
91.97,20.882,2.016
92.0,24.532,2.486
92.03,28.883,2.749
92.07,32.849,2.933
92.1,36.71,3.15
92.13,40.359,3.311
92.16,44.009,3.482
92.2,47.624,3.7
92.23,51.274,3.883
92.26,54.959,4.067
92.29,58.784,4.33
92.33,62.82,4.582
92.36,66.611,4.731
92.39,70.085,4.892
92.42,73.174,5.029
92.46,76.192,5.235
92.49,79.315,5.441
92.52,82.544,5.625
92.55,85.913,5.888
92.59,89.879,6.232
92.62,93.704,6.404
92.65,97.108,6.553
92.68,100.056,6.724
92.72,102.794,6.828
92.75,105.672,7.091
92.78,108.725,7.309
92.81,111.708,7.4
92.85,114.024,7.423
92.88,116.586,7.801
92.91,120.026,8.179
92.95,123.991,8.374
92.98,127.01,8.454
93.01,129.993,8.706
93.04,133.221,9.142
93.08,136.731,9.21
93.11,140.135,9.382
93.14,143.294,9.623
93.17,146.628,9.84
93.21,149.857,10.001
93.24,152.805,10.104
93.27,155.367,10.299
93.3,158.279,10.482
93.34,161.263,10.642
93.37,164.175,10.837
93.4,167.229,11.032
93.43,170.001,11.181
93.47,172.493,11.284
93.5,174.739,11.375
93.53,176.915,11.547
93.56,179.652,11.799
93.6,183.022,12.131
93.63,186.917,12.406
93.66,190.602,12.613
93.69,193.866,12.773
93.73,196.638,12.876
93.76,198.99,12.865
93.79,200.92,12.876
93.82,202.956,13.002
93.86,205.167,13.14
93.89,207.518,13.254
93.92,209.589,13.323
93.95,211.343,13.46
93.99,213.098,13.552
94.02,214.502,13.518
94.05,215.73,13.621
94.08,217.45,13.861
94.12,219.731,14.102
94.15,222.047,14.262
94.18,224.153,14.423
94.22,226.259,14.549
94.25,227.908,14.617
94.28,229.207,14.594
94.31,230.681,14.663
94.35,232.541,14.904
94.38,234.927,15.087
94.41,237.068,15.19
94.44,238.823,15.202
94.48,240.894,15.476
94.51,243.315,15.671
94.54,245.105,15.499
94.57,245.877,15.465
94.61,247.105,15.648
94.64,248.93,15.728
94.67,250.58,15.728
94.7,252.194,15.912
94.74,254.265,16.141
94.77,256.3,16.21
94.8,257.95,16.198
94.83,259.354,16.267
94.87,261.003,16.393
94.9,262.898,16.45
94.93,264.758,16.53
94.96,266.724,16.679
95.0,268.654,16.748
95.03,270.093,16.645
95.06,270.83,16.542
95.09,271.146,16.427
95.13,271.812,16.473
95.16,273.357,16.714
95.19,275.252,16.759
95.22,276.761,16.817
95.26,278.305,17.023
95.29,279.779,17.046
95.32,280.832,16.908
95.36,281.604,16.908
95.39,282.692,16.977
95.42,283.99,16.954
95.45,285.219,17.0
95.49,286.693,17.149
95.52,288.062,17.149
95.55,288.939,17.057
95.58,289.395,16.977
95.62,289.606,16.885
95.65,289.465,16.702
95.68,289.29,16.679
95.71,289.851,16.805
95.75,290.869,16.92
95.78,291.22,16.828
95.81,291.255,16.874
95.84,290.974,16.782
95.88,291.22,16.84
95.91,292.027,16.989
95.94,292.554,16.851
95.97,292.905,16.954
96.01,293.607,17.103
96.04,294.449,17.011
96.07,294.624,16.885
96.1,294.238,16.771
96.14,293.501,16.542
96.17,292.133,16.359
96.2,291.185,16.37
96.23,291.325,16.542
96.27,291.782,16.576
96.3,291.466,16.519
96.33,290.343,16.359
96.36,288.448,16.175
96.4,286.763,16.003
96.43,285.219,15.912
96.46,284.447,16.015
96.49,284.657,16.313
96.53,284.973,16.359
96.56,284.061,16.129
96.59,281.92,15.935
96.63,279.428,15.694
96.66,276.796,15.419
96.69,274.374,15.293
96.72,272.304,15.293
96.76,270.724,15.373
96.79,269.391,15.431
96.82,268.057,15.499
96.85,266.689,15.534
96.89,265.004,15.408
96.92,262.898,15.305
96.95,261.214,15.293
96.98,259.95,15.293
97.02,258.827,15.259
97.05,257.564,15.259
97.08,256.476,15.339
97.11,255.528,15.259
97.15,254.089,15.064
97.18,252.405,14.927
97.21,250.79,14.904
97.24,249.562,14.823
97.28,247.772,14.56
97.31,246.088,14.537
97.34,244.894,14.629
97.37,243.315,14.354
97.41,240.543,13.941
97.44,237.524,13.815
97.47,235.208,13.85
97.5,233.594,13.758
97.54,231.909,13.632
97.57,229.909,13.586
97.6,228.084,13.575
97.63,226.399,13.506
97.67,224.539,13.3
97.7,222.293,13.128
97.73,220.117,13.048
97.77,218.187,12.933
97.8,216.187,12.819
97.83,214.502,12.739
97.86,213.028,12.75
97.9,211.203,12.487
97.93,209.062,12.338
97.96,207.378,12.395
97.99,205.974,12.2
98.03,204.149,11.96
98.06,202.008,11.822
98.09,199.902,11.685
98.12,197.551,11.41
98.16,194.708,11.1
98.19,191.234,10.78
98.22,187.794,10.528
98.25,184.46,10.39
98.29,181.512,10.23
98.32,179.161,10.184
98.35,177.336,10.207
98.38,175.125,9.978
98.42,172.002,9.623
98.45,168.703,9.554
98.48,165.965,9.451
98.51,163.193,9.153
98.55,160.561,9.004
98.58,157.472,8.89
98.61,154.384,8.557
98.64,151.857,8.592
98.68,149.471,8.42
98.71,147.154,8.237
98.74,144.382,8.065
98.77,141.399,7.744
98.81,138.275,7.687
98.84,135.854,7.584
98.87,133.643,7.354
98.9,130.905,7.068
98.94,127.571,6.759
98.97,123.781,6.472
99.0,119.955,6.22
99.04,116.341,5.991
99.07,112.971,5.842
99.1,109.953,5.705
99.13,106.865,5.464
99.17,102.934,5.098
99.2,98.512,4.811
99.23,93.915,4.525
99.26,89.423,4.284
99.3,85.106,4.078
99.33,81.21,3.895
99.36,77.666,3.792
99.39,74.226,3.631
99.43,70.717,3.448
99.46,67.242,3.288
99.49,64.049,3.173
99.52,60.785,2.967
99.56,57.381,2.738
99.59,53.941,2.52
99.62,50.327,2.348
99.65,46.957,2.142
99.69,43.553,1.913
99.72,39.973,1.673
99.75,36.604,1.535
99.78,33.446,1.386
99.82,30.147,1.134
99.85,26.637,0.882
99.88,23.058,0.71
99.91,19.443,0.561
99.95,15.863,0.332
99.98,12.073,0.126
100.01,8.212,0.057
100.04,4.387,-0.092
100.08,0.421,-0.195
100.11,-3.229,-0.126
100.14,-6.177,-0.149
100.17,-8.879,-0.401
100.21,-11.371,-0.607
100.24,-13.617,-0.848
100.27,-16.003,-1.363
100.31,-19.373,-1.982
100.34,-23.338,-2.474
100.37,-27.62,-2.807
100.4,-32.147,-3.116
100.44,-36.955,-3.185
100.47,-40.465,-3.299
100.5,-43.694,-3.505
100.53,-46.887,-3.666
100.57,-50.151,-3.872
100.6,-53.696,-4.067
100.63,-57.31,-4.296
100.66,-60.855,-4.536
100.7,-64.4,-4.72
100.73,-67.909,-4.96
100.76,-71.524,-5.235
100.79,-75.349,-5.464
100.83,-79.034,-5.659
100.86,-82.474,-5.854
100.89,-85.738,-6.083
100.92,-89.388,-6.346
100.96,-93.108,-6.541
100.99,-96.652,-6.713
101.02,-99.811,-6.839
101.05,-102.443,-6.976
101.09,-105.04,-7.114
101.12,-108.023,-7.343
101.15,-111.322,-7.698
101.18,-114.972,-7.893
101.22,-118.517,-8.099
101.25,-122.166,-8.42
101.28,-125.571,-8.603
101.31,-128.589,-8.718
101.35,-131.326,-8.901
101.38,-134.204,-9.119
101.41,-137.398,-9.29
101.45,-141.118,-9.634
101.48,-144.627,-9.84
101.51,-147.926,-9.886
101.54,-150.488,-10.081
101.58,-152.032,-9.875
101.61,-153.893,-10.104
101.64,-157.227,-10.734
101.67,-161.368,-10.883
101.71,-164.526,-10.825
101.74,-167.088,-11.146
101.77,-170.071,-11.547
101.8,-173.335,-11.536
101.84,-175.652,-11.536
101.87,-177.722,-11.753
101.9,-180.179,-11.856
101.93,-182.951,-12.017
101.97,-186.391,-12.361
102.0,-190.181,-12.681
102.03,-193.62,-12.773
102.06,-196.112,-12.876
102.1,-198.499,-12.979
102.13,-200.674,-12.991
102.16,-202.71,-13.036
102.19,-204.816,-13.151
102.23,-207.097,-13.323
102.26,-209.378,-13.426
102.29,-211.308,-13.506
102.32,-212.888,-13.552
102.36,-214.291,-13.632
102.39,-215.66,-13.655
102.42,-217.239,-13.77
102.45,-219.24,-14.045
102.49,-221.732,-14.319
102.52,-224.364,-14.491
102.55,-226.645,-14.629
102.58,-228.47,-14.697
102.62,-229.944,-14.686
102.65,-231.277,-14.755
102.68,-232.962,-14.915
102.72,-234.962,-15.087
102.75,-236.998,-15.156
102.78,-238.893,-15.328
102.81,-240.718,-15.362
102.85,-242.332,-15.476
102.88,-243.771,-15.476
102.91,-245.245,-15.465
102.94,-246.86,-15.683
102.98,-248.579,-15.763
103.01,-250.194,-15.797
103.04,-251.984,-15.969
103.07,-254.37,-16.233
103.11,-256.686,-16.244
103.14,-258.16,-16.21
103.17,-259.319,-16.255
103.2,-260.863,-16.313
103.24,-262.653,-16.381
103.27,-264.513,-16.485
103.3,-266.338,-16.588
103.33,-267.987,-16.645
103.37,-269.145,-16.519
103.4,-269.742,-16.462
103.43,-270.409,-16.496
103.46,-271.532,-16.599
103.5,-273.111,-16.668
103.53,-274.725,-16.805
103.56,-276.726,-16.943
103.59,-278.445,-17.011
103.63,-279.919,-17.034
103.66,-281.042,-17.0
103.69,-282.095,-16.954
103.72,-283.113,-16.931
103.76,-284.166,-16.966
103.79,-285.429,-17.092
103.82,-286.868,-17.08
103.85,-287.921,-17.046
103.89,-288.623,-16.977
103.92,-288.904,-16.84
103.95,-288.974,-16.748
103.99,-288.763,-16.679
104.02,-288.799,-16.714
104.05,-289.676,-16.92
104.08,-290.729,-16.92
104.12,-291.185,-16.92
104.15,-291.185,-16.908
104.18,-291.922,-17.046
104.21,-292.168,-16.817
104.25,-291.115,-16.473
104.28,-290.553,-16.782
104.31,-292.133,-17.08
104.34,-293.466,-16.908
104.38,-293.396,-16.794
104.41,-293.045,-16.897
104.44,-292.905,-16.737
104.47,-291.992,-16.485
104.51,-290.764,-16.381
104.54,-290.343,-16.45
104.57,-290.764,-16.553
104.6,-291.045,-16.622
104.64,-290.869,-16.576
104.67,-289.922,-16.439
104.7,-288.342,-16.198
104.73,-286.693,-16.003
104.77,-285.289,-15.9
104.8,-284.166,-15.923
104.83,-283.64,-16.049
104.86,-283.113,-16.061
104.9,-281.885,-15.98
104.93,-280.2,-15.843
104.96,-277.919,-15.637
104.99,-275.708,-15.499
105.03,-273.778,-15.476
105.06,-272.62,-15.568
105.09,-272.023,-15.728
105.13,-271.567,-15.74
105.16,-270.584,-15.694
105.19,-268.864,-15.648
105.22,-266.794,-15.408
105.26,-264.548,-15.213
105.29,-262.758,-15.202
105.32,-261.635,-15.202
105.35,-260.477,-15.156
105.39,-259.003,-15.144
105.42,-257.634,-15.156
105.45,-256.16,-15.064
105.48,-254.019,-14.743
105.52,-251.527,-14.56
105.55,-250.018,-14.755
105.58,-248.895,-14.697
105.61,-247.351,-14.434
105.65,-245.105,-14.342
105.68,-243.245,-14.331
105.71,-241.736,-14.251
105.74,-239.806,-14.01
105.78,-237.419,-13.907
105.81,-235.735,-13.907
105.84,-234.296,-13.85
105.87,-232.681,-13.735
105.91,-230.786,-13.644
105.94,-229.031,-13.598
105.97,-227.136,-13.392
106.0,-225.171,-13.277
106.04,-222.644,-13.014
106.07,-219.836,-12.819
106.1,-218.152,-12.991
106.13,-217.45,-12.956
106.17,-215.976,-12.647
106.2,-213.625,-12.532
106.23,-211.133,-12.383
106.26,-208.466,-12.074
106.3,-205.763,-11.856
106.33,-203.447,-11.776
106.36,-201.236,-11.662
106.4,-199.341,-11.547
106.43,-197.34,-11.49
106.46,-195.235,-11.364
106.49,-192.708,-11.146
106.53,-189.69,-10.825
106.56,-186.531,-10.619
106.59,-183.548,-10.528
106.62,-181.407,-10.413
106.66,-179.547,-10.413
106.69,-177.827,-10.356
106.72,-175.616,-10.092
106.75,-172.809,-9.794
106.79,-169.545,-9.6
106.82,-166.562,-9.394
106.85,-163.544,-9.142
106.88,-160.631,-8.981
106.92,-158.63,-9.016
106.95,-156.63,-8.878
106.98,-153.12,-8.145
107.01,-148.839,-8.053
107.05,-145.084,-8.03
107.08,-142.873,-7.95
107.11,-141.048,-7.893
107.14,-138.872,-7.549
107.18,-135.959,-7.458
107.21,-132.941,-7.286
107.24,-130.028,-6.999
107.27,-126.869,-6.724
107.31,-123.43,-6.484
107.34,-119.815,-6.22
107.37,-116.095,-5.98
107.4,-112.796,-5.831
107.44,-109.813,-5.693
107.47,-106.689,-5.418
107.5,-102.899,-5.098
107.54,-98.512,-4.788
107.57,-93.845,-4.445
107.6,-89.001,-4.158
107.63,-84.404,-3.918
107.67,-80.228,-3.803
107.7,-76.578,-3.677
107.73,-73.138,-3.528
107.76,-69.769,-3.368
107.8,-66.26,-3.219
107.83,-62.785,-3.024
107.86,-59.381,-2.875
107.89,-56.293,-2.772
107.93,-53.45,-2.6
107.96,-50.327,-2.314
107.99,-47.063,-2.085
108.02,-43.694,-1.925
108.06,-40.219,-1.673
108.09,-36.569,-1.34
108.12,-32.674,-1.134
108.15,-29.059,-0.985
108.19,-25.69,-0.768
108.22,-22.18,-0.561
108.25,-18.636,-0.378
108.28,-15.021,-0.183
108.32,-11.371,-0.023
108.35,-7.721,0.16
108.38,-4.247,0.229
108.41,-1.053,0.332
108.45,2.457,0.47
108.48,5.931,0.515
108.51,8.984,0.596
108.54,11.792,0.871
108.58,14.635,1.249
108.61,17.337,1.65
108.64,20.039,2.016
108.67,23.689,2.429
108.71,27.936,2.807
108.74,32.358,3.047
108.77,36.359,3.185
108.81,40.184,3.322
108.84,43.869,3.54
108.87,47.624,3.757
108.9,51.309,3.872
108.94,54.643,4.009
108.97,57.907,4.181
109.0,61.171,4.376
109.03,64.68,4.605
109.07,68.225,4.846
109.1,71.84,5.086
109.13,75.49,5.327
109.16,79.07,5.556
109.2,82.614,5.728
109.23,86.264,5.98
109.26,89.914,6.232
109.29,93.459,6.346
109.33,96.828,6.598
109.36,100.267,6.793
109.39,103.215,6.896
109.42,105.882,7.022
109.46,108.549,7.228
109.49,111.778,7.549
109.52,115.604,7.836
109.55,119.324,8.042
109.59,122.693,8.248
109.62,125.536,8.34
109.65,127.992,8.42
109.68,130.168,8.569
109.72,133.257,8.912
109.75,137.012,9.348
109.78,140.767,9.382
109.81,144.031,9.6
109.85,146.838,9.852
109.88,149.646,9.898
109.91,151.892,9.989
109.94,154.384,10.207
109.98,157.297,10.47
110.01,160.455,10.642
110.04,163.474,10.837
110.08,166.386,11.078
110.11,169.37,11.272
110.14,172.212,11.433
110.17,174.844,11.524
110.21,177.231,11.662
110.24,179.828,11.834
110.27,183.022,12.166
110.3,186.812,12.464
110.34,190.672,12.658
110.37,194.041,12.784
110.4,196.779,12.876
110.43,199.025,12.842
110.47,200.815,12.865
110.5,202.78,13.014
110.53,205.237,13.162
110.56,207.658,13.277
110.6,209.904,13.369
110.63,211.765,13.472
110.66,213.309,13.563
110.69,214.607,13.506
110.73,215.625,13.552
110.76,217.345,13.838
110.79,219.731,14.136
110.82,222.258,14.285
110.86,224.504,14.434
110.89,226.75,14.64
110.92,228.575,14.732
110.95,229.874,14.617
110.99,231.067,14.663
111.02,232.787,14.961
111.05,235.138,15.098
111.08,237.209,15.133
111.12,238.472,15.144
111.15,240.578,15.522
111.18,243.105,15.637
111.22,244.719,15.465
111.25,245.105,15.373
111.28,245.947,15.522
111.31,248.123,15.843
111.35,250.72,15.923
111.38,252.51,15.969
111.41,254.16,16.129
111.44,255.879,16.267
111.48,257.564,16.221
111.51,258.968,16.233
111.54,260.722,16.427
111.57,262.723,16.519
111.61,264.583,16.519
111.64,266.022,16.611
111.67,267.706,16.737
111.7,269.461,16.714
111.74,270.514,16.611
111.77,271.321,16.656
111.8,272.655,16.748
111.83,274.164,16.737
111.87,275.673,16.828
111.9,277.428,16.977
111.93,279.112,17.0
111.96,280.551,17.0
112.0,281.639,16.966
112.03,282.587,16.989
112.06,283.675,16.989
112.09,284.727,16.977
112.13,285.815,17.057
112.16,287.149,17.149
112.19,288.377,17.08
112.22,289.149,17.011
112.26,289.465,16.943
112.29,289.641,16.817
112.32,289.255,16.611
112.35,288.939,16.576
112.39,289.465,16.782
112.42,290.518,16.908
112.45,291.08,16.794
112.49,290.869,16.84
112.52,291.22,16.943
112.55,292.238,17.08
112.58,292.308,16.805
112.62,292.027,16.771
112.65,292.87,17.103
112.68,294.589,17.218
112.71,295.01,16.874
112.75,294.624,16.897
112.78,294.168,16.817
112.81,293.677,16.507
112.84,292.308,16.347
112.88,291.255,16.29
112.91,290.904,16.45
112.94,291.15,16.53
112.97,290.974,16.507
113.01,289.957,16.37
113.04,288.342,16.221
113.07,286.658,16.129
113.1,285.464,16.026
113.14,284.587,16.026
113.17,284.271,16.233
113.2,284.096,16.255
113.23,282.938,16.118
113.27,280.937,15.923
113.3,278.481,15.717
113.33,276.129,15.511
113.36,273.813,15.396
113.4,272.023,15.419
113.43,270.654,15.522
113.46,269.672,15.591
113.49,268.724,15.637
113.53,267.636,15.706
113.56,266.373,15.637
113.59,264.758,15.499
113.62,263.144,15.408
113.66,261.775,15.385
113.69,260.547,15.339
113.72,259.459,15.293
113.76,258.266,15.328
113.79,257.072,15.236
113.82,255.353,14.938
113.85,253.001,14.766
113.89,250.966,14.72
113.92,249.387,14.629
113.95,247.246,14.365
113.98,245.14,14.388
114.02,243.526,14.423
114.05,241.595,14.171
114.08,238.577,13.827
114.11,236.086,13.907
114.15,234.822,14.148
114.18,233.945,13.953
114.21,232.436,13.792
114.24,230.927,13.918
114.28,229.909,13.976
114.31,228.716,13.655
114.34,226.434,13.38
114.37,223.837,13.254
114.41,221.661,13.071
114.44,219.556,12.853
114.47,217.59,12.796
114.5,215.8,12.727
114.54,213.905,12.567
114.57,211.484,12.372
114.6,208.641,12.154
114.63,205.728,11.983
114.67,203.377,11.891
114.7,201.341,11.742
114.73,199.446,11.662
114.76,197.551,11.616
114.8,195.48,11.456
114.83,192.813,11.181
114.86,189.655,10.917
114.9,186.707,10.757
114.93,184.145,10.631
114.96,181.863,10.447
114.99,179.793,10.39
115.03,177.863,10.356
115.06,175.652,10.15
115.09,172.844,9.829
115.12,169.791,9.646
115.16,166.878,9.474
115.19,163.789,9.176
115.22,161.052,9.027
115.25,158.104,8.912
115.29,154.98,8.546
115.32,152.454,8.637
115.35,150.453,8.603
115.38,148.347,8.237
115.42,144.733,7.836
115.45,140.697,7.595
115.48,137.433,7.618
115.51,135.117,7.48
115.55,132.87,7.274
115.58,130.063,7.022
115.61,126.799,6.759
115.64,123.219,6.518
115.68,119.78,6.369
115.71,116.692,6.152
115.74,113.638,5.934
115.77,110.48,5.751
115.81,106.97,5.441
115.84,102.759,5.075
115.87,98.161,4.8
115.9,93.739,4.559
115.94,89.423,4.296
115.97,85.141,4.032
116.0,81.0,3.883
116.03,77.385,3.78
116.07,74.297,3.666
116.1,72.858,4.009
116.13,73.279,4.33
116.17,72.998,3.906
116.2,69.98,3.276
116.23,65.031,2.933
116.26,60.153,2.669
116.3,55.872,2.314
116.33,52.046,2.039
116.36,47.94,1.707
116.39,42.921,1.203
116.43,36.71,0.745
116.46,30.428,0.515
116.49,25.023,0.435
116.52,20.811,0.367
116.56,17.091,0.344
116.59,13.301,0.241
116.62,9.09,0.092
116.65,4.738,0.0
116.69,1.088,0.126
