Trigger_Date,2023/06/15
Trigger_Time,T 17:51:35.396 PDT
Samples_Per_Cycle,512
Microseconds_Per_Sample,32.570
Time (ms),Voltage (V),Current (A)
-16.68,3.931,0.47
-16.64,6.844,0.493
-16.61,9.3,0.722
-16.58,11.687,0.997
-16.55,14.284,1.409
-16.51,17.548,1.936
-16.48,22.005,2.234
-16.45,26.181,2.062
-16.42,29.55,2.154
-16.38,33.13,2.383
-16.35,37.096,2.325
-16.32,40.535,2.211
-16.28,43.553,2.257
-16.25,46.677,2.348
-16.22,50.116,2.383
-16.19,53.59,2.44
-16.15,57.31,2.543
-16.12,60.925,2.623
-16.09,64.4,2.715
-16.06,67.909,2.807
-16.02,71.559,2.852
-15.99,75.349,2.978
-15.96,79.105,3.047
-15.93,82.439,3.036
-15.89,85.632,3.047
-15.86,88.931,3.196
-15.83,92.336,3.219
-15.8,95.775,3.242
-15.76,99.355,3.379
-15.73,102.794,3.402
-15.7,106.058,3.391
-15.67,109.111,3.46
-15.63,112.305,3.563
-15.6,115.849,3.654
-15.57,119.569,3.757
-15.54,123.36,3.838
-15.5,126.904,3.895
-15.47,129.993,3.861
-15.44,132.8,3.826
-15.41,135.748,3.929
-15.37,139.082,4.055
-15.34,142.557,4.078
-15.31,145.786,4.078
-15.28,149.295,4.296
-15.24,152.84,4.365
-15.21,156.244,4.273
-15.18,158.841,4.227
-15.14,161.333,4.25
-15.11,164.07,4.319
-15.08,166.983,4.342
-15.05,170.001,4.399
-15.01,172.984,4.456
-14.98,175.827,4.468
-14.95,178.284,4.422
-14.92,180.354,4.387
-14.88,182.39,4.41
-14.85,185.022,4.594
-14.82,188.567,4.788
-14.79,192.532,4.914
-14.75,196.252,4.937
-14.72,199.306,4.914
-14.69,201.692,4.823
-14.66,203.447,4.697
-14.62,205.061,4.628
-14.59,206.992,4.662
-14.56,209.343,4.754
-14.53,212.045,4.777
-14.49,214.256,4.697
-14.46,215.906,4.685
-14.43,217.239,4.651
-14.4,218.362,4.548
-14.36,219.696,4.617
-14.33,221.696,4.8
-14.3,224.504,4.972
-14.27,227.347,5.086
-14.23,230.154,5.098
-14.2,232.611,5.132
-14.17,234.296,4.983
-14.14,235.173,4.731
-14.1,236.226,4.869
-14.07,238.402,5.086
-14.04,241.209,5.121
-14.01,243.42,5.04
-13.97,245.491,5.075
-13.94,247.842,5.327
-13.91,250.229,5.178
-13.87,251.562,4.972
-13.84,252.124,4.823
-13.81,253.317,4.972
-13.78,255.634,5.178
-13.74,258.231,5.144
-13.71,260.231,5.086
-13.68,261.845,5.144
-13.65,263.214,5.098
-13.61,264.372,4.926
-13.58,265.636,4.983
-13.55,267.566,5.166
-13.52,269.812,5.201
-13.48,271.777,5.166
-13.45,273.532,5.166
-13.42,275.076,5.132
-13.39,275.954,4.914
-13.35,276.234,4.754
-13.32,276.585,4.788
-13.29,277.568,4.88
-13.26,278.937,4.926
-13.22,280.481,5.018
-13.19,282.271,5.166
-13.16,284.061,5.155
-13.13,285.359,5.063
-13.09,286.166,4.983
-13.06,286.938,4.972
-13.03,287.956,4.96
-13.0,289.185,4.96
-12.96,290.659,5.018
-12.93,292.097,5.063
-12.9,293.291,4.995
-12.87,294.063,4.903
-12.83,294.484,4.8
-12.8,294.414,4.628
-12.77,293.993,4.502
-12.73,294.133,4.628
-12.7,295.256,4.857
-12.67,296.133,4.766
-12.64,296.695,4.674
-12.6,296.976,4.8
-12.57,297.221,4.697
-12.54,297.818,4.766
-12.51,298.309,4.708
-12.47,298.766,4.651
-12.44,299.397,4.766
-12.41,300.134,4.766
-12.38,300.555,4.651
-12.34,300.345,4.559
-12.31,299.573,4.41
-12.28,298.344,4.193
-12.25,296.941,4.124
-12.21,296.484,4.319
-12.18,296.906,4.491
-12.15,297.362,4.456
-12.12,297.011,4.376
-12.08,295.747,4.158
-12.05,293.607,3.975
-12.02,291.466,3.918
-11.99,289.781,3.941
-11.95,288.974,4.078
-11.92,288.728,4.239
-11.89,288.202,4.193
-11.86,286.763,4.021
-11.82,284.482,3.861
-11.79,281.885,3.757
-11.76,279.358,3.712
-11.73,277.357,3.723
-11.69,276.059,3.929
-11.66,275.673,4.147
-11.63,275.287,4.147
-11.59,274.269,4.101
-11.56,272.725,4.032
-11.53,270.619,3.861
-11.5,268.408,3.757
-11.46,266.618,3.826
-11.43,265.32,3.895
-11.4,264.302,3.929
-11.37,263.425,3.964
-11.33,262.302,3.964
-11.3,260.477,3.815
-11.27,258.02,3.631
-11.24,255.458,3.62
-11.2,253.633,3.7
-11.17,251.984,3.677
-11.14,250.194,3.586
-11.11,248.615,3.723
-11.07,247.07,3.723
-11.04,244.824,3.46
-11.01,241.806,3.322
-10.98,239.279,3.482
-10.94,237.63,3.574
-10.91,236.296,3.563
-10.88,234.857,3.608
-10.85,233.102,3.528
-10.81,231.242,3.574
-10.78,229.698,3.631
-10.75,228.014,3.448
-10.72,225.697,3.322
-10.68,223.486,3.391
-10.65,221.837,3.437
-10.62,220.152,3.311
-10.59,218.327,3.265
-10.55,216.222,3.23
-10.52,213.519,3.024
-10.49,210.466,2.864
-10.45,207.623,2.921
-10.42,205.518,2.978
-10.39,203.833,3.024
-10.36,202.394,3.116
-10.32,200.815,3.116
-10.29,198.604,2.978
-10.26,195.726,2.761
-10.23,192.357,2.623
-10.19,189.163,2.577
-10.16,186.356,2.532
-10.13,184.004,2.577
-10.1,182.109,2.681
-10.06,180.074,2.589
-10.03,176.915,2.325
-10.0,173.125,2.199
-9.97,169.72,2.28
-9.93,166.772,2.222
-9.9,163.789,2.051
-9.87,161.122,2.222
-9.84,158.279,2.142
-9.8,155.717,2.028
-9.77,153.085,2.199
-9.74,150.558,1.993
-9.71,147.61,1.959
-9.67,143.855,1.673
-9.64,139.854,1.535
-9.61,136.626,1.73
-9.58,134.344,1.764
-9.54,131.923,1.673
-9.51,128.94,1.546
-9.48,125.395,1.443
-9.45,121.71,1.352
-9.41,118.201,1.306
-9.38,115.042,1.294
-9.35,112.375,1.306
-9.31,109.708,1.294
-9.28,106.409,1.111
-9.25,102.197,0.825
-9.22,97.354,0.642
-9.18,92.546,0.561
-9.15,88.194,0.47
-9.12,83.913,0.344
-9.09,80.052,0.412
-9.05,76.648,0.481
-9.02,73.56,0.435
-8.99,70.085,0.401
-8.96,66.576,0.378
-8.92,62.996,0.309
-8.89,59.486,0.241
-8.86,56.047,0.195
-8.83,52.783,0.195
-8.79,49.59,0.172
-8.76,46.431,0.115
-8.73,42.957,-0.034
-8.7,39.131,-0.115
-8.66,35.201,-0.149
-8.63,31.516,-0.195
-8.6,27.76,-0.195
-8.57,24.216,-0.183
-8.53,20.776,-0.16
-8.5,17.302,-0.16
-8.47,13.687,-0.137
-8.44,10.002,-0.195
-8.4,5.791,-0.298
-8.37,1.544,-0.241
-8.34,-2.176,-0.195
-8.31,-5.44,-0.298
-8.27,-8.388,-0.447
-8.24,-11.195,-0.768
-8.21,-14.319,-1.168
-8.18,-17.513,-1.581
-8.14,-21.233,-1.936
-8.11,-25.62,-2.199
-8.08,-30.463,-2.131
-8.04,-34.288,-2.039
-8.01,-37.517,-2.199
-7.98,-40.851,-2.177
-7.95,-43.904,-2.131
-7.91,-47.098,-2.245
-7.88,-50.607,-2.337
-7.85,-54.012,-2.325
-7.82,-57.31,-2.44
-7.78,-60.785,-2.566
-7.75,-64.435,-2.635
-7.72,-68.085,-2.692
-7.69,-71.489,-2.738
-7.65,-74.683,-2.749
-7.62,-77.701,-2.841
-7.59,-81.0,-2.956
-7.56,-84.615,-3.047
-7.52,-88.229,-3.139
-7.49,-91.809,-3.196
-7.46,-95.178,-3.265
-7.43,-98.863,-3.391
-7.39,-102.583,-3.448
-7.36,-106.058,-3.402
-7.33,-109.006,-3.414
-7.3,-112.234,-3.563
-7.26,-115.779,-3.666
-7.23,-119.499,-3.735
-7.2,-123.149,-3.826
-7.17,-126.694,-3.895
-7.13,-129.712,-3.803
-7.1,-132.765,-3.861
-7.07,-136.029,-4.021
-7.04,-139.398,-3.975
-7.0,-142.662,-4.078
-6.97,-146.101,-4.135
-6.94,-149.892,-4.307
-6.9,-153.226,-4.273
-6.87,-155.823,-4.021
-6.84,-157.683,-4.044
-6.81,-160.034,-4.204
-6.77,-163.123,-4.25
-6.74,-166.492,-4.365
-6.71,-170.071,-4.548
-6.68,-173.651,-4.548
-6.64,-176.529,-4.456
-6.61,-178.81,-4.445
-6.58,-180.916,-4.433
-6.55,-183.127,-4.41
-6.51,-185.759,-4.548
-6.48,-189.268,-4.788
-6.45,-193.094,-4.892
-6.42,-196.674,-4.892
-6.38,-199.586,-4.846
-6.35,-201.762,-4.788
-6.32,-203.517,-4.685
-6.29,-205.412,-4.617
-6.25,-207.413,-4.605
-6.22,-209.764,-4.708
-6.19,-212.431,-4.823
-6.16,-214.923,-4.8
-6.12,-216.853,-4.72
-6.09,-218.257,-4.617
-6.06,-219.275,-4.479
-6.03,-220.047,-4.525
-5.99,-221.556,-4.674
-5.96,-223.978,-4.834
-5.93,-226.68,-4.937
-5.9,-229.207,-4.972
-5.86,-231.242,-4.937
-5.83,-232.857,-4.857
-5.8,-234.225,-4.88
-5.76,-236.05,-4.926
-5.73,-238.402,-5.029
-5.7,-240.613,-5.075
-5.67,-242.929,-5.075
-5.63,-245.596,-5.304
-5.6,-248.474,-5.327
-5.57,-250.089,-4.995
-5.54,-250.369,-4.685
-5.5,-251.212,-4.937
-5.47,-253.107,-5.121
-5.44,-255.423,-4.995
-5.41,-257.353,-5.029
-5.37,-259.599,-5.224
-5.34,-261.916,-5.235
-5.31,-263.565,-5.086
-5.28,-264.618,-5.006
-5.24,-265.846,-5.04
-5.21,-267.32,-5.075
-5.18,-269.18,-5.098
-5.15,-271.04,-5.166
-5.11,-272.865,-5.178
-5.08,-274.374,-5.075
-5.05,-275.146,-4.892
-5.02,-275.533,-4.857
-4.98,-276.199,-4.892
-4.95,-277.217,-4.892
-4.92,-278.551,-4.903
-4.89,-280.095,-5.006
-4.85,-281.85,-5.132
-4.82,-283.499,-5.166
-4.79,-284.938,-5.121
-4.76,-286.026,-5.029
-4.72,-286.974,-4.972
-4.69,-287.816,-4.96
-4.66,-289.009,-5.029
-4.62,-290.378,-5.04
-4.59,-291.676,-4.995
-4.56,-292.624,-5.029
-4.53,-293.396,-4.903
-4.49,-293.817,-4.788
-4.46,-293.887,-4.685
-4.43,-293.571,-4.605
-4.4,-294.098,-4.708
-4.36,-294.975,-4.834
-4.33,-295.747,-4.743
-4.3,-296.098,-4.731
-4.27,-296.8,-4.903
-4.23,-298.029,-4.983
-4.2,-298.309,-4.628
-4.17,-297.958,-4.559
-4.14,-298.309,-4.8
-4.1,-299.222,-4.823
-4.07,-299.432,-4.525
-4.04,-299.152,-4.513
-4.01,-298.871,-4.571
-3.97,-298.134,-4.376
-3.94,-296.8,-4.113
-3.91,-295.361,-4.158
-3.88,-294.94,-4.433
-3.84,-295.677,-4.571
-3.81,-296.274,-4.502
-3.78,-296.133,-4.433
-3.75,-294.835,-4.261
-3.71,-292.87,-4.067
-3.68,-290.869,-3.987
-3.65,-289.43,-4.032
-3.62,-288.728,-4.17
-3.58,-288.693,-4.296
-3.55,-288.342,-4.25
-3.52,-287.079,-4.124
-3.48,-284.833,-3.906
-3.45,-281.99,-3.654
-3.42,-279.218,-3.654
-3.39,-277.498,-3.861
-3.35,-277.147,-4.158
-3.32,-277.533,-4.296
-3.29,-277.322,-4.296
-3.26,-276.305,-4.216
-3.22,-274.48,-3.998
-3.19,-271.953,-3.769
-3.16,-269.531,-3.769
-3.13,-267.776,-3.815
-3.09,-266.408,-3.826
-3.06,-265.039,-3.826
-3.03,-263.53,-3.861
-3.0,-261.951,-3.872
-2.96,-259.845,-3.723
-2.93,-257.072,-3.425
-2.9,-254.3,-3.505
-2.87,-252.545,-3.769
-2.83,-251.422,-3.735
-2.8,-249.808,-3.563
-2.77,-248.369,-3.815
-2.74,-248.544,-4.239
-2.7,-249.843,-4.41
-2.67,-250.018,-4.181
-2.64,-247.948,-3.689
-2.61,-243.526,-3.253
-2.57,-238.823,-3.036
-2.54,-235.945,-3.253
-2.51,-234.787,-3.482
-2.48,-233.418,-3.242
-2.44,-230.576,-3.024
-2.41,-227.908,-3.311
-2.38,-226.329,-3.505
-2.35,-225.171,-3.391
-2.31,-223.557,-3.368
-2.28,-222.047,-3.494
-2.25,-220.573,-3.425
-2.21,-218.784,-3.334
-2.18,-217.415,-3.46
-2.15,-216.713,-3.574
-2.12,-215.941,-3.494
-2.08,-214.256,-3.288
-2.05,-211.589,-3.07
-2.02,-208.29,-2.841
-1.99,-204.781,-2.669
-1.95,-200.674,-2.429
-1.92,-196.428,-2.234
-1.89,-192.743,-2.348
-1.86,-189.9,-2.463
-1.82,-187.163,-2.337
-1.79,-184.39,-2.36
-1.76,-181.969,-2.589
-1.73,-179.337,-2.44
-1.69,-175.546,-2.085
-1.66,-171.159,-2.005
-1.63,-167.685,-2.188
-1.6,-165.123,-2.211
-1.56,-162.315,-2.051
-1.53,-159.753,-2.165
-1.5,-158.034,-2.451
-1.47,-156.174,-2.268
-1.43,-152.84,-1.879
-1.4,-148.874,-1.833
-1.37,-145.715,-2.005
-1.34,-143.469,-1.993
-1.3,-141.223,-1.833
-1.27,-138.556,-1.787
-1.24,-135.818,-1.867
-1.21,-133.011,-1.764
-1.17,-129.396,-1.409
-1.14,-124.728,-1.146
-1.11,-120.201,-1.146
-1.07,-116.411,-1.134
-1.04,-113.112,-1.054
-1.01,-110.164,-1.088
-0.98,-107.321,-1.134
-0.94,-103.777,-0.951
-0.91,-99.355,-0.653
-0.88,-94.231,-0.481
-0.85,-89.458,-0.47
-0.81,-85.141,-0.424
-0.78,-81.175,-0.344
-0.75,-77.49,-0.355
-0.72,-74.297,-0.47
-0.68,-71.033,-0.424
-0.65,-67.207,-0.195
-0.62,-62.856,-0.092
-0.59,-58.995,-0.172
-0.55,-55.626,-0.16
-0.52,-52.397,-0.08
-0.49,-49.133,-0.08
-0.46,-46.255,-0.137
-0.42,-43.237,-0.08
-0.39,-39.658,0.137
-0.36,-35.657,0.298
-0.33,-31.656,0.309
-0.29,-27.866,0.321
-0.26,-24.146,0.412
-0.23,-20.531,0.401
-0.2,-17.197,0.309
-0.16,-13.617,0.435
-0.13,-9.23,0.676
-0.1,-4.808,0.642
-0.07,-0.948,0.367
-0.03,2.422,0.401
0.0,6.247,0.733
0.03,9.827,0.916
0.07,11.476,0.55
0.1,12.248,0.859
0.13,13.512,1.638
0.16,16.635,1.673
0.2,20.882,1.821
0.23,25.865,2.463
0.26,30.884,2.474
0.29,34.674,2.165
0.33,37.482,2.211
0.36,40.289,2.303
0.39,42.921,2.085
0.42,45.624,2.119
0.46,48.923,2.394
0.49,52.678,2.429
0.52,56.082,2.383
0.55,59.486,2.566
0.59,63.382,2.784
0.62,67.383,2.852
0.65,70.998,2.807
0.68,74.261,2.818
0.72,77.525,3.013
0.75,80.965,3.047
0.78,84.158,2.967
0.81,87.527,3.173
0.85,91.493,3.379
0.88,95.389,3.334
0.91,98.337,3.242
0.94,100.899,3.276
0.98,103.812,3.368
1.01,107.076,3.471
1.04,110.445,3.505
1.07,113.989,3.608
1.11,117.885,3.815
1.14,121.71,3.895
1.17,125.114,3.849
1.21,128.027,3.872
1.24,131.151,3.975
1.27,134.731,4.078
1.3,138.345,4.078
1.34,141.679,4.113
1.37,145.329,4.307
1.4,149.26,4.399
1.43,152.945,4.376
1.47,156.033,4.296
1.5,158.63,4.342
1.53,161.333,4.342
1.56,163.93,4.284
1.6,166.808,4.387
1.63,169.791,4.502
1.66,172.668,4.456
1.69,175.125,4.387
1.73,177.196,4.353
1.76,179.266,4.422
1.79,181.583,4.468
1.82,184.46,4.582
1.86,187.9,4.8
1.89,191.69,4.926
1.92,195.164,4.88
1.95,198.112,4.892
1.99,200.569,4.869
2.02,202.85,4.8
2.05,204.886,4.754
2.08,207.097,4.788
2.12,209.378,4.811
2.15,211.659,4.8
2.18,213.589,4.72
2.21,215.379,4.754
2.25,216.853,4.697
2.28,218.222,4.605
2.31,219.766,4.697
2.35,221.872,4.903
2.38,224.644,5.029
2.41,227.382,5.018
2.44,229.628,5.04
2.48,231.979,5.166
2.51,234.05,5.098
2.54,235.664,4.892
2.57,237.068,4.972
2.61,239.209,5.098
2.64,241.455,5.098
2.67,243.385,5.018
2.7,245.035,5.04
2.74,246.965,5.155
2.77,249.176,5.166
2.8,251.106,5.086
2.83,252.966,5.178
2.87,255.142,5.281
2.9,257.423,5.247
2.93,259.494,5.224
2.96,261.424,5.224
3.0,263.074,5.155
3.03,264.372,5.052
3.06,265.39,4.972
3.09,266.478,4.972
3.13,268.022,5.086
3.16,269.917,5.132
3.19,271.777,5.109
3.22,273.111,5.063
3.26,274.164,5.018
3.29,274.655,4.88
3.32,275.111,4.811
3.35,276.059,4.892
3.39,277.638,5.052
3.42,279.253,5.029
3.45,281.042,5.109
3.48,282.832,5.224
3.52,284.447,5.155
3.55,285.359,5.029
3.58,286.447,5.063
3.62,287.43,4.995
3.65,287.956,4.788
3.68,288.658,4.892
3.71,290.237,5.121
3.75,291.817,5.029
3.78,292.834,4.914
3.81,293.747,5.029
3.84,294.449,4.903
3.88,294.73,4.766
3.91,294.379,4.628
3.94,294.519,4.697
3.97,295.432,4.88
4.01,296.309,4.766
4.04,296.73,4.662
4.07,297.046,4.8
4.1,297.607,4.811
4.14,297.923,4.662
4.17,297.713,4.559
4.2,297.958,4.754
4.23,298.871,4.869
4.27,299.573,4.674
4.3,299.818,4.651
4.33,299.959,4.697
4.36,299.713,4.548
4.4,298.976,4.342
4.43,298.029,4.296
4.46,297.713,4.491
4.49,298.204,4.617
4.53,298.52,4.536
4.56,298.064,4.387
4.59,296.484,4.158
4.62,294.203,3.918
4.66,291.782,3.849
4.69,289.922,3.929
4.72,289.185,4.067
4.76,288.869,4.181
4.79,288.237,4.17
4.82,286.728,4.032
4.85,284.377,3.826
4.89,281.464,3.7
4.92,278.796,3.677
4.95,277.007,3.838
4.98,276.41,4.113
5.02,276.34,4.261
5.05,275.954,4.227
5.08,275.006,4.181
5.11,273.427,4.09
5.15,271.391,3.906
5.18,269.075,3.803
5.21,267.32,3.872
5.24,266.092,3.929
5.28,264.934,3.906
5.31,263.741,3.964
5.34,262.407,3.987
5.37,260.652,3.849
5.41,258.266,3.7
5.44,255.914,3.712
5.47,254.265,3.826
5.5,252.966,3.757
5.54,251.387,3.643
5.57,249.527,3.7
5.6,247.702,3.735
5.63,245.667,3.586
5.67,243.069,3.448
5.7,240.823,3.517
5.73,239.349,3.666
5.76,238.086,3.643
5.8,236.577,3.608
5.83,234.682,3.586
5.86,232.541,3.46
5.9,229.803,3.334
5.93,227.066,3.219
5.96,224.118,3.173
5.99,221.732,3.219
6.03,219.801,3.276
6.06,218.152,3.299
6.09,216.292,3.265
6.12,214.432,3.299
6.16,212.221,3.185
6.19,210.08,3.139
6.22,207.904,3.253
6.25,205.658,3.013
6.29,203.798,3.139
6.32,202.921,3.46
6.35,201.797,3.208
6.38,199.095,2.761
6.42,195.551,2.795
6.45,192.918,2.887
6.48,190.462,2.749
6.51,187.198,2.394
6.55,184.531,2.6
6.58,182.741,2.864
6.61,181.197,2.658
6.64,178.389,2.429
6.68,175.125,2.383
6.71,171.791,2.36
6.74,167.58,1.867
6.77,162.982,1.741
6.81,159.613,2.154
6.84,157.718,2.268
6.87,155.928,2.154
6.9,153.612,2.142
6.94,150.488,2.051
6.97,146.979,1.867
7.0,143.188,1.741
7.04,139.539,1.638
7.07,136.24,1.615
7.1,133.257,1.638
7.13,130.589,1.638
7.17,127.852,1.592
7.2,124.799,1.501
7.23,121.57,1.432
7.26,118.271,1.398
7.3,115.147,1.375
7.33,112.445,1.398
7.36,109.988,1.363
7.39,107.111,1.168
7.43,103.426,0.951
7.46,98.863,0.687
7.49,93.634,0.458
7.52,88.3,0.298
7.56,83.421,0.252
7.59,79.385,0.355
7.62,76.192,0.435
7.65,73.103,0.424
7.69,69.769,0.389
7.72,66.084,0.332
7.75,62.329,0.252
7.78,58.82,0.241
7.82,55.626,0.229
7.85,52.573,0.229
7.88,49.59,0.206
7.91,46.431,0.126
7.95,43.027,0.057
7.98,39.517,-0.08
8.01,35.622,-0.183
8.04,31.621,-0.195
8.08,27.901,-0.241
8.11,24.075,-0.263
8.14,20.039,-0.263
8.18,16.214,-0.241
8.21,12.424,-0.241
8.24,8.493,-0.206
8.27,4.633,-0.149
8.31,1.334,-0.149
8.34,-1.93,-0.149
8.37,-4.913,-0.206
8.4,-7.51,-0.378
8.44,-9.721,-0.561
8.47,-12.178,-0.916
8.5,-15.372,-1.535
8.53,-19.794,-2.051
8.57,-24.672,-2.188
8.6,-29.55,-2.142
8.63,-33.727,-2.188
8.66,-37.376,-2.291
8.7,-41.132,-2.257
8.73,-45.027,-2.429
8.76,-49.449,-2.623
8.79,-53.485,-2.497
8.83,-56.609,-2.337
8.86,-59.311,-2.417
8.89,-62.329,-2.555
8.92,-65.909,-2.623
8.96,-69.489,-2.635
8.99,-72.472,-2.6
9.02,-75.104,-2.6
9.05,-77.56,-2.612
9.09,-80.122,-2.726
9.12,-83.246,-2.875
9.15,-86.931,-3.07
9.18,-91.142,-3.23
9.22,-95.143,-3.311
9.25,-98.723,-3.311
9.28,-101.636,-3.299
9.31,-104.478,-3.334
9.35,-107.602,-3.402
9.38,-111.006,-3.517
9.41,-114.691,-3.62
9.45,-118.411,-3.689
9.48,-122.447,-3.895
9.51,-125.992,-3.895
9.54,-129.501,-3.883
9.58,-133.362,-4.17
9.61,-136.626,-3.952
9.64,-139.047,-3.769
9.67,-141.434,-3.975
9.71,-144.943,-4.193
9.74,-149.471,-4.365
9.77,-153.506,-4.296
9.8,-156.384,-4.204
9.84,-158.876,-4.284
9.87,-161.613,-4.353
9.9,-164.667,-4.33
9.93,-167.931,-4.41
9.97,-171.23,-4.513
10.0,-174.248,-4.433
10.03,-176.459,-4.365
10.06,-178.319,-4.319
10.1,-180.249,-4.284
10.13,-182.425,-4.284
10.16,-184.987,-4.387
10.19,-188.286,-4.651
10.23,-192.006,-4.834
10.26,-195.586,-4.869
10.29,-198.639,-4.788
10.32,-200.955,-4.766
10.36,-203.166,-4.788
10.39,-205.307,-4.708
10.42,-207.413,-4.639
10.45,-209.659,-4.731
10.49,-212.256,-4.823
10.52,-214.467,-4.708
10.55,-215.941,-4.605
10.59,-217.134,-4.571
10.62,-218.398,-4.582
10.65,-220.117,-4.617
10.68,-222.258,-4.731
10.72,-224.82,-4.892
10.75,-227.417,-5.029
10.78,-230.084,-5.052
10.81,-232.471,-5.04
10.85,-234.506,-4.983
10.88,-236.261,-4.937
10.91,-237.981,-4.903
10.94,-239.876,-4.937
10.98,-241.525,-4.892
11.01,-243.105,-4.88
11.04,-244.438,-4.8
11.07,-246.158,-4.914
11.11,-248.439,-5.086
11.14,-250.931,-5.075
11.17,-252.054,-4.846
11.2,-252.65,-4.708
11.24,-253.387,-4.914
11.27,-255.107,-4.937
11.3,-258.266,-5.27
11.33,-262.056,-5.613
11.37,-265.179,-5.361
11.4,-266.057,-4.926
11.43,-266.232,-4.983
11.46,-267.461,-5.109
11.5,-269.356,-4.983
11.53,-271.04,-4.995
11.56,-273.006,-5.144
11.59,-274.655,-5.052
11.63,-275.322,-4.823
11.66,-275.462,-4.72
11.69,-275.919,-4.823
11.73,-277.112,-4.869
11.76,-278.551,-4.903
11.79,-280.13,-4.983
11.82,-281.885,-5.144
11.86,-283.675,-5.155
11.89,-285.008,-5.029
11.92,-285.815,-4.995
11.95,-286.728,-4.949
11.99,-287.57,-4.857
12.02,-288.623,-4.937
12.05,-290.027,-5.052
12.08,-291.466,-4.983
12.12,-292.484,-4.949
12.15,-293.291,-4.926
12.18,-293.817,-4.766
12.21,-294.028,-4.628
12.25,-293.536,-4.548
12.28,-293.852,-4.674
12.31,-294.94,-4.892
12.34,-295.853,-4.72
12.38,-296.028,-4.628
12.41,-296.73,-4.823
12.44,-297.888,-4.926
12.47,-298.309,-4.617
12.51,-298.274,-4.628
12.54,-298.695,-4.823
12.57,-299.503,-4.708
12.6,-299.573,-4.479
12.64,-299.187,-4.536
12.67,-298.766,-4.445
12.7,-297.783,-4.204
12.73,-296.133,-4.078
12.77,-295.081,-4.239
12.8,-295.256,-4.456
12.83,-295.993,-4.536
12.87,-296.274,-4.456
12.9,-295.642,-4.365
12.93,-294.203,-4.17
12.96,-292.238,-3.998
13.0,-290.413,-3.952
13.03,-289.149,-4.021
13.06,-288.483,-4.101
13.09,-288.167,-4.193
13.13,-287.605,-4.216
13.16,-286.588,-4.135
13.19,-284.727,-3.929
13.22,-282.236,-3.746
13.26,-279.674,-3.723
13.29,-277.884,-3.849
13.32,-277.112,-4.067
13.35,-277.042,-4.181
13.39,-276.585,-4.193
13.42,-275.743,-4.17
13.45,-273.918,-3.941
13.48,-271.321,-3.735
13.52,-268.759,-3.689
13.55,-266.759,-3.735
13.58,-265.179,-3.723
13.61,-263.705,-3.757
13.65,-262.231,-3.815
13.68,-260.617,-3.803
13.71,-258.336,-3.586
13.74,-255.283,-3.368
13.78,-253.001,-3.643
13.81,-252.405,-3.975
13.84,-252.475,-3.952
13.87,-252.335,-4.044
13.91,-251.527,-4.067
13.94,-249.843,-3.826
13.97,-247.527,-3.654
14.01,-245.175,-3.586
14.04,-242.297,-3.334
14.07,-238.226,-2.875
14.1,-234.366,-3.001
14.14,-232.787,-3.494
14.17,-233.138,-3.815
14.2,-233.278,-3.712
14.23,-231.769,-3.494
14.27,-228.645,-3.322
14.3,-225.381,-3.219
14.33,-222.293,-3.059
14.36,-219.696,-3.082
14.4,-217.625,-3.139
14.43,-215.309,-2.944
14.46,-212.256,-2.841
14.49,-209.167,-2.933
14.53,-206.114,-2.818
14.56,-203.096,-2.704
14.59,-199.902,-2.749
14.62,-197.621,-2.864
14.66,-196.112,-3.036
14.69,-195.726,-3.322
14.72,-195.48,-3.391
14.75,-194.498,-3.253
14.79,-192.567,-3.139
14.82,-190.216,-3.001
14.85,-187.373,-2.715
14.88,-184.601,-2.681
14.92,-182.249,-2.715
14.95,-180.249,-2.612
14.98,-177.652,-2.44
15.01,-174.634,-2.337
15.05,-171.054,-2.211
15.08,-167.334,-2.005
15.11,-162.842,-1.753
15.14,-158.701,-1.753
15.18,-156.033,-2.142
15.21,-154.77,-2.245
15.24,-153.436,-2.234
15.28,-150.664,-1.97
15.31,-146.909,-1.799
15.34,-143.013,-1.764
15.37,-139.609,-1.707
15.41,-136.52,-1.627
15.44,-133.748,-1.615
15.47,-131.046,-1.627
15.5,-128.238,-1.615
15.54,-125.22,-1.478
15.57,-121.78,-1.352
15.6,-117.92,-1.191
15.63,-114.305,-1.203
15.67,-111.427,-1.26
15.7,-108.199,-1.054
15.73,-104.654,-0.848
15.76,-100.618,-0.859
15.8,-96.336,-0.687
15.83,-91.809,-0.424
15.86,-87.282,-0.435
15.89,-83.386,-0.504
15.93,-79.912,-0.401
15.96,-76.122,-0.286
15.99,-72.542,-0.367
16.02,-69.313,-0.412
16.06,-66.119,-0.298
16.09,-62.54,-0.195
16.12,-58.855,-0.172
16.15,-55.345,-0.092
16.19,-51.695,-0.057
16.22,-48.361,-0.034
16.25,-44.992,0.057
16.28,-41.658,0.069
16.32,-38.289,0.172
16.35,-34.569,0.286
16.38,-30.814,0.286
16.42,-27.374,0.252
16.45,-23.97,0.321
16.48,-20.496,0.412
16.51,-16.846,0.458
16.55,-12.95,0.458
16.58,-8.423,0.687
16.61,-3.474,0.882
16.64,1.649,0.733
16.68,5.721,0.584
16.71,8.528,0.664
16.74,10.564,0.802
16.77,11.581,0.894
16.81,11.967,0.985
16.84,13.161,1.363
16.87,16.846,1.776
16.9,21.408,2.016
16.94,25.479,2.119
16.97,29.024,2.188
17.0,32.919,2.429
17.03,37.973,2.726
17.07,43.834,2.875
17.1,49.028,2.841
17.13,53.204,2.715
17.16,56.784,2.784
17.2,60.399,2.83
17.23,63.908,2.726
17.26,67.172,2.704
17.29,70.506,2.784
17.33,73.665,2.772
17.36,76.472,2.715
17.39,79.175,2.726
17.42,81.737,2.784
17.46,84.404,2.807
17.49,87.668,3.036
17.52,91.809,3.322
17.56,95.81,3.276
17.59,99.074,3.242
17.62,101.952,3.334
17.65,104.935,3.368
17.69,108.058,3.437
17.72,111.638,3.608
17.75,115.218,3.643
17.78,118.797,3.735
17.82,122.377,3.872
17.85,126.308,3.964
17.88,129.256,3.826
17.91,132.133,3.769
17.95,135.608,4.147
17.98,140.205,4.319
18.01,144.943,4.365
18.04,148.102,4.101
18.08,149.821,3.883
18.11,151.857,4.113
18.14,155.367,4.41
18.17,159.122,4.239
18.21,162.0,4.135
18.24,164.316,4.296
18.27,167.194,4.365
18.3,170.247,4.41
18.34,173.265,4.433
18.37,175.862,4.387
18.4,178.108,4.365
18.43,180.46,4.445
18.47,183.478,4.582
18.5,186.882,4.697
18.53,190.286,4.697
18.56,193.129,4.708
18.6,195.866,4.777
18.63,198.499,4.685
18.66,200.639,4.617
18.7,202.956,4.674
18.73,205.798,4.811
18.76,208.571,4.8
18.79,210.466,4.594
18.83,211.905,4.548
18.86,213.274,4.582
18.89,214.677,4.559
18.92,216.116,4.502
18.96,217.696,4.594
18.99,220.152,4.834
19.02,222.96,4.926
19.05,225.311,4.857
19.09,227.101,4.857
19.12,229.207,4.926
19.15,231.313,4.96
19.18,233.208,4.88
19.22,234.787,4.823
19.25,236.507,4.903
19.28,238.437,4.937
19.31,240.508,4.937
19.35,242.403,4.949
19.38,245.0,5.155
19.41,248.544,5.487
19.44,251.633,5.292
19.48,252.896,4.892
19.51,253.282,4.88
19.54,254.3,4.995
19.57,255.949,4.903
19.61,257.494,4.846
19.64,259.108,4.972
19.67,260.828,5.018
19.7,262.372,4.949
19.74,263.741,4.949
19.77,265.039,4.995
19.8,266.338,4.96
19.84,267.671,4.972
19.87,269.461,5.132
19.9,271.777,5.281
19.93,274.374,5.315
19.97,276.48,5.212
20.0,277.147,4.937
20.03,277.007,4.697
20.06,277.182,4.788
20.1,278.516,4.983
20.13,280.341,4.949
20.16,281.99,4.972
20.19,283.464,5.098
20.23,284.692,4.995
20.26,285.605,4.926
20.29,286.482,4.937
20.32,287.57,4.926
20.36,288.799,4.949
20.39,290.237,5.018
20.42,291.676,5.04
20.45,292.905,4.983
20.49,293.782,4.903
20.52,294.414,4.834
20.55,294.8,4.72
20.58,294.94,4.639
20.62,295.396,4.708
20.65,295.361,4.559
20.68,296.133,4.708
20.71,297.327,4.972
20.75,298.029,4.536
20.78,298.941,4.869
20.81,299.959,5.018
20.84,300.029,4.399
20.88,299.292,4.445
20.91,299.924,4.926
20.94,301.012,4.697
20.97,300.871,4.284
21.01,299.854,4.387
21.04,298.871,4.353
21.07,297.502,4.021
21.11,295.993,3.987
21.14,295.958,4.456
21.17,297.011,4.628
21.2,297.502,4.387
21.24,296.309,4.193
21.27,294.379,4.067
21.3,292.203,3.906
21.33,290.413,3.906
21.37,289.29,3.964
21.4,288.553,4.101
21.43,288.202,4.204
21.46,287.605,4.17
21.5,286.166,4.044
21.53,284.026,3.849
21.56,281.499,3.757
21.59,279.007,3.666
21.63,276.796,3.631
21.66,275.427,3.872
21.69,275.041,4.124
21.72,274.725,4.078
21.76,273.497,3.975
21.79,271.567,3.906
21.82,269.215,3.826
21.85,267.145,3.757
21.89,265.46,3.826
21.92,264.302,3.918
21.95,263.284,3.895
21.98,262.126,3.906
22.02,260.898,3.929
22.05,259.213,3.792
22.08,256.932,3.666
22.11,254.686,3.654
22.15,252.721,3.654
22.18,250.861,3.597
22.21,249.001,3.608
22.25,247.491,3.7
22.28,246.544,3.826
22.31,246.123,3.998
22.34,245.14,3.861
22.38,242.297,3.322
22.41,238.332,3.104
22.44,235.208,3.345
22.47,233.524,3.437
22.51,231.979,3.311
22.54,230.19,3.391
22.57,228.119,3.379
22.6,225.803,3.253
22.64,223.557,3.322
22.67,222.047,3.482
22.7,220.924,3.471
22.73,219.556,3.437
22.77,218.047,3.482
22.8,216.467,3.471
22.83,214.291,3.196
22.86,211.378,2.978
22.9,208.501,3.001
22.93,206.36,3.082
22.96,204.43,2.99
22.99,202.429,2.933
23.03,200.78,3.15
23.06,199.06,3.082
23.09,195.937,2.612
23.12,192.146,2.52
23.16,188.882,2.669
23.19,186.075,2.474
23.22,183.478,2.474
23.25,181.372,2.704
23.29,179.196,2.589
23.32,176.283,2.337
23.35,172.563,2.222
23.39,169.405,2.337
23.42,166.772,2.325
23.45,163.824,2.028
23.48,161.122,2.234
23.52,159.016,2.36
23.55,157.121,2.222
23.58,154.279,2.028
23.61,150.945,1.913
23.65,147.575,1.959
23.68,143.75,1.592
23.71,139.503,1.386
23.74,135.643,1.558
23.78,133.046,1.707
23.81,130.695,1.684
23.84,127.887,1.478
23.87,124.167,1.363
23.91,120.482,1.375
23.94,116.972,1.306
23.97,113.849,1.249
24.0,111.041,1.306
24.04,108.585,1.34
24.07,105.812,1.191
24.1,102.303,1.008
24.13,97.81,0.733
24.17,92.686,0.481
24.2,87.527,0.367
24.23,83.035,0.355
24.26,79.35,0.447
24.3,76.367,0.493
24.33,73.279,0.493
24.36,70.015,0.481
24.39,66.541,0.378
24.43,62.891,0.298
24.46,59.311,0.298
24.49,56.012,0.275
24.53,52.959,0.275
24.56,50.011,0.218
24.59,46.957,0.149
24.62,43.658,0.069
24.66,39.833,-0.092
24.69,35.692,-0.218
24.72,31.445,-0.263
24.75,27.585,-0.183
24.79,24.321,-0.103
24.82,20.917,-0.172
24.85,17.091,-0.195
24.88,13.336,-0.183
24.92,9.335,-0.252
24.95,5.299,-0.298
24.98,1.439,-0.103
25.01,-2.071,-0.149
25.05,-5.58,-0.367
25.08,-8.844,-0.493
25.11,-11.792,-0.71
25.14,-14.951,-1.226
25.18,-18.46,-1.695
25.21,-22.25,-1.925
25.24,-26.392,-2.142
25.27,-31.34,-2.177
25.31,-35.481,-2.165
25.34,-38.956,-2.234
25.37,-42.255,-2.154
25.4,-45.273,-2.177
25.44,-48.291,-2.257
25.47,-51.45,-2.257
25.5,-54.362,-2.245
25.53,-57.416,-2.36
25.57,-60.89,-2.52
25.6,-64.47,-2.577
25.63,-67.628,-2.566
25.67,-70.857,-2.704
25.7,-74.261,-2.852
25.73,-77.42,-2.772
25.76,-80.228,-2.772
25.8,-83.281,-3.001
25.83,-87.177,-3.208
25.86,-91.493,-3.334
25.89,-95.74,-3.402
25.93,-99.284,-3.379
25.96,-102.232,-3.299
25.99,-104.97,-3.334
26.02,-108.128,-3.482
26.06,-111.497,-3.517
26.09,-114.972,-3.54
26.12,-118.306,-3.631
26.15,-121.921,-3.838
26.19,-125.536,-3.861
26.22,-129.221,-3.929
26.25,-132.169,-3.929
26.28,-135.011,-3.803
26.32,-137.959,-4.067
26.35,-141.995,-4.284
26.38,-146.382,-4.365
26.41,-150.067,-4.25
26.45,-151.962,-4.044
26.48,-152.278,-3.597
26.51,-153.191,-3.849
26.54,-156.314,-4.353
26.58,-160.876,-4.399
26.61,-164.772,-4.342
26.64,-168.317,-4.651
26.67,-171.826,-4.788
26.71,-175.16,-4.639
26.74,-178.038,-4.617
26.77,-181.337,-4.823
26.8,-184.636,-4.823
26.84,-187.338,-4.559
26.87,-189.655,-4.639
26.9,-193.059,-4.937
26.94,-196.954,-5.052
26.97,-200.113,-4.811
27.0,-202.254,-4.743
27.03,-204.114,-4.788
27.07,-205.939,-4.651
27.1,-207.588,-4.536
27.13,-209.343,-4.674
27.16,-211.589,-4.788
27.2,-213.835,-4.731
27.23,-215.8,-4.72
27.26,-217.45,-4.766
27.29,-218.889,-4.674
27.33,-220.293,-4.651
27.36,-221.907,-4.777
27.39,-224.188,-4.937
27.42,-226.855,-5.029
27.46,-229.768,-5.155
27.49,-232.716,-5.258
27.52,-235.138,-5.132
27.55,-236.507,-4.903
27.59,-237.489,-4.88
27.62,-238.718,-4.96
27.65,-240.858,-5.04
27.68,-243.034,-4.972
27.72,-245.175,-5.029
27.75,-247.316,-5.189
27.78,-249.001,-4.972
27.81,-249.913,-4.823
27.85,-251.036,-5.029
27.88,-253.458,-5.224
27.91,-255.914,-5.166
27.94,-257.88,-5.098
27.98,-259.108,-5.052
28.01,-259.95,-4.892
28.04,-260.828,-4.949
28.08,-262.231,-5.121
28.11,-264.232,-5.144
28.14,-266.232,-5.144
28.17,-267.952,-5.235
28.21,-269.882,-5.27
28.24,-271.953,-5.315
28.27,-273.743,-5.292
28.3,-275.252,-5.189
28.34,-276.34,-5.086
28.37,-277.217,-5.029
28.4,-278.165,-4.983
28.43,-279.182,-5.006
28.47,-280.446,-5.063
28.5,-282.306,-5.189
28.53,-283.955,-5.189
28.56,-285.219,-5.063
28.6,-286.061,-5.006
28.63,-286.974,-5.04
28.66,-288.026,-5.029
28.69,-289.255,-5.052
28.73,-290.588,-5.075
28.76,-291.957,-5.086
28.79,-293.01,-5.029
28.82,-293.817,-4.983
28.86,-294.484,-4.903
28.89,-294.94,-4.823
28.92,-295.186,-4.777
28.95,-295.888,-4.903
28.99,-296.906,-4.903
29.02,-297.818,-4.857
29.05,-298.45,-4.857
29.08,-299.467,-4.995
29.12,-300.345,-4.96
29.15,-299.573,-4.399
29.18,-297.607,-4.135
29.22,-297.081,-4.628
29.25,-297.818,-4.674
29.28,-299.292,-4.685
29.31,-299.397,-4.674
29.35,-298.73,-4.399
29.38,-297.467,-4.456
29.41,-295.853,-4.124
29.44,-294.554,-4.158
29.48,-294.835,-4.594
29.51,-296.169,-4.788
29.54,-296.625,-4.536
29.57,-295.326,-4.296
29.61,-293.221,-4.17
29.64,-291.22,-4.021
29.67,-289.395,-3.941
29.7,-288.237,-4.135
29.74,-288.167,-4.399
29.77,-288.518,-4.502
29.8,-288.553,-4.387
29.83,-287.43,-4.296
29.87,-285.254,-4.032
29.9,-282.306,-3.769
29.93,-279.604,-3.769
29.96,-278.059,-3.952
30.0,-277.849,-4.204
30.03,-277.568,-4.181
30.06,-276.901,-4.158
30.09,-276.024,-4.342
30.13,-274.585,-4.044
30.16,-271.707,-3.608
30.19,-268.478,-3.654
30.22,-266.618,-3.861
30.26,-265.776,-3.975
30.29,-265.215,-4.021
30.32,-264.583,-4.101
30.36,-262.968,-3.952
30.39,-260.442,-3.723
30.42,-257.353,-3.62
30.45,-254.475,-3.505
30.49,-252.58,-3.746
30.52,-252.229,-4.021
30.55,-252.299,-4.067
30.58,-251.352,-3.941
30.62,-249.001,-3.689
30.65,-245.491,-3.414
30.68,-241.841,-3.345
30.71,-239.56,-3.54
30.75,-238.261,-3.62
30.78,-236.963,-3.528
30.81,-235.068,-3.517
30.84,-232.997,-3.586
30.88,-231.207,-3.62
30.91,-229.066,-3.471
30.94,-226.61,-3.334
30.97,-224.223,-3.379
31.01,-222.398,-3.46
31.04,-220.889,-3.448
31.07,-219.38,-3.448
31.1,-217.801,-3.425
31.14,-215.485,-3.253
31.17,-211.905,-2.921
31.2,-208.08,-2.807
31.23,-205.132,-2.944
31.27,-203.201,-3.047
31.3,-201.903,-3.162
31.33,-200.99,-3.322
31.36,-199.867,-3.356
31.4,-198.183,-3.219
31.43,-195.621,-2.967
31.46,-192.462,-2.795
31.5,-189.093,-2.692
31.53,-185.864,-2.6
31.56,-183.197,-2.589
31.59,-180.846,-2.658
31.63,-178.389,-2.555
31.66,-175.511,-2.394
31.69,-172.177,-2.314
31.72,-169.089,-2.371
31.76,-166.492,-2.348
31.79,-164.07,-2.268
31.82,-161.719,-2.348
31.85,-159.648,-2.429
31.89,-157.121,-2.222
31.92,-153.963,-2.062
31.95,-150.243,-1.936
31.98,-146.628,-1.787
32.02,-144.312,-2.165
32.05,-141.855,-1.902
32.08,-138.907,-1.615
32.11,-135.994,-1.993
32.15,-132.87,-1.673
32.18,-128.764,-1.226
32.21,-124.202,-1.214
32.24,-120.517,-1.363
32.28,-117.674,-1.386
32.31,-114.761,-1.134
32.34,-111.497,-1.157
32.37,-108.374,-1.283
32.41,-105.11,-1.088
32.44,-101.144,-0.825
32.47,-96.617,-0.699
32.5,-92.125,-0.607
32.54,-87.668,-0.481
32.57,-83.597,-0.47
32.6,-80.017,-0.493
32.63,-76.543,-0.458
32.67,-73.103,-0.412
32.7,-69.664,-0.378
32.73,-66.084,-0.309
32.77,-62.434,-0.263
32.8,-58.995,-0.218
32.83,-55.731,-0.195
32.86,-52.327,-0.126
32.9,-48.853,-0.034
32.93,-45.378,0.023
32.96,-41.904,0.046
32.99,-38.359,0.183
33.03,-34.428,0.298
33.06,-30.603,0.252
33.09,-27.164,0.252
33.12,-23.795,0.321
33.16,-20.355,0.367
33.19,-16.74,0.378
33.22,-13.161,0.412
33.25,-9.16,0.515
33.29,-4.738,0.71
33.32,-0.175,0.63
33.35,3.369,0.332
33.38,5.65,0.378
33.42,8.142,0.745
33.45,11.652,1.237
33.48,15.547,1.569
33.51,19.127,1.879
33.55,23.058,2.119
33.58,26.883,2.177
33.61,30.603,2.245
33.64,34.428,2.291
33.68,38.008,2.245
33.71,41.237,2.177
33.74,43.939,2.062
33.77,46.677,2.165
33.81,49.94,2.383
33.84,53.836,2.474
33.87,57.767,2.509
33.91,61.417,2.612
33.94,64.961,2.704
33.97,68.611,2.772
34.0,72.296,2.852
34.04,75.981,2.921
34.07,79.315,2.921
34.1,82.474,2.956
34.13,85.492,3.013
34.17,88.721,3.059
34.2,92.09,3.104
34.23,95.529,3.242
34.26,99.249,3.345
34.3,102.794,3.391
34.33,106.093,3.402
34.36,109.427,3.517
34.39,113.042,3.666
34.43,117.148,3.792
34.46,121.078,3.803
34.49,124.623,3.838
34.52,127.817,3.883
34.56,130.765,3.838
34.59,133.923,3.906
34.62,137.819,4.204
34.65,142.346,4.319
34.69,146.417,4.261
34.72,149.611,4.25
34.75,152.138,4.124
34.78,153.682,3.895
34.82,154.945,3.826
34.85,156.63,3.849
34.88,158.771,3.906
34.91,161.192,3.987
34.95,164.105,4.158
34.98,167.86,4.548
35.01,172.247,4.72
35.05,175.897,4.605
35.08,178.319,4.468
35.11,179.968,4.422
35.14,181.758,4.387
35.18,184.46,4.559
35.21,188.426,4.88
35.24,192.989,5.063
35.27,197.2,5.04
35.31,200.359,4.972
35.34,202.57,4.834
35.37,204.044,4.628
35.4,205.026,4.456
35.44,206.5,4.468
35.47,208.817,4.662
35.5,211.975,4.834
35.53,214.923,4.766
35.57,216.818,4.662
35.6,217.906,4.594
35.63,218.819,4.513
35.66,219.731,4.468
35.7,221.381,4.674
35.73,224.364,5.018
35.76,228.119,5.178
35.79,231.523,5.178
35.83,234.015,5.121
35.86,235.664,4.983
35.89,237.384,5.029
35.92,239.104,4.995
35.96,240.508,4.777
35.99,241.56,4.788
36.02,243.456,4.983
36.05,245.947,5.144
36.09,247.667,4.88
36.12,248.228,4.685
36.15,248.895,4.834
36.19,250.58,4.995
36.22,252.791,4.995
36.25,255.037,5.063
36.28,257.353,5.201
36.32,259.564,5.235
36.35,261.88,5.281
36.38,263.425,5.109
36.41,264.442,4.937
36.45,265.636,5.029
36.48,267.706,5.235
36.51,270.444,5.304
36.54,272.865,5.292
36.58,274.796,5.235
36.61,275.954,5.086
36.64,276.094,4.8
36.67,275.883,4.674
36.71,276.55,4.892
36.74,278.165,4.972
36.77,279.814,4.926
36.8,281.393,5.075
36.84,283.148,5.235
36.87,284.798,5.086
36.9,285.429,4.88
36.93,285.745,4.857
36.97,286.377,4.846
37.0,287.289,4.88
37.03,288.588,4.949
37.06,290.273,5.075
37.1,291.957,5.109
37.13,293.185,5.04
37.16,294.063,4.96
37.19,294.589,4.857
37.23,294.8,4.72
37.26,294.905,4.674
37.29,295.432,4.766
37.33,296.274,4.823
37.36,297.081,4.766
37.39,297.432,4.697
37.42,297.537,4.685
37.46,297.853,4.708
37.49,298.344,4.674
37.52,298.625,4.617
37.55,298.976,4.685
37.59,299.748,4.766
37.62,300.31,4.754
37.65,300.696,4.674
37.68,300.415,4.525
37.72,299.467,4.353
37.75,298.169,4.204
37.78,297.011,4.181
37.81,296.625,4.353
37.85,297.081,4.548
37.88,297.643,4.502
37.91,297.186,4.365
37.94,295.537,4.113
37.98,293.221,3.964
38.01,291.08,3.906
38.04,289.781,3.998
38.07,289.22,4.147
38.11,289.149,4.261
38.14,288.412,4.158
38.17,286.833,4.032
38.2,284.201,3.826
38.24,281.885,3.838
38.27,279.744,3.826
38.3,277.042,3.448
38.33,274.515,3.643
38.37,274.023,4.239
38.4,274.866,4.376
38.43,274.936,4.193
38.46,273.637,4.17
38.5,271.707,4.032
38.53,269.321,3.826
38.56,267.145,3.792
38.6,265.706,3.906
38.63,264.548,3.906
38.66,263.425,3.941
38.69,262.337,4.021
38.73,260.336,3.792
38.76,256.932,3.345
38.79,253.914,3.551
38.82,252.335,3.883
38.86,251.422,3.723
38.89,249.211,3.505
38.92,246.544,3.471
38.95,244.333,3.666
38.99,242.613,3.643
39.02,240.648,3.482
39.05,238.893,3.643
39.08,237.981,3.895
39.12,237.033,3.769
39.15,235.349,3.597
39.18,233.769,3.78
39.21,232.857,3.883
39.25,231.313,3.54
39.28,228.54,3.265
39.31,225.697,3.334
39.34,223.451,3.368
39.38,221.696,3.322
39.41,220.117,3.345
39.44,218.433,3.345
39.47,216.116,3.208
39.51,213.309,3.047
39.54,210.431,3.024
39.57,208.009,3.047
39.6,206.079,3.059
39.64,204.324,3.093
39.67,202.534,3.127
39.7,200.499,3.07
39.74,198.183,2.978
39.77,195.48,2.852
39.8,192.603,2.749
39.83,189.76,2.681
39.87,186.917,2.589
39.9,184.425,2.612
39.93,182.249,2.669
39.96,179.898,2.589
40.0,176.775,2.348
40.03,173.019,2.211
40.06,169.37,2.234
40.09,166.141,2.165
40.13,163.228,2.131
40.16,160.736,2.291
40.19,158.42,2.234
40.22,155.472,1.982
40.26,151.857,1.925
40.29,148.769,2.005
40.32,146.312,2.096
40.35,143.539,1.81
40.39,140.767,1.879
40.42,138.24,1.993
40.45,135.854,1.799
40.48,133.221,1.821
40.52,131.046,1.925
40.55,127.957,1.558
40.58,123.535,1.157
40.61,118.832,1.157
40.65,114.691,1.157
40.68,111.217,1.042
40.71,107.883,1.031
40.74,104.478,1.008
40.78,100.723,0.894
40.81,96.371,0.699
40.84,91.914,0.584
40.88,87.457,0.55
40.91,83.141,0.412
40.94,79.175,0.412
40.97,75.876,0.55
41.01,73.103,0.596
41.04,70.366,0.55
41.07,67.032,0.458
41.1,63.557,0.424
41.14,60.048,0.344
41.17,56.503,0.252
41.2,53.31,0.252
41.23,50.502,0.298
41.27,47.414,0.149
41.3,43.518,-0.137
41.33,38.78,-0.309
41.36,34.077,-0.367
41.4,29.655,-0.321
41.43,25.935,-0.195
41.46,22.882,-0.08
41.49,19.688,-0.069
41.53,15.933,-0.195
41.56,11.581,-0.389
41.59,7.124,-0.344
41.62,3.018,-0.103
41.66,0.0,-0.023
41.69,-2.527,-0.08
41.72,-5.089,-0.206
41.75,-7.335,-0.355
41.79,-9.932,-0.699
41.82,-12.985,-1.168
41.85,-16.319,-1.501
41.88,-19.618,-1.776
41.92,-24.286,-2.211
41.95,-30.498,-2.52
41.98,-35.797,-2.303
42.02,-39.026,-2.131
42.05,-41.377,-2.085
42.08,-44.044,-2.234
42.11,-47.308,-2.268
42.15,-50.537,-2.211
42.18,-53.345,-2.165
42.21,-56.328,-2.406
42.24,-60.083,-2.577
42.28,-63.873,-2.589
42.31,-67.383,-2.612
42.34,-70.892,-2.807
42.37,-74.402,-2.818
42.41,-77.245,-2.715
42.44,-79.771,-2.784
42.47,-83.035,-3.013
42.5,-87.001,-3.116
42.54,-90.967,-3.242
42.57,-94.862,-3.368
42.6,-98.828,-3.448
42.63,-102.408,-3.471
42.67,-105.812,-3.482
42.7,-109.181,-3.528
42.73,-113.007,-3.723
42.76,-117.148,-3.838
42.8,-121.184,-3.861
42.83,-125.079,-3.952
42.86,-128.484,-3.941
42.89,-131.432,-3.792
42.93,-134.029,-3.803
42.96,-136.731,-3.861
42.99,-139.784,-3.941
43.02,-142.697,-3.872
43.06,-144.978,-3.803
43.09,-147.681,-3.998
43.12,-151.085,-4.239
43.16,-154.103,-4.09
43.19,-157.437,-4.216
43.22,-161.192,-4.571
43.25,-165.053,-4.479
43.29,-168.422,-4.456
43.32,-171.581,-4.639
43.35,-174.774,-4.594
43.38,-177.582,-4.433
43.42,-179.688,-4.387
43.45,-181.583,-4.342
43.48,-183.618,-4.353
43.51,-186.426,-4.582
43.55,-190.181,-4.846
43.58,-194.217,-4.903
43.61,-197.726,-4.88
43.64,-200.464,-4.857
43.68,-202.534,-4.743
43.71,-204.184,-4.582
43.74,-205.588,-4.548
43.77,-207.448,-4.628
43.81,-209.764,-4.685
43.84,-212.151,-4.685
43.87,-214.256,-4.685
43.9,-216.046,-4.651
43.94,-217.274,-4.617
43.97,-218.468,-4.571
44.0,-219.977,-4.605
44.03,-222.083,-4.777
44.07,-224.785,-4.949
44.1,-227.663,-5.075
44.13,-230.47,-5.132
44.16,-233.067,-5.155
44.2,-234.822,-4.96
44.23,-235.524,-4.617
44.26,-236.717,-4.846
44.3,-239.139,-5.121
44.33,-241.736,-4.972
44.36,-243.315,-4.857
44.39,-245.28,-5.144
44.43,-247.842,-5.338
44.46,-249.913,-4.995
44.49,-250.685,-4.8
44.52,-251.773,-4.983
44.56,-253.773,-5.178
44.59,-256.16,-5.121
44.62,-258.266,-5.098
44.65,-260.196,-5.189
44.69,-261.74,-5.098
44.72,-262.758,-4.949
44.75,-263.705,-4.937
44.78,-265.004,-5.006
44.82,-266.583,-5.029
44.85,-268.584,-5.166
44.88,-271.146,-5.35
44.91,-273.567,-5.304
44.95,-275.146,-5.098
44.98,-275.813,-4.96
45.01,-276.129,-4.937
45.04,-276.831,-4.903
45.08,-277.884,-4.88
45.11,-279.393,-4.972
45.14,-281.148,-5.155
45.17,-283.008,-5.098
45.21,-284.377,-5.04
45.24,-285.394,-5.086
45.27,-286.307,-5.029
45.3,-287.184,-4.892
45.34,-287.956,-4.903
45.37,-289.149,-5.086
45.4,-290.764,-5.075
45.43,-292.133,-4.949
45.47,-292.975,-4.983
45.5,-293.642,-4.926
45.53,-294.133,-4.788
45.57,-294.273,-4.708
45.6,-294.308,-4.685
45.63,-295.116,-4.8
45.66,-295.993,-4.846
45.7,-296.87,-4.788
45.73,-297.362,-4.777
45.76,-298.169,-4.914
45.79,-298.485,-4.743
45.83,-298.274,-4.479
45.86,-297.888,-4.594
45.89,-298.134,-4.639
45.92,-298.274,-4.513
45.96,-298.801,-4.697
45.99,-299.117,-4.708
46.02,-298.38,-4.296
46.05,-296.976,-4.273
46.09,-296.519,-4.536
46.12,-296.555,-4.433
46.15,-296.379,-4.342
46.18,-296.098,-4.502
46.22,-295.958,-4.548
46.25,-294.94,-4.239
46.28,-293.185,-4.078
46.31,-290.939,-3.975
46.35,-289.395,-4.021
46.38,-289.22,-4.433
46.41,-290.308,-4.605
46.44,-290.343,-4.342
46.48,-289.36,-4.25
46.51,-287.921,-4.319
46.54,-285.851,-3.906
46.57,-282.306,-3.425
46.61,-279.147,-3.586
46.64,-278.235,-4.135
46.67,-278.831,-4.25
46.71,-278.867,-4.204
46.74,-277.814,-4.113
46.77,-275.848,-4.021
46.8,-273.286,-3.838
46.84,-270.584,-3.712
46.87,-268.268,-3.677
46.9,-266.689,-3.78
46.93,-265.425,-3.826
46.97,-264.302,-3.929
47.0,-263.039,-3.918
47.03,-261.565,-3.872
47.06,-259.354,-3.757
47.1,-256.757,-3.563
47.13,-254.23,-3.574
47.16,-252.615,-3.746
47.19,-251.773,-3.872
47.23,-251.141,-3.918
47.26,-250.089,-3.895
47.29,-248.299,-3.769
47.32,-245.421,-3.448
47.36,-242.122,-3.265
47.39,-239.525,-3.391
47.42,-237.84,-3.563
47.45,-236.647,-3.563
47.49,-235.138,-3.563
47.52,-233.524,-3.597
47.55,-231.769,-3.563
47.58,-229.453,-3.345
47.62,-226.68,-3.23
47.65,-224.329,-3.345
47.68,-222.82,-3.414
47.71,-221.416,-3.391
47.75,-219.801,-3.299
47.78,-217.59,-3.208
47.81,-215.063,-3.208
47.85,-212.361,-3.047
47.88,-209.518,-2.887
47.91,-206.781,-2.956
47.94,-204.745,-3.07
47.98,-203.482,-3.15
48.01,-202.359,-3.242
48.04,-200.99,-3.185
48.07,-198.779,-3.024
48.11,-195.796,-2.795
48.14,-192.497,-2.635
48.17,-189.163,-2.566
48.2,-186.145,-2.486
48.24,-183.583,-2.497
48.27,-181.442,-2.623
48.3,-179.161,-2.532
48.33,-176.178,-2.325
48.37,-172.774,-2.245
48.4,-169.475,-2.245
48.43,-166.527,-2.222
48.46,-163.719,-2.154
48.5,-161.122,-2.211
48.53,-158.806,-2.291
48.56,-156.209,-2.096
48.59,-152.91,-1.936
48.63,-149.225,-1.844
48.66,-145.435,-1.684
48.69,-141.609,-1.569
48.72,-138.135,-1.638
48.76,-135.503,-1.741
48.79,-133.397,-1.799
48.82,-131.361,-1.833
48.85,-128.764,-1.718
48.89,-125.465,-1.478
48.92,-121.64,-1.352
48.95,-118.025,-1.306
48.99,-114.761,-1.26
49.02,-111.743,-1.191
49.05,-108.514,-1.123
49.08,-104.865,-0.974
49.12,-100.864,-0.825
49.15,-96.547,-0.653
49.18,-92.055,-0.504
49.21,-87.563,-0.424
49.25,-83.386,-0.401
49.28,-79.631,-0.412
49.31,-76.157,-0.378
49.34,-72.647,-0.378
49.38,-69.138,-0.344
49.41,-65.558,-0.263
49.44,-62.048,-0.218
49.47,-58.679,-0.229
49.51,-55.626,-0.229
49.54,-52.502,-0.172
49.57,-49.274,-0.069
49.6,-45.834,0.034
49.64,-42.325,0.069
49.67,-38.64,0.229
49.7,-34.604,0.378
49.73,-30.498,0.344
49.77,-26.953,0.309
49.8,-23.619,0.378
49.83,-20.039,0.367
49.86,-16.495,0.424
49.9,-12.634,0.538
49.93,-8.353,0.561
49.96,-4.071,0.664
49.99,0.246,0.642
50.03,4.106,0.47
50.06,6.844,0.515
50.09,9.406,0.802
50.13,12.038,1.146
50.16,14.494,1.363
50.19,17.232,1.821
50.22,21.548,2.211
50.26,26.321,2.268
50.29,30.568,2.291
50.32,34.253,2.337
50.35,37.517,2.257
50.39,40.64,2.245
50.42,43.658,2.28
50.45,46.852,2.303
50.48,50.291,2.406
50.52,53.976,2.509
50.55,57.591,2.532
50.58,61.171,2.6
50.61,64.645,2.738
50.65,69.243,3.036
50.68,75.735,3.677
50.71,82.509,3.757
50.74,87.036,3.276
50.78,88.896,2.967
50.81,89.914,2.933
50.84,92.09,3.104
50.87,95.634,3.196
50.91,99.214,3.127
50.94,102.162,3.104
50.97,104.057,3.024
51.0,105.145,2.852
51.04,106.97,3.07
51.07,110.55,3.551
51.1,115.358,3.792
51.13,120.026,3.792
51.17,123.781,3.861
51.2,127.431,4.044
51.23,130.87,4.044
51.26,133.994,3.918
51.3,137.328,4.078
51.33,141.399,4.284
51.36,145.54,4.273
51.4,149.435,4.273
51.43,152.98,4.353
51.46,156.104,4.296
51.49,158.525,4.124
51.53,160.912,4.193
51.56,164.105,4.422
51.59,168.036,4.536
51.62,171.826,4.548
51.66,174.985,4.502
51.69,177.336,4.387
51.72,179.407,4.387
51.75,181.372,4.33
51.79,183.267,4.25
51.82,185.443,4.342
51.85,188.602,4.628
51.88,192.392,4.788
51.92,195.726,4.766
51.95,198.604,4.766
51.98,201.06,4.788
52.01,203.342,4.731
52.05,205.482,4.662
52.08,207.658,4.697
52.11,210.361,4.857
52.14,213.239,4.88
52.18,215.625,4.731
52.21,217.029,4.605
52.24,218.222,4.594
52.27,219.17,4.513
52.31,220.117,4.433
52.34,221.661,4.594
52.37,224.329,4.892
52.4,227.557,5.018
52.44,230.225,4.926
52.47,232.05,4.869
52.5,233.664,4.914
52.54,235.103,4.857
52.57,236.577,4.731
52.6,238.472,4.926
52.63,241.28,5.189
52.67,244.193,5.132
52.7,246.79,5.166
52.73,248.895,5.155
52.76,250.334,4.96
52.8,250.755,4.674
52.83,250.896,4.617
52.86,252.054,4.834
52.89,254.826,5.132
52.93,258.195,5.304
52.96,261.038,5.224
52.99,262.617,5.098
53.02,263.67,5.052
53.06,264.513,4.949
53.09,265.601,4.869
53.12,267.215,5.018
53.15,269.637,5.201
53.19,272.023,5.178
53.22,274.304,5.247
53.25,276.129,5.235
53.28,277.252,5.018
53.32,277.112,4.628
53.35,276.691,4.628
53.38,271.04,3.185
53.41,256.02,0.149
53.45,240.578,0.435
53.48,238.226,3.849
53.51,248.299,5.625
53.54,258.897,5.384
53.58,264.934,5.923
53.61,270.303,7.057
53.64,276.55,7.183
53.68,281.499,6.495
53.71,285.219,6.449
53.74,289.29,6.575
53.77,293.256,6.117
53.81,295.888,5.693
53.84,297.537,5.499
53.87,298.204,5.098
53.9,297.221,4.502
53.94,295.01,4.124
53.97,293.466,4.227
54.0,293.501,4.433
54.03,294.133,4.468
54.07,294.449,4.387
54.1,293.922,4.319
54.13,292.905,4.284
54.16,291.957,4.239
54.2,291.466,4.342
54.23,292.589,4.731
54.26,294.695,5.018
54.29,296.414,4.869
54.33,296.906,4.754
54.36,296.835,4.766
54.39,296.625,4.605
54.42,296.344,4.456
54.46,296.414,4.559
54.49,297.186,4.731
54.52,297.888,4.662
54.55,298.169,4.582
54.59,298.064,4.571
54.62,297.256,4.353
54.65,295.502,3.987
54.68,292.975,3.792
54.72,290.869,3.872
54.75,290.062,4.044
54.78,289.746,4.101
54.82,288.974,4.032
54.85,287.289,3.918
54.88,284.938,3.792
54.91,282.411,3.677
54.95,280.341,3.746
54.98,279.147,3.906
55.01,278.831,4.09
55.04,278.41,4.135
55.08,277.393,4.032
55.11,275.708,3.964
55.14,273.532,3.803
55.17,271.005,3.631
55.21,268.759,3.643
55.24,267.285,3.849
55.27,266.653,3.975
55.3,265.916,3.941
55.34,264.864,3.929
55.37,263.179,3.861
55.4,260.968,3.677
55.43,258.336,3.563
55.47,256.335,3.643
55.5,255.142,3.769
55.53,254.089,3.769
55.56,252.58,3.677
55.6,251.106,3.746
55.63,249.983,3.895
55.66,247.983,3.551
55.69,244.543,3.127
55.73,240.929,3.23
55.76,238.963,3.528
55.79,238.051,3.563
55.82,236.998,3.517
55.86,235.384,3.528
55.89,233.453,3.54
55.92,230.716,3.265
55.96,227.452,3.024
55.99,224.644,3.196
56.02,222.89,3.311
56.05,221.381,3.23
56.09,219.275,3.116
56.12,216.853,3.104
56.15,214.502,3.127
56.18,212.186,3.07
56.22,209.94,3.001
56.25,207.869,3.047
56.28,206.044,3.104
56.31,204.359,3.059
56.35,202.64,3.07
56.38,200.99,3.104
56.41,199.06,2.99
56.44,196.393,2.749
56.48,192.989,2.566
56.51,189.83,2.6
56.54,187.549,2.692
56.57,185.548,2.6
56.61,183.057,2.486
56.64,180.214,2.451
56.67,177.406,2.429
56.7,174.458,2.314
56.74,171.194,2.165
56.77,167.404,2.028
56.8,163.824,1.993
56.83,161.192,2.177
56.87,159.402,2.28
56.9,157.718,2.222
56.93,155.367,2.096
56.96,152.208,1.97
57.0,148.383,1.753
57.03,144.487,1.65
57.06,140.942,1.65
57.09,137.819,1.627
57.13,134.976,1.615
57.16,131.993,1.546
57.19,128.659,1.455
57.23,125.185,1.363
57.26,121.675,1.294
57.29,118.411,1.306
57.32,115.533,1.272
57.36,112.796,1.272
57.39,109.918,1.214
57.42,106.514,1.031
57.45,102.267,0.825
57.49,97.565,0.619
57.52,92.686,0.447
57.55,88.159,0.401
57.58,84.158,0.424
57.62,80.894,0.515
57.65,77.841,0.493
57.68,74.437,0.435
57.71,70.717,0.344
57.75,67.032,0.286
57.78,63.277,0.206
57.81,59.802,0.218
57.84,56.503,0.218
57.88,53.415,0.206
57.91,50.186,0.16
57.94,46.817,0.034
57.97,42.992,-0.069
58.01,39.447,-0.08
58.04,35.973,-0.069
58.07,32.393,-0.16
58.1,28.427,-0.252
58.14,24.356,-0.332
58.17,20.39,-0.298
58.2,16.776,-0.172
58.23,13.196,-0.172
58.27,9.265,-0.286
58.3,4.843,-0.321
58.33,0.562,-0.321
58.37,-3.369,-0.321
58.4,-6.703,-0.344
58.43,-9.406,-0.504
58.46,-11.897,-0.825
58.5,-14.74,-1.26
58.53,-17.969,-1.753
58.56,-22.005,-1.97
58.59,-25.9,-2.051
58.63,-30.147,-2.062
58.66,-34.077,-2.062
58.69,-37.236,-2.108
58.72,-39.938,-1.982
58.76,-42.184,-1.936
58.79,-44.781,-2.131
58.82,-48.502,-2.314
58.85,-52.292,-2.371
58.89,-56.012,-2.44
58.92,-59.592,-2.543
58.95,-63.171,-2.669
58.98,-66.856,-2.749
59.02,-70.576,-2.83
59.05,-74.402,-2.933
59.08,-78.227,-3.024
59.11,-81.772,-3.047
59.15,-85.352,-3.139
59.18,-89.212,-3.265
59.21,-93.283,-3.322
59.24,-97.003,-3.334
59.28,-100.407,-3.345
59.31,-103.391,-3.356
59.34,-106.374,-3.356
59.37,-109.392,-3.414
59.41,-112.761,-3.574
59.44,-116.516,-3.712
59.47,-120.517,-3.826
59.51,-124.448,-3.918
59.54,-127.992,-3.941
59.57,-130.238,-3.643
59.6,-132.379,-3.689
59.64,-135.327,-4.021
59.67,-138.766,-3.895
59.7,-141.785,-3.895
59.73,-144.347,-3.998
59.77,-147.189,-4.067
59.8,-150.208,-4.147
59.83,-153.471,-4.193
59.86,-156.981,-4.33
59.9,-160.631,-4.502
59.93,-164.14,-4.479
59.96,-167.439,-4.513
59.99,-170.808,-4.639
60.03,-174.178,-4.651
60.06,-177.055,-4.548
60.09,-179.512,-4.513
60.12,-181.758,-4.456
60.16,-183.969,-4.445
60.19,-186.531,-4.571
60.22,-189.935,-4.811
60.25,-193.796,-4.926
60.29,-197.34,-4.914
60.32,-200.183,-4.846
60.35,-202.254,-4.731
60.38,-203.798,-4.651
60.42,-205.342,-4.617
60.45,-207.378,-4.674
60.48,-209.799,-4.743
60.51,-212.817,-4.903
60.55,-215.204,-4.823
60.58,-216.362,-4.548
60.61,-216.748,-4.456
60.65,-218.152,-4.697
60.68,-220.187,-4.811
60.71,-222.223,-4.594
60.74,-224.118,-4.88
60.78,-226.855,-5.189
60.81,-230.435,-5.258
60.84,-233.138,-5.144
60.87,-234.717,-4.983
60.91,-235.594,-4.834
60.94,-236.717,-4.857
60.97,-238.718,-5.052
61.0,-241.595,-5.235
61.04,-244.649,-5.27
61.07,-247.211,-5.292
61.1,-249.281,-5.247
61.13,-250.229,-5.006
61.17,-250.51,-4.685
61.2,-251.633,-5.006
61.23,-254.405,-5.373
61.26,-257.388,-5.212
61.3,-259.213,-5.098
61.33,-260.617,-5.189
61.36,-261.916,-5.166
61.39,-262.968,-4.949
61.43,-263.741,-4.857
61.46,-264.864,-5.006
61.49,-266.899,-5.166
61.52,-269.496,-5.292
61.56,-272.023,-5.373
61.59,-274.059,-5.338
61.62,-275.182,-5.132
61.65,-275.462,-4.903
61.69,-275.533,-4.846
61.72,-276.305,-4.903
61.75,-277.603,-4.949
61.79,-279.112,-5.029
61.82,-280.902,-5.144
61.85,-282.762,-5.224
61.88,-284.271,-5.166
61.92,-285.289,-5.063
61.95,-286.026,-5.029
61.98,-286.763,-4.972
62.01,-287.64,-4.937
62.05,-288.763,-5.063
62.08,-290.308,-5.121
62.11,-291.676,-5.075
62.14,-292.659,-5.006
62.18,-293.291,-4.983
62.21,-293.852,-4.903
62.24,-294.063,-4.766
62.27,-293.958,-4.639
62.31,-294.028,-4.766
62.34,-294.238,-4.662
62.37,-295.081,-4.834
62.4,-296.133,-4.96
62.44,-297.221,-4.846
62.47,-297.748,-4.857
62.5,-297.713,-4.651
62.53,-297.467,-4.628
62.57,-298.134,-4.823
62.6,-298.871,-4.8
62.63,-299.187,-4.605
62.66,-299.011,-4.639
62.7,-298.836,-4.651
62.73,-298.38,-4.468
62.76,-297.256,-4.261
62.79,-295.888,-4.261
62.83,-295.326,-4.456
62.86,-295.712,-4.594
62.89,-296.204,-4.582
62.92,-296.098,-4.536
62.96,-294.975,-4.296
62.99,-292.94,-4.044
63.02,-290.799,-4.009
63.06,-289.43,-4.113
63.09,-289.044,-4.284
63.12,-289.009,-4.319
63.15,-288.377,-4.261
63.19,-287.149,-4.181
63.22,-285.184,-4.009
63.25,-282.692,-3.815
63.28,-280.2,-3.803
63.32,-278.586,-3.941
63.35,-277.849,-4.113
63.38,-277.533,-4.17
63.41,-276.761,-4.158
63.45,-275.638,-4.135
63.48,-273.708,-3.929
63.51,-271.251,-3.78
63.54,-268.935,-3.792
63.58,-267.355,-3.872
63.61,-266.197,-3.941
63.64,-265.179,-3.987
63.67,-263.916,-3.975
63.71,-262.267,-3.861
63.74,-259.669,-3.643
63.77,-257.002,-3.608
63.8,-254.826,-3.757
63.84,-253.598,-3.803
63.87,-252.299,-3.78
63.9,-250.615,-3.735
63.93,-249.036,-3.838
63.97,-247.632,-3.792
64.0,-245.14,-3.505
64.03,-242.087,-3.334
64.06,-239.595,-3.505
64.1,-238.226,-3.689
64.13,-237.349,-3.689
64.16,-235.98,-3.62
64.2,-234.015,-3.608
64.23,-231.874,-3.551
64.26,-229.242,-3.311
64.29,-226.224,-3.15
64.33,-223.592,-3.288
64.36,-221.767,-3.414
64.39,-220.538,-3.391
64.42,-219.099,-3.448
64.46,-217.555,-3.494
64.49,-215.66,-3.356
64.52,-212.888,-3.093
64.55,-209.589,-2.944
64.59,-206.641,-2.99
64.62,-204.605,-3.082
64.65,-203.201,-3.162
64.68,-202.008,-3.219
64.72,-200.429,-3.185
64.75,-198.183,-3.036
64.78,-195.164,-2.807
64.81,-191.655,-2.715
64.85,-188.637,-2.692
64.88,-186.11,-2.6
64.91,-183.899,-2.681
64.94,-182.039,-2.749
64.98,-179.758,-2.577
65.01,-176.494,-2.337
65.04,-172.668,-2.245
65.07,-169.159,-2.257
65.11,-166.246,-2.222
65.14,-163.474,-2.154
65.17,-161.122,-2.245
65.2,-159.192,-2.44
65.24,-155.788,-1.902
65.27,-151.471,-1.638
65.3,-147.224,-1.936
65.34,-144.557,-1.89
65.37,-142.346,-1.925
65.4,-139.574,-1.741
65.43,-136.064,-1.627
65.47,-132.59,-1.695
65.5,-129.782,-1.695
65.53,-127.115,-1.65
65.56,-124.377,-1.558
65.6,-121.394,-1.455
65.63,-118.166,-1.375
65.66,-114.832,-1.306
65.69,-111.638,-1.249
65.73,-108.409,-1.157
65.76,-104.829,-0.962
65.79,-100.864,-0.825
65.82,-96.582,-0.699
65.86,-92.23,-0.561
65.89,-87.984,-0.458
65.92,-83.913,-0.47
65.95,-80.122,-0.435
65.99,-76.543,-0.344
66.02,-72.893,-0.355
66.05,-69.453,-0.401
66.08,-66.26,-0.332
66.12,-63.136,-0.332
66.15,-59.837,-0.263
66.18,-56.503,-0.172
66.21,-52.853,-0.057
66.25,-49.168,0.023
66.28,-45.659,0.057
66.31,-42.255,0.103
66.34,-38.499,0.218
66.38,-34.253,0.367
66.41,-30.147,0.401
66.44,-26.427,0.378
66.48,-22.917,0.332
66.51,-19.688,0.321
66.54,-16.354,0.367
66.57,-12.74,0.424
66.61,-8.879,0.538
66.64,-4.738,0.561
66.67,-0.667,0.481
66.7,3.229,0.538
66.74,6.633,0.596
66.77,9.511,0.722
66.8,11.827,0.951
66.83,13.898,1.237
66.87,16.003,1.65
66.9,19.724,1.993
66.93,24.286,2.177
66.96,28.883,2.291
67.0,33.13,2.394
67.03,36.99,2.383
67.06,40.535,2.337
67.09,44.009,2.383
67.13,47.624,2.44
67.16,51.379,2.463
67.19,54.924,2.463
67.22,58.012,2.429
67.26,60.469,2.325
67.29,62.68,2.303
67.32,65.172,2.463
67.35,68.646,2.692
67.39,72.858,2.887
67.42,76.964,2.887
67.45,80.473,2.921
67.48,83.983,3.116
67.52,88.37,3.437
67.55,93.529,3.62
67.58,98.758,3.712
67.62,103.355,3.735
67.65,107.497,3.757
67.68,111.147,3.723
67.71,114.305,3.643
67.75,117.218,3.631
67.78,120.412,3.666
67.81,123.465,3.654
67.84,126.343,3.62
67.88,129.185,3.666
67.91,132.063,3.757
67.94,135.081,3.78
67.97,138.17,3.838
68.01,140.977,3.849
68.04,143.68,3.872
68.07,146.487,3.998
68.1,149.646,4.124
68.14,152.629,4.078
68.17,155.717,4.17
68.2,158.981,4.353
68.23,161.824,4.17
68.27,164.175,4.135
68.3,166.737,4.319
68.33,169.861,4.468
68.36,172.914,4.376
68.4,175.546,4.353
68.43,177.968,4.456
68.46,180.705,4.502
68.49,183.302,4.422
68.53,185.829,4.513
68.56,188.882,4.697
68.59,192.252,4.754
68.62,195.375,4.731
68.66,198.253,4.811
68.69,200.955,4.811
68.72,203.342,4.72
68.75,205.237,4.628
68.79,206.886,4.605
68.82,208.852,4.674
68.85,211.098,4.685
68.89,213.414,4.685
68.92,215.555,4.754
68.95,217.274,4.697
68.98,218.433,4.468
69.02,220.433,4.834
69.05,223.381,5.086
69.08,226.154,4.857
69.11,228.259,4.937
69.15,230.611,5.063
69.18,233.208,5.109
69.21,235.349,4.96
69.24,236.998,4.892
69.28,238.402,4.88
69.31,240.016,4.903
69.34,241.771,4.846
69.37,243.561,4.88
69.41,245.175,4.857
69.44,246.825,4.903
69.47,248.228,4.892
69.5,250.018,4.972
69.54,251.212,4.857
69.57,252.089,4.72
69.6,253.668,5.052
69.63,256.581,5.338
69.67,260.056,5.396
69.7,262.547,5.212
69.73,263.67,5.075
69.76,264.618,5.04
69.8,266.092,5.121
69.83,268.092,5.166
69.86,270.058,5.075
69.89,271.672,5.063
69.93,272.935,5.04
69.96,273.602,4.869
69.99,273.111,4.513
70.03,272.304,4.41
70.06,272.62,4.72
70.09,274.936,5.098
70.12,277.673,5.178
70.16,279.779,5.098
70.19,281.253,5.224
70.22,282.938,5.281
70.25,284.447,5.166
70.29,285.956,5.132
70.32,287.535,5.166
70.35,289.395,5.235
70.38,291.676,5.315
70.42,294.028,5.315
70.45,295.923,5.235
70.48,297.151,5.086
70.51,297.818,4.926
70.55,297.853,4.708
70.58,297.116,4.422
70.61,296.239,4.365
70.64,296.309,4.594
70.68,297.362,4.754
70.71,298.134,4.605
70.74,298.274,4.571
70.77,298.309,4.662
70.81,299.152,4.823
70.84,299.117,4.548
70.87,297.958,4.158
70.9,297.923,4.651
70.94,299.573,5.04
70.97,300.696,4.594
71.0,300.169,4.445
71.03,299.011,4.387
71.07,299.397,4.697
71.1,299.467,4.536
71.13,298.45,4.055
71.17,297.397,4.353
71.2,298.485,4.88
71.23,299.117,4.536
71.26,297.116,3.815
71.3,293.677,3.792
71.33,291.957,4.147
71.36,291.08,4.044
71.39,289.606,3.666
71.43,288.307,4.101
71.46,288.272,4.433
71.49,288.167,4.193
71.52,286.552,3.998
71.56,284.306,3.987
71.59,281.885,3.803
71.62,279.288,3.643
71.65,277.252,3.792
71.69,276.55,4.078
71.72,276.27,4.135
71.75,275.427,4.044
71.78,273.883,3.998
71.82,271.812,3.918
71.85,269.566,3.757
71.88,267.355,3.746
71.91,265.636,3.826
71.95,264.337,3.906
71.98,263.39,3.941
72.01,262.512,4.009
72.04,261.249,3.987
72.08,259.705,3.929
72.11,257.739,3.815
72.14,255.247,3.574
72.17,252.826,3.62
72.21,251.071,3.712
72.24,249.176,3.586
72.27,247.351,3.586
72.31,245.596,3.712
72.34,243.385,3.505
72.37,240.894,3.437
72.4,238.893,3.597
72.44,237.7,3.7
72.47,236.542,3.712
72.5,235.313,3.757
72.53,234.331,3.815
72.57,232.681,3.677
72.6,230.26,3.437
72.63,227.557,3.356
72.66,225.452,3.471
72.7,223.943,3.471
72.73,222.679,3.471
72.76,221.416,3.528
72.79,220.012,3.482
72.83,217.871,3.288
72.86,214.853,3.047
72.89,211.554,2.921
72.92,208.711,2.887
72.96,206.325,2.956
72.99,204.57,3.07
73.02,203.026,3.093
73.05,201.271,3.013
73.09,198.674,2.887
73.12,195.515,2.726
73.15,192.111,2.612
73.18,188.882,2.577
73.22,186.005,2.566
73.25,183.864,2.681
73.28,182.074,2.738
73.31,179.758,2.555
73.35,176.389,2.28
73.38,172.528,2.257
73.41,169.124,2.268
73.45,165.79,2.085
73.48,162.491,2.028
73.51,159.508,2.199
73.54,156.139,1.925
73.58,153.156,2.016
73.61,150.909,2.303
73.64,148.839,2.062
73.67,145.575,1.776
73.71,142.03,1.833
73.74,139.188,1.959
73.77,137.257,1.97
73.8,135.222,1.982
73.84,132.239,1.684
73.87,128.062,1.363
73.9,123.746,1.375
73.93,120.377,1.466
73.97,117.85,1.42
74.0,115.218,1.34
74.03,112.305,1.329
74.06,109.076,1.249
74.1,105.286,1.042
74.13,101.004,0.848
74.16,96.442,0.687
74.19,91.844,0.573
74.23,87.387,0.493
74.26,83.386,0.493
74.29,80.017,0.573
74.32,76.894,0.573
74.36,73.56,0.458
74.39,69.91,0.412
74.42,66.435,0.447
74.45,63.347,0.504
74.49,60.434,0.424
74.52,57.03,0.218
74.55,53.415,0.229
74.58,50.221,0.309
74.62,47.203,0.195
74.65,43.483,-0.08
74.68,39.201,-0.183
74.72,35.481,-0.069
74.75,31.621,-0.183
74.78,27.199,-0.435
74.81,22.461,-0.424
74.85,18.425,-0.252
74.88,15.056,-0.103
74.91,11.687,-0.08
74.94,8.072,-0.092
74.98,4.387,-0.241
75.01,0.667,-0.206
75.04,-2.457,0.0
75.07,-5.019,-0.149
75.11,-7.756,-0.481
75.14,-10.704,-0.733
75.17,-13.652,-1.031
75.2,-16.705,-1.489
75.24,-20.285,-1.902
75.27,-24.602,-2.108
75.3,-29.445,-2.165
75.33,-33.867,-2.199
75.37,-37.482,-2.234
75.4,-40.816,-2.177
75.43,-44.115,-2.257
75.46,-47.765,-2.406
75.5,-51.625,-2.417
75.53,-55.17,-2.429
75.56,-58.574,-2.532
75.59,-62.119,-2.6
75.63,-65.593,-2.612
75.66,-68.892,-2.669
75.69,-72.226,-2.738
75.72,-75.525,-2.761
75.76,-78.824,-2.83
75.79,-81.877,-2.875
75.82,-85.281,-3.001
75.86,-88.826,-3.139
75.89,-92.722,-3.23
75.92,-96.512,-3.299
75.95,-100.056,-3.334
75.99,-103.18,-3.299
76.02,-106.093,-3.276
76.05,-109.006,-3.402
76.08,-112.585,-3.597
76.12,-116.516,-3.654
76.15,-120.131,-3.666
76.18,-123.465,-3.769
76.21,-126.553,-3.757
76.25,-129.536,-3.792
76.28,-132.835,-3.918
76.31,-136.52,-4.032
76.34,-140.311,-4.078
76.38,-143.785,-4.147
76.41,-146.979,-4.158
76.44,-149.962,-4.113
76.47,-152.664,-4.147
76.51,-155.507,-4.113
76.54,-158.736,-4.273
76.57,-162.21,-4.399
76.6,-165.614,-4.342
76.64,-168.668,-4.365
76.67,-171.756,-4.548
76.7,-174.669,-4.456
76.73,-177.02,-4.319
76.77,-178.915,-4.296
76.8,-180.986,-4.33
76.83,-183.267,-4.307
76.86,-185.97,-4.445
76.9,-189.233,-4.662
76.93,-193.304,-4.892
76.96,-196.603,-4.766
77.0,-198.534,-4.502
77.03,-199.797,-4.536
77.06,-202.219,-4.834
77.09,-205.412,-4.869
77.13,-208.395,-4.685
77.16,-210.922,-4.8
77.19,-213.835,-5.063
77.22,-215.73,-4.72
77.26,-216.081,-4.181
77.29,-215.871,-4.284
77.32,-217.485,-4.628
77.35,-220.047,-4.662
77.39,-222.398,-4.582
77.42,-224.75,-4.88
77.45,-227.206,-4.914
77.48,-229.593,-4.926
77.52,-231.628,-4.949
77.55,-233.524,-4.926
77.58,-235.068,-4.811
77.61,-236.612,-4.846
77.65,-238.683,-4.914
77.68,-241.139,-5.04
77.71,-243.806,-5.029
77.74,-246.754,-5.258
77.78,-249.352,-5.27
77.81,-250.685,-4.788
77.84,-250.79,-4.651
77.87,-251.843,-4.903
77.91,-254.089,-4.995
77.94,-256.511,-4.926
77.97,-258.476,-4.995
78.0,-260.406,-5.155
78.04,-262.021,-5.04
78.07,-263.004,-4.834
78.1,-263.741,-4.8
78.14,-264.899,-4.869
78.17,-266.618,-4.949
78.2,-268.864,-5.086
78.23,-271.146,-5.166
78.27,-273.146,-5.155
78.3,-274.55,-5.04
78.33,-275.182,-4.846
78.36,-275.568,-4.777
78.4,-276.305,-4.811
78.43,-277.428,-4.846
78.46,-278.831,-4.926
78.49,-280.551,-5.029
78.53,-282.411,-5.144
78.56,-284.166,-5.098
78.59,-285.324,-4.96
78.62,-286.061,-4.972
78.66,-287.009,-4.903
78.69,-287.851,-4.834
78.72,-288.974,-4.96
78.75,-290.518,-4.983
78.79,-291.957,-4.926
78.82,-292.834,-4.926
78.85,-293.607,-4.846
78.88,-294.028,-4.731
78.92,-294.063,-4.639
78.95,-293.922,-4.536
78.98,-294.308,-4.674
79.01,-295.116,-4.777
79.05,-295.818,-4.674
79.08,-296.098,-4.594
79.11,-296.941,-4.834
79.14,-298.134,-4.892
79.18,-298.274,-4.468
79.21,-297.958,-4.536
79.24,-298.836,-4.903
79.28,-299.959,-4.777
79.31,-300.134,-4.456
79.34,-299.818,-4.594
79.37,-299.678,-4.536
79.41,-298.766,-4.193
79.44,-296.695,-3.918
79.47,-295.01,-4.032
79.5,-294.695,-4.307
79.54,-295.432,-4.433
79.57,-295.923,-4.399
79.6,-295.502,-4.365
79.63,-294.168,-4.181
79.67,-292.308,-4.021
79.7,-290.483,-3.952
79.73,-289.325,-4.055
79.76,-289.044,-4.216
79.8,-288.974,-4.319
79.83,-288.483,-4.193
79.86,-286.974,-4.009
79.89,-284.692,-3.826
79.93,-282.166,-3.712
79.96,-279.919,-3.689
79.99,-278.445,-3.849
80.02,-277.849,-4.067
80.06,-277.603,-4.113
80.09,-276.901,-4.055
80.12,-275.568,-4.044
80.15,-273.672,-3.872
80.19,-271.251,-3.643
80.22,-268.689,-3.62
80.25,-266.724,-3.712
80.28,-265.39,-3.803
80.32,-264.478,-3.895
80.35,-263.354,-3.872
80.38,-261.74,-3.769
80.41,-259.213,-3.563
80.45,-256.23,-3.448
80.48,-254.124,-3.597
80.51,-253.001,-3.803
80.55,-252.264,-3.815
80.58,-250.826,-3.654
80.61,-248.72,-3.631
80.64,-246.544,-3.62
80.68,-243.877,-3.368
80.71,-241.104,-3.253
80.74,-238.647,-3.414
80.77,-237.173,-3.563
80.81,-235.805,-3.54
80.84,-234.331,-3.551
80.87,-232.681,-3.597
80.9,-230.962,-3.563
80.94,-228.751,-3.356
80.97,-226.083,-3.23
81.0,-223.802,-3.334
81.03,-222.153,-3.414
81.07,-220.854,-3.414
81.1,-219.556,-3.425
81.13,-218.082,-3.402
81.16,-216.081,-3.23
81.2,-213.063,-2.944
81.23,-209.589,-2.864
81.26,-206.711,-2.956
81.29,-204.921,-3.036
81.33,-203.728,-3.162
81.36,-202.85,-3.242
81.39,-201.306,-3.07
81.42,-198.569,-2.852
81.46,-194.919,-2.681
81.49,-191.374,-2.6
81.52,-188.391,-2.577
81.55,-185.829,-2.543
81.59,-183.688,-2.566
81.62,-181.793,-2.658
81.65,-179.442,-2.52
81.69,-176.283,-2.303
81.72,-172.739,-2.234
81.75,-169.37,-2.257
81.78,-166.422,-2.165
81.82,-163.544,-2.142
81.85,-161.508,-2.325
81.88,-159.964,-2.486
81.91,-156.805,-1.879
81.95,-152.383,-1.661
81.98,-148.137,-1.925
82.01,-145.47,-1.879
82.04,-143.153,-1.867
82.08,-140.17,-1.661
82.11,-136.836,-1.615
82.14,-133.397,-1.661
82.17,-130.449,-1.65
82.21,-127.747,-1.615
82.24,-124.974,-1.501
82.27,-121.64,-1.375
82.3,-118.236,-1.272
82.34,-114.726,-1.26
82.37,-111.743,-1.272
82.4,-108.83,-1.168
82.43,-105.461,-0.985
82.47,-101.39,-0.848
82.5,-96.968,-0.642
82.53,-92.055,-0.435
82.56,-87.106,-0.378
82.6,-82.93,-0.378
82.63,-79.35,-0.378
82.66,-76.051,-0.401
82.69,-72.682,-0.412
82.73,-69.313,-0.355
82.76,-65.698,-0.286
82.79,-62.364,-0.321
82.83,-59.592,-0.332
82.86,-56.889,-0.286
82.89,-53.731,-0.183
82.92,-50.116,0.0
82.96,-45.94,0.172
82.99,-41.658,0.275
83.02,-37.411,0.367
83.05,-33.165,0.435
83.09,-29.234,0.412
83.12,-25.795,0.321
83.15,-22.531,0.298
83.18,-19.337,0.286
83.22,-16.425,0.241
83.25,-13.02,0.344
83.28,-9.09,0.573
83.31,-4.703,0.733
83.35,0.0,0.619
83.38,4.106,0.515
83.41,7.089,0.561
83.44,9.265,0.642
83.48,11.16,0.951
83.51,13.441,1.375
83.54,16.354,1.81
83.57,20.566,2.016
83.61,24.918,2.154
83.64,29.234,2.314
83.67,33.481,2.429
83.7,37.657,2.44
83.74,41.693,2.44
83.77,45.483,2.486
83.8,49.379,2.543
83.83,53.134,2.577
83.87,56.784,2.566
83.9,60.048,2.532
83.93,63.066,2.555
83.97,65.839,2.566
84.0,68.541,2.532
84.03,71.138,2.555
84.06,73.911,2.646
84.1,76.894,2.704
84.13,79.947,2.841
84.16,83.632,3.059
84.19,88.019,3.311
84.23,92.827,3.505
84.26,97.565,3.597
84.29,101.706,3.62
84.32,105.391,3.654
84.36,108.76,3.631
84.39,111.813,3.574
84.42,114.832,3.563
84.45,117.92,3.643
84.49,121.114,3.666
84.52,124.132,3.666
84.55,126.869,3.7
84.58,129.536,3.654
84.62,132.098,3.723
84.65,134.941,3.849
84.68,138.205,3.906
84.71,141.469,4.009
84.75,144.733,4.078
84.78,148.839,4.41
84.81,152.524,4.342
84.84,155.788,4.204
84.88,158.42,4.353
84.91,161.578,4.433
84.94,164.597,4.387
84.97,167.369,4.33
85.01,170.387,4.536
85.04,173.476,4.548
85.07,176.073,4.399
85.11,178.389,4.433
85.14,180.846,4.513
85.17,183.337,4.456
85.2,186.11,4.559
85.24,189.268,4.777
85.27,192.848,4.857
85.3,196.147,4.834
85.33,199.13,4.857
85.37,201.517,4.823
85.4,203.552,4.697
85.43,205.377,4.628
85.46,207.378,4.697
85.5,209.869,4.72
85.53,212.115,4.708
85.56,214.011,4.697
85.59,215.871,4.731
85.63,217.345,4.639
85.66,217.976,4.353
85.69,219.696,4.754
85.72,223.03,5.212
85.76,226.68,5.052
85.79,228.891,4.914
85.82,230.154,4.846
85.85,231.558,4.949
85.89,233.418,4.949
85.92,235.349,4.88
85.95,237.103,4.903
85.98,239.279,5.04
86.02,241.49,5.063
86.05,243.771,5.109
86.08,245.842,5.098
86.11,247.737,5.086
86.15,249.141,4.983
86.18,250.404,4.949
86.21,252.124,5.121
86.24,254.475,5.212
86.28,256.862,5.189
86.31,258.687,5.132
86.34,260.371,5.121
86.38,262.196,5.201
86.41,263.6,5.063
86.44,264.478,4.857
86.47,265.495,4.995
86.51,267.566,5.201
86.54,269.812,5.178
86.57,271.848,5.201
86.6,273.637,5.212
86.64,274.76,5.04
86.67,274.445,4.639
86.7,273.322,4.399
86.73,272.76,4.582
86.77,274.234,4.937
86.8,277.112,5.212
86.83,279.709,5.201
86.86,281.744,5.247
86.9,283.71,5.453
86.93,285.71,5.35
86.96,287.325,5.201
86.99,288.834,5.247
87.03,290.623,5.292
87.06,292.554,5.281
87.09,294.519,5.258
87.12,296.098,5.189
87.16,297.046,5.063
87.19,297.292,4.857
87.22,296.8,4.594
87.25,295.677,4.365
87.29,294.414,4.284
87.32,294.238,4.502
87.35,295.642,4.88
87.38,297.292,4.857
87.42,297.643,4.617
87.45,297.221,4.639
87.48,297.292,4.766
87.52,297.713,4.662
87.55,298.134,4.651
87.58,298.871,4.846
87.61,299.818,4.846
87.65,300.415,4.731
87.68,300.555,4.697
87.71,300.204,4.571
87.74,299.222,4.296
87.78,297.572,4.147
87.81,296.555,4.261
87.84,296.695,4.513
87.87,297.607,4.639
87.91,298.274,4.594
87.94,297.888,4.433
87.97,296.239,4.17
88.0,293.958,3.929
88.04,291.536,3.849
88.07,289.711,3.895
88.1,288.974,4.09
88.13,289.395,4.387
88.17,288.553,4.101
88.2,285.991,3.7
88.23,282.481,3.677
88.26,279.744,3.666
88.3,277.954,3.803
88.33,276.831,3.906
88.36,276.164,4.067
88.39,275.673,4.193
88.43,274.936,4.17
88.46,273.708,4.135
88.49,272.198,4.044
88.52,270.409,3.918
88.56,268.513,3.872
88.59,266.899,3.906
88.62,265.601,3.964
88.66,264.583,4.032
88.69,263.53,4.067
88.72,262.126,3.918
88.75,259.74,3.769
88.79,257.143,3.643
88.82,255.318,3.849
88.85,254.019,3.872
88.88,252.51,3.654
88.92,250.089,3.574
88.95,247.491,3.528
88.98,245.316,3.631
89.01,243.771,3.677
89.05,242.192,3.631
89.08,240.683,3.677
89.11,239.349,3.769
89.14,238.156,3.769
89.18,236.682,3.677
89.21,235.068,3.7
89.24,233.278,3.597
89.27,230.751,3.345
89.31,227.698,3.196
89.34,224.995,3.219
89.37,222.82,3.276
89.4,221.17,3.288
89.44,219.591,3.288
89.47,217.766,3.322
89.5,215.66,3.242
89.53,212.923,3.036
89.57,209.869,2.944
89.6,207.062,3.001
89.63,205.026,3.047
89.66,203.482,3.127
89.7,202.113,3.208
89.73,200.534,3.127
89.76,198.183,2.933
89.8,194.884,2.738
89.83,191.479,2.669
89.86,188.461,2.658
89.89,185.794,2.612
89.93,183.759,2.681
89.96,181.934,2.738
89.99,179.688,2.6
90.02,176.389,2.337
90.06,172.633,2.234
90.09,169.159,2.257
90.12,165.895,2.119
90.15,162.842,2.073
90.19,160.631,2.314
90.22,158.771,2.383
90.25,156.454,2.154
90.28,152.629,1.856
90.32,148.628,1.867
90.35,145.189,1.959
90.38,141.89,1.638
90.41,138.731,1.673
90.45,135.994,1.833
90.48,133.888,1.81
90.51,131.326,1.741
90.54,128.308,1.65
90.58,125.044,1.524
90.61,121.605,1.443
90.64,118.236,1.42
90.67,115.253,1.386
90.71,112.515,1.386
90.74,109.637,1.283
90.77,106.163,1.042
90.8,101.776,0.813
90.84,96.968,0.653
90.87,92.195,0.515
90.9,87.527,0.458
90.94,83.316,0.401
90.97,79.666,0.481
91.0,76.508,0.55
91.03,73.314,0.447
91.07,69.524,0.344
91.1,65.628,0.321
91.13,61.978,0.309
91.16,58.644,0.286
91.2,55.521,0.252
91.23,52.502,0.275
91.26,49.379,0.229
91.29,46.115,0.103
91.33,42.325,-0.057
91.36,38.464,-0.08
91.39,34.92,-0.103
91.42,31.305,-0.137
91.46,27.55,-0.206
91.49,23.619,-0.229
91.52,19.899,-0.206
91.55,16.389,-0.137
91.59,12.845,-0.172
91.62,8.879,-0.229
91.65,4.562,-0.286
91.68,0.421,-0.286
91.72,-3.264,-0.183
91.75,-6.107,-0.206
91.78,-8.633,-0.481
91.81,-11.23,-0.779
91.85,-13.617,-1.008
91.88,-15.863,-1.386
91.91,-19.022,-1.81
91.94,-23.549,-2.073
91.98,-28.743,-2.085
92.01,-33.025,-2.142
92.04,-36.71,-2.234
92.07,-40.184,-2.245
92.11,-43.694,-2.314
92.14,-47.659,-2.474
92.17,-51.73,-2.543
92.21,-55.521,-2.509
92.24,-58.89,-2.532
92.27,-62.119,-2.6
92.3,-65.417,-2.681
92.34,-68.787,-2.715
92.37,-72.296,-2.795
92.4,-75.63,-2.818
92.43,-78.754,-2.841
92.47,-81.737,-2.875
92.5,-84.966,-3.013
92.53,-88.58,-3.139
92.56,-92.336,-3.23
92.6,-96.021,-3.311
92.63,-99.6,-3.356
92.66,-102.899,-3.345
92.69,-105.777,-3.345
92.73,-108.655,-3.402
92.76,-111.989,-3.574
92.79,-115.884,-3.723
92.82,-119.885,-3.769
92.86,-123.676,-3.838
92.89,-126.834,-3.861
92.92,-129.712,-3.838
92.95,-132.66,-3.861
92.99,-135.783,-3.975
93.02,-139.398,-4.09
93.05,-143.434,-4.25
93.08,-147.54,-4.399
93.12,-151.085,-4.204
93.15,-154.138,-4.296
93.18,-156.384,-4.147
93.21,-158.49,-4.055
93.25,-161.403,-4.376
93.28,-165.123,-4.525
93.31,-168.527,-4.376
93.35,-171.265,-4.365
93.38,-173.932,-4.571
93.41,-176.74,-4.571
93.44,-179.372,-4.445
93.48,-181.688,-4.456
93.51,-184.004,-4.513
93.54,-186.636,-4.582
93.57,-190.005,-4.743
93.61,-193.726,-4.88
93.64,-197.305,-4.937
93.67,-200.218,-4.846
93.7,-202.394,-4.766
93.74,-204.114,-4.674
93.77,-205.658,-4.605
93.8,-207.202,-4.559
93.83,-209.167,-4.662
93.87,-211.765,-4.811
93.9,-214.326,-4.8
93.93,-216.362,-4.674
93.96,-217.555,-4.628
94.0,-218.503,-4.605
94.03,-219.661,-4.617
94.06,-221.591,-4.743
94.09,-224.258,-4.96
94.13,-227.838,-5.247
94.16,-231.277,-5.235
94.19,-233.138,-4.926
94.22,-233.875,-4.857
94.26,-234.822,-4.892
94.29,-236.472,-4.914
94.32,-238.788,-4.96
94.35,-241.455,-5.144
94.39,-243.771,-5.075
94.42,-245.912,-5.132
94.45,-248.369,-5.338
94.49,-250.334,-5.121
94.52,-251.176,-4.846
94.55,-251.949,-4.914
94.58,-253.598,-5.086
94.62,-255.739,-5.086
94.65,-257.915,-5.121
94.68,-260.231,-5.27
94.71,-262.267,-5.235
94.75,-263.635,-5.04
94.78,-264.653,-4.995
94.81,-266.022,-5.098
94.84,-267.917,-5.155
94.88,-270.093,-5.212
94.91,-272.198,-5.258
94.94,-274.094,-5.235
94.97,-275.392,-5.075
95.01,-275.813,-4.88
95.04,-276.024,-4.846
95.07,-276.761,-4.88
95.1,-277.884,-4.869
95.14,-279.218,-4.983
95.17,-280.972,-5.121
95.2,-282.903,-5.178
95.23,-284.447,-5.121
95.27,-285.5,-5.04
95.3,-286.307,-4.995
95.33,-287.149,-4.972
95.36,-288.026,-4.926
95.4,-289.185,-5.029
95.43,-290.659,-5.086
95.46,-292.133,-5.052
95.49,-293.08,-4.983
95.53,-293.677,-4.926
95.56,-293.993,-4.8
95.59,-293.993,-4.639
95.63,-293.747,-4.605
95.66,-294.379,-4.846
95.69,-295.432,-4.903
95.72,-296.239,-4.766
95.76,-296.449,-4.777
95.79,-297.327,-4.96
95.82,-298.134,-4.926
95.85,-298.099,-4.536
95.89,-297.572,-4.559
95.92,-298.204,-4.914
95.95,-299.362,-4.846
95.98,-299.643,-4.525
96.02,-299.327,-4.628
96.05,-299.011,-4.582
96.08,-298.239,-4.296
96.11,-296.519,-4.124
96.15,-295.432,-4.296
96.18,-295.537,-4.513
96.21,-296.169,-4.559
96.24,-296.344,-4.502
96.28,-295.712,-4.399
96.31,-294.133,-4.204
96.34,-292.133,-4.021
96.37,-290.237,-3.987
96.41,-289.009,-4.09
96.44,-288.658,-4.284
96.47,-288.763,-4.342
96.5,-288.026,-4.284
96.54,-286.728,-4.17
96.57,-284.727,-3.941
96.6,-282.236,-3.803
96.63,-279.919,-3.826
96.67,-278.445,-3.941
96.7,-277.814,-4.113
96.73,-277.428,-4.181
96.77,-276.62,-4.181
96.8,-275.287,-4.101
96.83,-273.146,-3.895
96.86,-270.549,-3.746
96.9,-268.268,-3.757
96.93,-266.618,-3.838
96.96,-265.355,-3.895
96.99,-264.302,-3.918
97.03,-263.179,-3.952
97.06,-261.67,-3.918
97.09,-259.283,-3.735
97.12,-256.511,-3.528
97.16,-254.581,-3.838
97.19,-253.703,-3.952
97.22,-252.686,-3.689
97.25,-250.229,-3.551
97.29,-247.597,-3.563
97.32,-245.421,-3.62
97.35,-243.771,-3.631
97.38,-241.911,-3.551
97.42,-239.771,-3.471
97.45,-238.226,-3.712
97.48,-237.384,-3.849
97.51,-236.366,-3.643
97.55,-234.331,-3.528
97.58,-232.05,-3.54
97.61,-229.382,-3.311
97.64,-226.399,-3.082
97.68,-223.592,-3.23
97.71,-221.802,-3.356
97.74,-220.293,-3.322
97.77,-218.678,-3.368
97.81,-217.099,-3.414
97.84,-215.45,-3.345
97.87,-212.923,-3.127
97.9,-209.975,-3.024
97.94,-207.343,-3.047
97.97,-205.307,-3.082
98.0,-203.728,-3.116
98.04,-202.324,-3.162
98.07,-200.604,-3.116
98.1,-198.253,-2.967
98.13,-195.164,-2.761
98.17,-191.866,-2.635
98.2,-188.777,-2.589
98.23,-186.005,-2.543
98.26,-183.653,-2.6
98.3,-181.688,-2.738
98.33,-179.512,-2.555
98.36,-176.213,-2.348
98.39,-172.493,-2.234
98.43,-168.948,-2.188
98.46,-165.755,-2.165
98.49,-162.701,-2.073
98.52,-160.35,-2.211
98.56,-158.49,-2.429
98.59,-155.402,-1.844
98.62,-151.682,-1.81
98.65,-147.891,-2.005
98.69,-145.154,-1.821
98.72,-142.487,-1.879
98.75,-139.363,-1.661
98.78,-135.959,-1.615
98.82,-132.906,-1.741
98.85,-130.203,-1.627
98.88,-127.22,-1.524
98.91,-123.991,-1.478
98.95,-120.587,-1.386
98.98,-117.323,-1.317
99.01,-114.2,-1.34
99.04,-111.497,-1.294
99.08,-108.444,-1.18
99.11,-105.005,-1.008
99.14,-101.039,-0.848
99.18,-96.547,-0.653
99.21,-91.774,-0.47
99.24,-87.106,-0.378
99.27,-82.895,-0.389
99.31,-79.14,-0.401
99.34,-75.735,-0.378
99.37,-72.401,-0.378
99.4,-69.032,-0.378
99.44,-65.698,-0.298
99.47,-62.259,-0.241
99.5,-58.749,-0.195
99.53,-55.345,-0.16
99.57,-52.081,-0.137
99.6,-48.782,-0.046
99.63,-45.273,0.069
99.66,-41.553,0.137
99.7,-37.798,0.183
99.73,-34.534,0.195
99.76,-31.129,0.241
99.79,-27.69,0.309
99.83,-23.9,0.412
99.86,-19.829,0.481
99.89,-15.828,0.538
99.92,-11.757,0.504
99.96,-7.756,0.584
99.99,-3.474,0.619
100.02,0.351,0.424
100.05,3.51,0.367
100.09,6.177,0.538
100.12,8.984,0.825
100.15,11.792,1.077
100.18,14.459,1.363
100.22,17.548,1.867
100.25,22.11,2.257
100.28,27.129,2.314
100.32,31.445,2.314
100.35,35.06,2.337
100.38,38.394,2.291
100.41,41.518,2.245
100.45,44.887,2.291
100.48,48.466,2.394
100.51,51.976,2.429
100.54,55.24,2.44
100.58,58.504,2.474
100.61,61.662,2.532
100.64,64.891,2.612
100.67,68.33,2.692
100.71,71.84,2.772
100.74,75.42,2.864
100.77,78.964,2.91
100.8,82.053,2.921
100.84,85.246,3.047
100.87,89.037,3.242
100.9,93.143,3.334
100.93,97.038,3.356
100.97,100.548,3.379
101.0,103.777,3.391
101.03,106.689,3.437
101.06,109.708,3.482
101.1,113.112,3.563
101.13,116.692,3.7
101.16,120.201,3.7
101.19,123.535,3.735
101.23,126.624,3.792
101.26,129.501,3.78
101.29,132.344,3.792
101.32,135.292,3.883
101.36,138.521,3.975
101.39,141.89,4.09
101.42,145.61,4.193
101.46,150.278,4.594
101.49,154.279,4.399
101.52,157.051,4.124
101.55,159.227,4.33
101.59,162.315,4.445
101.62,165.404,4.376
101.65,168.282,4.296
101.68,171.054,4.433
101.72,173.686,4.399
101.75,175.897,4.284
101.78,178.003,4.33
101.81,180.319,4.41
101.85,182.811,4.399
101.88,185.583,4.536
101.91,188.953,4.777
101.94,192.673,4.869
101.98,196.147,4.846
102.01,199.13,4.834
102.04,201.482,4.777
102.07,203.342,4.674
102.11,205.237,4.651
102.14,207.343,4.697
102.17,209.764,4.777
102.2,212.291,4.754
102.24,214.362,4.697
102.27,216.116,4.697
102.3,217.661,4.639
102.33,218.889,4.559
102.37,220.363,4.651
102.4,222.539,4.8
102.43,225.311,4.96
102.46,227.838,4.937
102.5,230.084,4.926
102.53,232.471,5.144
102.56,234.787,5.04
102.6,236.401,4.834
102.63,237.665,4.869
102.66,239.665,5.086
102.69,241.982,5.029
102.73,244.263,5.029
102.76,246.123,5.063
102.79,247.702,4.972
102.82,248.93,4.903
102.86,250.194,4.914
102.89,251.949,5.04
102.92,254.195,5.098
102.95,256.406,5.121
102.99,258.582,5.144
103.02,260.301,5.144
103.05,261.88,5.121
103.08,263.109,5.029
103.12,264.267,4.96
103.15,265.881,5.075
103.18,268.057,5.201
103.21,270.409,5.224
103.25,272.374,5.212
103.28,274.199,5.189
103.31,275.533,5.086
103.34,275.883,4.811
103.38,275.708,4.639
103.41,275.954,4.731
103.44,277.252,4.914
103.47,278.972,4.983
103.51,280.902,5.075
103.54,283.008,5.292
103.57,285.149,5.315
103.6,286.763,5.155
103.64,287.886,5.086
103.67,289.009,5.109
103.7,290.343,5.075
103.73,291.676,5.029
103.77,293.08,5.052
103.8,294.273,4.995
103.83,294.975,4.88
103.87,295.151,4.754
103.9,294.975,4.594
103.93,294.414,4.445
103.96,293.712,4.376
104.0,293.782,4.605
104.03,294.975,4.834
104.06,297.467,5.132
104.09,301.152,5.602
104.13,305.469,5.808
104.16,309.645,5.888
104.19,313.541,5.968
104.22,316.664,5.751
104.26,318.279,5.304
104.29,317.787,4.754
104.32,314.874,3.929
104.35,310.277,3.322
104.39,305.539,3.116
104.42,302.135,3.219
104.45,300.415,3.505
104.48,300.099,3.883
104.52,300.661,4.239
104.55,301.222,4.399
104.58,300.766,4.307
104.61,298.906,4.067
104.65,296.204,3.838
104.68,293.677,3.792
104.71,291.922,3.849
104.74,290.869,3.987
104.78,290.518,4.147
104.81,290.202,4.261
104.84,289.185,4.078
104.87,286.482,3.746
104.91,283.043,3.574
104.94,280.06,3.586
104.97,277.954,3.7
105.01,277.042,3.906
105.04,277.007,4.147
105.07,277.007,4.261
105.1,275.954,4.113
105.14,273.743,3.872
105.17,270.865,3.769
105.2,268.443,3.757
105.23,266.689,3.792
105.27,265.636,3.918
105.3,264.793,3.998
105.33,263.811,3.987
105.36,262.442,3.975
105.4,260.652,3.883
105.43,258.476,3.757
105.46,256.195,3.666
105.49,254.3,3.735
105.53,253.036,3.849
105.56,251.913,3.861
105.59,250.685,3.838
105.62,249.457,3.895
105.66,247.842,3.769
105.69,245.351,3.528
105.72,242.403,3.391
105.75,239.806,3.437
105.79,237.875,3.586
105.82,236.436,3.54
105.85,234.892,3.551
105.88,232.751,3.482
105.92,230.19,3.311
105.95,227.242,3.253
105.98,224.925,3.334
106.01,223.346,3.448
106.05,222.047,3.437
106.08,220.609,3.46
106.11,219.135,3.494
106.15,217.239,3.334
106.18,214.713,3.15
106.21,211.659,3.047
106.24,208.957,3.001
106.28,206.746,3.059
106.31,205.061,3.127
106.34,203.903,3.196
106.37,202.64,3.219
106.41,200.499,3.036
106.44,197.2,2.715
106.47,193.48,2.612
106.5,190.356,2.715
106.54,182.881,1.306
106.57,167.545,-1.134
106.6,151.892,-0.71
106.63,146.031,1.615
106.67,150.664,3.013
106.7,158.665,3.757
106.73,163.684,3.906
106.76,163.684,3.494
106.8,161.227,3.448
106.83,159.894,3.643
106.86,160.069,3.402
106.89,159.122,2.818
106.93,156.068,2.337
106.96,151.857,2.073
106.99,147.646,1.879
107.02,143.399,1.65
107.06,139.398,1.512
107.09,136.169,1.65
107.12,134.134,1.879
107.15,132.695,1.902
107.19,130.94,1.89
107.22,128.624,1.89
107.25,125.711,1.73
107.29,122.166,1.443
107.32,118.341,1.363
107.35,115.288,1.409
107.38,112.796,1.409
107.42,110.304,1.294
107.45,107.181,1.168
107.48,103.461,1.031
107.51,99.284,0.779
107.55,94.371,0.515
107.58,89.493,0.435
107.61,85.352,0.481
107.64,81.912,0.504
107.68,78.613,0.435
107.71,74.893,0.401
107.74,71.033,0.344
107.77,67.137,0.275
107.81,63.171,0.195
107.84,59.592,0.218
107.87,56.433,0.275
107.9,53.52,0.275
107.94,50.502,0.206
107.97,47.273,0.172
108.0,43.904,0.069
108.03,40.289,-0.092
108.07,35.973,-0.263
108.1,31.656,-0.298
108.13,27.725,-0.206
108.16,24.181,-0.183
108.2,20.741,-0.183
108.23,17.302,-0.115
108.26,13.898,-0.126
108.29,10.318,-0.16
108.33,6.598,-0.126
108.36,3.088,-0.137
108.39,-0.421,-0.195
108.43,-4.001,-0.252
108.46,-7.581,-0.493
108.49,-11.266,-0.825
108.52,-14.775,-1.077
108.56,-18.074,-1.478
108.59,-21.759,-2.005
108.62,-26.111,-2.108
108.65,-30.638,-2.154
108.69,-34.99,-2.245
108.72,-38.815,-2.268
108.75,-42.22,-2.165
108.78,-45.168,-2.199
108.82,-48.396,-2.325
108.85,-51.941,-2.314
108.88,-55.099,-2.291
108.91,-58.083,-2.406
108.95,-61.241,-2.451
108.98,-64.435,-2.509
109.01,-67.804,-2.6
109.04,-71.208,-2.726
109.08,-74.823,-2.83
109.11,-78.157,-2.807
109.14,-81.21,-2.818
109.17,-84.299,-2.933
109.21,-87.808,-3.104
109.24,-91.879,-3.242
109.27,-95.775,-3.322
109.3,-99.355,-3.311
109.34,-102.408,-3.299
109.37,-105.286,-3.356
109.4,-108.339,-3.402
109.43,-111.568,-3.471
109.47,-115.042,-3.551
109.5,-118.517,-3.643
109.53,-122.166,-3.792
109.56,-125.641,-3.803
109.6,-128.589,-3.769
109.63,-131.537,-3.861
109.66,-134.836,-3.941
109.7,-138.17,-3.987
109.73,-141.679,-4.09
109.76,-145.435,-4.216
109.79,-149.26,-4.307
109.83,-152.489,-4.239
109.86,-155.226,-4.17
109.89,-158.104,-4.307
109.92,-161.368,-4.387
109.96,-164.491,-4.342
109.99,-167.615,-4.422
110.02,-170.808,-4.582
110.05,-174.142,-4.559
110.09,-176.775,-4.456
110.12,-179.091,-4.422
110.15,-181.337,-4.399
110.18,-183.443,-4.387
110.22,-185.864,-4.502
110.25,-189.058,-4.72
110.28,-192.778,-4.846
110.31,-196.358,-4.88
110.35,-199.306,-4.823
110.38,-201.692,-4.731
110.41,-203.587,-4.662
110.44,-205.237,-4.639
110.48,-207.027,-4.594
110.51,-209.238,-4.674
110.54,-211.765,-4.788
110.57,-214.256,-4.766
110.61,-216.081,-4.651
110.64,-217.345,-4.639
110.67,-218.608,-4.639
110.7,-220.152,-4.639
110.74,-222.223,-4.731
110.77,-224.785,-4.88
110.8,-227.592,-5.029
110.84,-230.4,-5.132
110.87,-232.787,-5.052
110.9,-234.506,-4.949
110.93,-235.699,-4.88
110.97,-237.279,-4.903
111.0,-239.49,-5.04
111.03,-242.297,-5.155
111.06,-245.035,-5.178
111.1,-247.316,-5.132
111.13,-248.965,-5.109
111.16,-250.58,-5.029
111.19,-252.089,-5.063
111.23,-253.633,-5.006
111.26,-255.353,-5.006
111.29,-257.248,-5.132
111.32,-259.178,-5.155
111.36,-260.898,-5.075
111.39,-262.302,-5.063
111.42,-263.425,-5.052
111.45,-264.407,-4.846
111.49,-265.671,-4.972
111.52,-267.776,-5.178
111.55,-270.093,-5.121
111.58,-271.532,-5.029
111.62,-272.339,-4.96
111.65,-273.111,-4.972
111.68,-274.094,-4.96
111.71,-275.252,-4.937
111.75,-276.55,-5.006
111.78,-278.27,-5.132
111.81,-280.305,-5.27
111.84,-282.411,-5.258
111.88,-284.201,-5.201
111.91,-285.359,-5.144
111.94,-286.061,-4.972
111.98,-286.447,-4.869
112.01,-287.079,-4.903
112.04,-287.956,-4.857
112.07,-289.044,-4.903
112.11,-290.483,-5.075
112.14,-292.062,-5.075
112.17,-293.045,-4.937
112.2,-293.571,-4.914
112.24,-293.466,-4.708
112.27,-293.08,-4.525
112.3,-293.045,-4.731
112.33,-293.958,-4.869
112.37,-295.045,-4.834
112.4,-295.747,-4.823
112.43,-296.414,-4.914
112.46,-297.397,-4.926
112.5,-298.204,-4.88
112.53,-298.625,-4.777
112.56,-298.485,-4.605
112.59,-298.485,-4.628
112.63,-298.976,-4.766
112.66,-299.362,-4.605
112.69,-299.117,-4.433
112.72,-298.169,-4.41
112.76,-296.976,-4.307
112.79,-295.642,-4.135
112.82,-294.659,-4.239
112.85,-294.765,-4.548
112.89,-295.782,-4.685
112.92,-296.379,-4.582
112.95,-295.853,-4.456
112.98,-294.379,-4.284
113.02,-292.378,-4.055
113.05,-290.308,-4.009
113.08,-289.114,-4.124
113.12,-288.693,-4.284
113.15,-288.728,-4.365
113.18,-288.342,-4.261
113.21,-286.833,-4.135
113.25,-284.517,-3.941
113.28,-281.85,-3.792
113.31,-279.604,-3.792
113.34,-278.2,-3.952
113.38,-277.814,-4.147
113.41,-277.498,-4.239
113.44,-276.831,-4.216
113.47,-275.638,-4.181
113.51,-273.883,-3.975
113.54,-271.251,-3.723
113.57,-268.654,-3.712
113.6,-266.689,-3.815
113.64,-265.425,-3.883
113.67,-264.407,-3.906
113.7,-263.354,-3.998
113.73,-262.267,-4.044
113.77,-260.301,-3.838
113.8,-257.915,-3.608
113.83,-255.318,-3.666
113.86,-253.563,-3.792
113.9,-252.089,-3.746
113.93,-250.299,-3.689
113.96,-248.299,-3.712
113.99,-246.404,-3.654
114.03,-243.912,-3.471
114.06,-240.858,-3.276
114.09,-238.016,-3.356
114.12,-236.577,-3.666
114.16,-235.489,-3.677
114.19,-233.699,-3.368
114.22,-231.874,-3.654
114.26,-230.891,-3.941
114.29,-229.698,-3.563
114.32,-226.961,-3.253
114.35,-224.223,-3.494
114.39,-222.539,-3.574
114.42,-221.135,-3.368
114.45,-219.345,-3.391
114.48,-217.59,-3.471
114.52,-215.695,-3.334
114.55,-212.993,-3.093
114.58,-209.94,-2.967
114.61,-207.132,-3.013
114.65,-205.026,-3.093
114.68,-203.622,-3.219
114.71,-202.534,-3.219
114.74,-200.78,-3.127
114.78,-198.183,-3.001
114.81,-194.954,-2.761
114.84,-191.304,-2.589
114.87,-187.935,-2.566
114.91,-185.233,-2.566
114.94,-183.092,-2.623
114.97,-181.161,-2.692
115.0,-178.986,-2.6
115.04,-176.073,-2.406
115.07,-172.633,-2.325
115.1,-169.334,-2.325
115.13,-166.422,-2.268
115.17,-163.263,-2.154
115.2,-160.841,-2.268
115.23,-158.876,-2.474
115.26,-156.244,-2.073
115.3,-152.594,-1.89
115.33,-148.734,-1.947
115.36,-145.505,-1.913
115.39,-142.522,-1.833
115.43,-139.644,-1.787
115.46,-136.766,-1.753
115.49,-133.923,-1.741
115.53,-131.081,-1.695
115.56,-128.098,-1.604
115.59,-124.693,-1.466
115.62,-121.043,-1.317
115.66,-117.288,-1.249
115.69,-113.989,-1.283
115.72,-111.252,-1.306
115.75,-108.585,-1.249
115.79,-105.391,-1.054
115.82,-101.32,-0.836
115.85,-96.617,-0.642
115.88,-91.704,-0.55
115.92,-87.106,-0.447
115.95,-83.07,-0.401
115.98,-79.456,-0.412
116.01,-76.192,-0.412
116.05,-72.787,-0.378
116.08,-69.278,-0.378
116.11,-65.558,-0.286
116.14,-61.627,-0.115
116.18,-57.556,-0.057
116.21,-54.257,-0.172
116.24,-51.52,-0.252
116.27,-48.712,-0.137
116.31,-45.448,0.023
116.34,-41.869,0.034
116.37,-38.148,0.092
116.4,-34.709,0.183
116.44,-31.445,0.172
116.47,-28.392,0.172
116.5,-25.198,0.229
116.53,-21.619,0.378
116.57,-17.477,0.481
116.6,-13.196,0.619
116.63,-8.563,0.687
116.67,-3.896,0.653
116.7,0.491,0.584
