Trigger_Date,2023/06/19
Trigger_Time,T 15:59:08.433 PDT
Samples_Per_Cycle,512
Microseconds_Per_Sample,32.535
Time (ms),Voltage (V),Current (A)
-16.66,11.301,0.63
-16.63,17.302,0.676
-16.59,12.985,1.867
-16.56,12.003,2.142
-16.53,18.951,2.36
-16.5,23.619,2.051
-16.46,26.918,0.962
-16.43,28.497,1.042
-16.4,30.919,1.466
-16.37,34.253,2.142
-16.33,38.78,2.726
-16.3,43.343,2.944
-16.27,47.554,2.944
-16.24,50.783,2.864
-16.2,53.52,2.772
-16.17,56.117,2.978
-16.14,59.065,3.253
-16.1,62.294,3.482
-16.07,65.698,3.746
-16.04,69.243,3.987
-16.01,72.682,4.044
-15.97,75.911,4.181
-15.94,79.105,4.41
-15.91,82.263,4.571
-15.88,85.246,4.811
-15.84,88.089,5.109
-15.81,91.037,5.361
-15.78,93.88,5.499
-15.75,96.758,5.716
-15.71,99.706,5.991
-15.68,102.689,6.22
-15.65,105.672,6.553
-15.62,108.69,6.816
-15.58,111.743,7.068
-15.55,114.867,7.515
-15.52,117.92,7.778
-15.49,120.657,7.985
-15.45,123.43,8.305
-15.42,126.343,8.66
-15.39,129.431,8.935
-15.36,132.555,9.233
-15.32,135.854,9.68
-15.29,138.907,9.875
-15.26,141.82,10.173
-15.23,144.662,10.631
-15.19,147.751,10.94
-15.16,150.699,11.272
-15.13,153.542,11.513
-15.1,156.174,11.788
-15.06,158.981,12.189
-15.03,162.035,12.441
-15.0,164.912,12.578
-14.97,167.509,12.761
-14.93,170.142,13.025
-14.9,172.774,13.311
-14.87,175.722,13.678
-14.84,178.775,14.01
-14.8,181.618,14.193
-14.77,184.46,14.663
-14.74,187.268,14.995
-14.71,190.005,15.213
-14.67,192.638,15.568
-14.64,195.34,15.832
-14.61,197.691,16.038
-14.58,200.008,16.244
-14.54,202.359,16.359
-14.51,204.781,16.565
-14.48,207.448,16.748
-14.45,209.94,17.011
-14.41,212.221,17.206
-14.38,214.467,17.412
-14.35,216.748,17.664
-14.32,218.889,17.756
-14.28,220.749,17.985
-14.25,222.644,18.123
-14.22,224.644,18.077
-14.19,226.505,18.042
-14.15,228.084,18.008
-14.12,229.558,18.02
-14.09,231.313,18.111
-14.06,233.067,18.157
-14.02,234.647,18.146
-13.99,235.98,18.214
-13.96,237.209,18.237
-13.93,238.472,18.226
-13.89,239.806,18.295
-13.86,241.385,18.466
-13.83,242.999,18.547
-13.79,244.403,18.673
-13.76,245.596,18.867
-13.73,246.825,18.982
-13.7,247.948,19.073
-13.66,249.246,19.337
-13.63,250.826,19.578
-13.6,252.335,19.646
-13.57,253.598,19.99
-13.53,255.002,20.368
-13.5,256.441,20.505
-13.47,257.809,20.78
-13.44,258.827,20.849
-13.4,259.634,20.929
-13.37,260.687,21.216
-13.34,261.916,21.204
-13.31,263.284,21.319
-13.27,264.653,21.536
-13.24,265.811,21.72
-13.21,266.653,21.983
-13.18,267.426,22.109
-13.14,268.338,22.292
-13.11,269.531,22.453
-13.08,270.83,22.613
-13.05,271.953,22.911
-13.01,273.041,23.163
-12.98,273.988,23.427
-12.95,274.725,23.621
-12.92,275.287,23.587
-12.88,276.024,23.667
-12.85,276.866,23.747
-12.82,277.568,23.724
-12.79,278.235,23.965
-12.75,279.077,24.045
-12.72,279.674,23.988
-12.69,279.919,24.125
-12.66,280.27,24.171
-12.62,280.762,24.251
-12.59,281.183,24.354
-12.56,281.499,24.32
-12.53,281.955,24.515
-12.49,282.481,24.515
-12.46,282.622,24.435
-12.43,282.692,24.549
-12.4,282.797,24.481
-12.36,282.446,24.343
-12.33,280.095,23.175
-12.3,275.111,21.181
-12.27,271.005,20.219
-12.23,270.198,19.784
-12.2,269.707,18.478
-12.17,266.934,17.309
-12.14,263.425,17.115
-12.1,261.74,17.298
-12.07,261.53,17.504
-12.04,261.354,17.745
-12.01,260.828,18.226
-11.97,260.442,18.856
-11.94,260.371,19.474
-11.91,260.442,20.082
-11.88,260.196,20.563
-11.84,259.529,21.009
-11.81,258.897,21.433
-11.78,258.687,21.8
-11.75,258.722,22.075
-11.71,258.476,22.235
-11.68,257.985,22.361
-11.65,257.283,22.522
-11.62,256.616,22.59
-11.58,255.809,22.579
-11.55,255.072,22.751
-11.52,254.335,22.819
-11.48,253.247,22.671
-11.45,252.124,22.671
-11.42,251.176,22.556
-11.39,250.159,22.327
-11.35,248.93,22.292
-11.32,247.456,21.96
-11.29,245.772,21.766
-11.26,244.684,21.903
-11.22,243.42,21.514
-11.19,241.771,21.239
-11.16,240.192,21.204
-11.13,238.788,21.101
-11.09,237.173,20.929
-11.06,235.384,20.689
-11.03,233.699,20.643
-11.0,232.26,20.46
-10.96,230.576,20.253
-10.93,228.54,20.116
-10.9,226.469,19.875
-10.87,224.75,19.749
-10.83,222.96,19.429
-10.8,220.679,19.039
-10.77,218.292,18.879
-10.74,216.257,18.718
-10.7,214.326,18.466
-10.67,212.221,18.283
-10.64,210.185,18.077
-10.61,207.869,17.974
-10.57,205.447,17.756
-10.54,202.991,17.435
-10.51,200.885,17.332
-10.48,198.955,17.183
-10.44,196.744,16.908
-10.41,194.392,16.885
-10.38,192.357,16.897
-10.35,190.356,16.714
-10.31,187.865,16.496
-10.28,185.338,16.45
-10.25,182.951,16.255
-10.22,180.635,16.141
-10.18,178.354,16.038
-10.15,176.108,15.74
-10.12,173.756,15.683
-10.09,171.475,15.454
-10.05,168.983,15.19
-10.02,166.351,15.11
-9.99,163.684,14.789
-9.96,161.017,14.56
-9.92,158.595,14.319
-9.89,156.104,13.987
-9.86,153.436,13.907
-9.83,150.594,13.598
-9.79,147.575,13.288
-9.76,144.662,13.071
-9.73,141.82,12.704
-9.7,138.872,12.326
-9.66,135.643,11.994
-9.63,132.52,11.57
-9.6,129.536,11.341
-9.57,126.588,11.009
-9.53,123.5,10.688
-9.5,120.306,10.413
-9.47,117.113,10.035
-9.44,113.954,9.737
-9.4,110.76,9.439
-9.37,107.497,9.073
-9.34,103.952,8.763
-9.31,100.478,8.534
-9.27,97.354,8.145
-9.24,94.02,7.652
-9.21,90.44,7.309
-9.17,86.931,6.954
-9.14,83.492,6.495
-9.11,79.982,6.22
-9.08,76.472,5.968
-9.04,72.963,5.579
-9.01,69.489,5.384
-8.98,66.154,5.247
-8.95,62.961,4.88
-8.91,59.697,4.605
-8.88,56.328,4.399
-8.85,52.924,4.124
-8.82,49.554,4.021
-8.78,46.361,3.803
-8.75,43.062,3.517
-8.72,39.517,3.322
-8.69,38.219,3.322
-8.65,42.395,2.154
-8.62,45.554,-0.493
-8.59,37.762,-1.42
-8.56,29.41,-0.745
-8.52,26.672,-0.263
-8.49,24.216,-0.619
-8.46,16.635,-1.398
-8.43,4.597,-1.604
-8.39,-5.615,-1.031
-8.36,-10.388,-0.458
-8.33,-13.863,-0.642
-8.3,-17.583,-0.481
-8.26,-12.669,-0.871
-8.23,-13.477,-2.199
-8.2,-19.337,-2.062
-8.17,-22.812,-1.054
-8.13,-24.812,-0.745
-8.1,-26.286,-0.813
-8.07,-28.603,-1.249
-8.04,-32.253,-1.982
-8.0,-36.955,-2.474
-7.97,-41.798,-2.726
-7.94,-46.291,-2.83
-7.91,-49.905,-2.749
-7.87,-53.064,-2.772
-7.84,-56.152,-3.036
-7.81,-59.346,-3.276
-7.78,-62.785,-3.54
-7.74,-66.33,-3.792
-7.71,-69.699,-3.872
-7.68,-72.787,-3.941
-7.65,-75.841,-4.147
-7.61,-78.859,-4.376
-7.58,-81.842,-4.456
-7.55,-84.685,-4.697
-7.52,-87.878,-4.972
-7.48,-91.002,-5.155
-7.45,-93.704,-5.247
-7.42,-96.371,-5.499
-7.39,-99.249,-5.865
-7.35,-102.232,-6.094
-7.32,-105.251,-6.369
-7.29,-108.304,-6.713
-7.26,-111.322,-7.045
-7.22,-114.375,-7.251
-7.19,-117.499,-7.515
-7.16,-120.447,-7.79
-7.13,-123.149,-8.111
-7.09,-125.816,-8.489
-7.06,-128.659,-8.752
-7.03,-131.783,-9.073
-7.0,-135.011,-9.394
-6.96,-138.065,-9.588
-6.93,-140.942,-9.909
-6.9,-143.961,-10.31
-6.86,-146.873,-10.562
-6.83,-149.786,-10.952
-6.8,-152.769,-11.318
-6.77,-155.717,-11.673
-6.73,-158.736,-12.097
-6.7,-161.754,-12.326
-6.67,-164.632,-12.681
-6.64,-167.369,-12.968
-6.6,-170.107,-13.105
-6.57,-172.879,-13.506
-6.54,-175.897,-13.758
-6.51,-178.81,-13.999
-6.47,-181.723,-14.388
-6.44,-184.39,-14.468
-6.41,-186.882,-14.789
-6.38,-189.374,-15.11
-6.34,-191.725,-15.167
-6.31,-194.077,-15.454
-6.28,-196.674,-15.637
-6.25,-198.99,-15.625
-6.21,-201.025,-15.763
-6.18,-203.061,-15.946
-6.15,-205.167,-16.118
-6.12,-207.272,-16.118
-6.08,-209.273,-16.095
-6.05,-211.098,-16.175
-6.02,-212.993,-16.221
-5.99,-214.993,-16.473
-5.95,-216.924,-16.599
-5.92,-218.678,-16.656
-5.89,-220.468,-16.885
-5.86,-222.258,-17.011
-5.82,-224.048,-17.172
-5.79,-225.943,-17.447
-5.76,-227.663,-17.47
-5.73,-229.137,-17.481
-5.69,-230.786,-17.676
-5.66,-232.471,-17.71
-5.63,-233.769,-17.79
-5.6,-235.068,-18.1
-5.56,-236.507,-18.249
-5.53,-238.086,-18.352
-5.5,-239.981,-18.673
-5.47,-241.56,-18.753
-5.43,-242.894,-18.913
-5.4,-244.368,-19.257
-5.37,-245.772,-19.303
-5.34,-246.895,-19.394
-5.3,-248.193,-19.704
-5.27,-249.702,-19.864
-5.24,-251.106,-19.944
-5.21,-252.475,-20.208
-5.17,-253.879,-20.437
-5.14,-255.177,-20.677
-5.11,-256.371,-20.941
-5.08,-257.634,-21.055
-5.04,-258.897,-21.147
-5.01,-260.056,-21.261
-4.98,-261.108,-21.296
-4.95,-262.091,-21.479
-4.91,-263.284,-21.788
-4.88,-264.513,-21.995
-4.85,-265.565,-22.201
-4.82,-266.548,-22.361
-4.78,-267.566,-22.567
-4.75,-268.759,-22.785
-4.72,-269.882,-22.98
-4.69,-270.935,-23.266
-4.65,-271.988,-23.472
-4.62,-272.935,-23.621
-4.59,-273.672,-23.656
-4.55,-274.374,-23.793
-4.52,-275.111,-23.931
-4.49,-275.848,-23.954
-4.46,-276.585,-24.034
-4.42,-277.428,-24.034
-4.39,-278.2,-24.16
-4.36,-278.621,-24.263
-4.33,-278.937,-24.332
-4.29,-279.568,-24.526
-4.26,-280.095,-24.4
-4.23,-280.235,-24.389
-4.2,-280.621,-24.538
-4.16,-281.113,-24.549
-4.13,-281.534,-24.595
-4.1,-281.534,-24.526
-4.07,-281.464,-24.412
-4.03,-281.358,-24.412
-4.0,-281.078,-24.24
-3.97,-280.727,-24.102
-3.94,-280.797,-24.137
-3.9,-280.937,-24.022
-3.87,-280.516,-23.85
-3.84,-279.814,-23.885
-3.81,-279.253,-23.702
-3.77,-278.726,-23.438
-3.74,-278.059,-23.392
-3.71,-277.217,-23.232
-3.68,-276.375,-23.175
-3.64,-275.673,-23.037
-3.61,-274.901,-22.877
-3.58,-273.848,-22.739
-3.55,-272.655,-22.464
-3.51,-271.426,-22.247
-3.48,-270.128,-22.018
-3.45,-268.864,-21.743
-3.42,-267.706,-21.605
-3.38,-266.548,-21.525
-3.35,-265.109,-21.273
-3.32,-263.635,-21.193
-3.29,-262.302,-21.032
-3.25,-260.793,-20.746
-3.22,-259.213,-20.654
-3.19,-257.599,-20.494
-3.16,-256.16,-20.345
-3.12,-254.51,-20.242
-3.09,-252.791,-20.07
-3.06,-251.247,-19.898
-3.03,-249.457,-19.692
-2.99,-247.491,-19.543
-2.96,-245.737,-19.543
-2.93,-244.017,-19.371
-2.9,-242.297,-19.188
-2.86,-240.402,-19.165
-2.83,-238.647,-19.073
-2.8,-236.823,-19.016
-2.77,-234.998,-18.89
-2.73,-233.067,-18.81
-2.7,-231.277,-18.821
-2.67,-229.488,-18.684
-2.64,-227.487,-18.443
-2.6,-225.241,-18.352
-2.57,-223.241,-18.363
-2.54,-221.381,-18.18
-2.51,-219.415,-18.042
-2.47,-217.204,-18.008
-2.44,-215.099,-17.905
-2.41,-213.203,-17.882
-2.38,-211.343,-17.779
-2.34,-209.308,-17.504
-2.31,-207.132,-17.516
-2.28,-204.921,-17.412
-2.24,-202.534,-17.286
-2.21,-200.359,-17.218
-2.18,-198.358,-17.034
-2.15,-196.288,-16.943
-2.11,-194.392,-16.908
-2.08,-192.708,-16.851
-2.05,-190.602,-16.714
-2.02,-188.286,-16.782
-1.98,-186.11,-16.794
-1.95,-183.864,-16.381
-1.92,-181.688,-16.381
-1.89,-179.582,-16.381
-1.85,-177.196,-15.946
-1.82,-174.844,-16.015
-1.79,-172.739,-15.877
-1.76,-170.352,-15.476
-1.72,-167.755,-15.476
-1.69,-165.298,-15.247
-1.66,-162.701,-14.835
-1.63,-160.034,-14.709
-1.59,-157.507,-14.549
-1.56,-154.91,-14.285
-1.53,-152.313,-14.01
-1.5,-149.646,-13.609
-1.46,-146.733,-13.277
-1.43,-143.961,-13.22
-1.4,-141.223,-12.899
-1.37,-138.486,-12.498
-1.33,-135.643,-12.361
-1.3,-132.66,-11.983
-1.27,-129.677,-11.73
-1.24,-126.764,-11.547
-1.2,-123.746,-11.123
-1.17,-120.552,-10.757
-1.14,-117.183,-10.344
-1.11,-113.849,-9.909
-1.07,-110.62,-9.588
-1.04,-107.497,-9.164
-1.01,-104.233,-8.821
-0.98,-100.829,-8.477
-0.94,-97.459,-8.133
-0.91,-93.985,-7.698
-0.88,-90.511,-7.228
-0.85,-87.001,-6.919
-0.81,-83.351,-6.415
-0.78,-79.877,-6.049
-0.75,-76.508,-5.762
-0.72,-73.068,-5.441
-0.68,-69.348,-5.086
-0.65,-65.698,-4.88
-0.62,-62.259,-4.617
-0.59,-58.855,-4.342
-0.55,-55.591,-4.181
-0.52,-52.257,-3.952
-0.49,-48.747,-3.586
-0.46,-45.308,-3.517
-0.42,-42.009,-3.242
-0.39,-38.535,-2.818
-0.36,-36.639,-2.497
-0.33,-40.851,-1.604
-0.29,-42.992,0.722
-0.26,-33.797,1.363
-0.23,-26.567,0.515
-0.2,-25.128,0.069
-0.16,-23.338,0.573
-0.13,-15.582,1.352
-0.1,-3.86,1.478
-0.07,5.124,0.813
-0.03,9.37,0.493
0.0,13.266,0.515
0.03,17.653,0.905
0.07,12.424,1.283
0.1,13.055,2.073
0.13,19.513,2.738
0.16,23.654,1.249
0.2,26.076,0.813
0.23,27.76,1.02
0.26,30.357,1.409
0.29,34.148,2.222
0.33,39.096,2.864
0.36,43.939,2.944
0.39,48.045,2.921
0.42,51.169,2.784
0.46,53.941,2.761
0.49,56.503,2.956
0.52,59.381,3.219
0.55,62.575,3.437
0.59,65.768,3.62
0.62,69.032,3.815
0.65,72.296,3.941
0.68,75.455,4.044
0.72,78.543,4.25
0.75,81.772,4.491
0.78,84.966,4.731
0.81,88.089,4.914
0.85,91.072,5.109
0.88,93.915,5.407
0.91,96.687,5.602
0.94,99.355,5.785
0.98,102.267,6.14
1.01,105.391,6.335
1.04,108.444,6.53
1.07,111.497,6.954
1.11,114.445,7.217
1.14,117.499,7.595
1.17,120.552,8.019
1.2,123.535,8.271
1.24,126.448,8.626
1.27,129.501,8.97
1.3,132.66,9.256
1.33,135.748,9.588
1.37,138.626,9.852
1.4,141.609,10.241
1.43,144.768,10.631
1.46,147.961,10.917
1.5,150.734,11.181
1.53,153.156,11.41
1.56,155.893,11.753
1.59,159.052,12.166
1.63,162.035,12.326
1.66,164.877,12.613
1.69,167.65,12.945
1.72,170.317,13.082
1.76,173.3,13.506
1.79,176.81,14.01
1.82,180.074,14.239
1.85,182.811,14.617
1.89,185.689,15.19
1.92,188.531,15.431
1.95,191.199,15.74
1.98,193.936,16.106
2.02,196.288,15.98
2.05,198.323,16.026
2.08,200.534,16.37
2.11,202.921,16.141
2.15,204.816,16.015
2.18,206.606,16.084
2.21,208.185,15.786
2.24,209.518,15.637
2.28,211.133,15.706
2.31,212.782,15.454
2.34,214.046,15.373
2.38,215.52,15.625
2.41,217.134,15.625
2.44,218.678,15.683
2.47,220.433,15.866
2.51,222.083,15.843
2.54,223.627,16.015
2.57,225.101,16.313
2.6,226.68,16.439
2.64,228.47,16.759
2.67,230.365,17.137
2.7,231.874,17.275
2.73,233.173,17.584
2.77,234.927,17.974
2.8,236.893,18.168
2.83,238.542,18.421
2.86,239.981,18.627
2.9,241.49,18.764
2.93,243.245,19.119
2.96,244.93,19.28
2.99,246.088,19.371
3.03,247.246,19.83
3.06,248.86,20.104
3.09,250.334,20.196
3.12,251.703,20.46
3.16,253.352,20.723
3.19,255.002,20.883
3.22,256.335,21.09
3.25,257.564,21.261
3.29,258.792,21.456
3.32,260.056,21.491
3.35,261.214,21.72
3.38,262.302,21.903
3.42,263.354,22.029
3.45,264.828,22.441
3.48,266.232,22.522
3.51,267.39,22.567
3.55,268.373,22.865
3.58,269.356,22.957
3.61,270.268,23.129
3.64,271.391,23.301
3.68,272.444,23.346
3.71,273.286,23.484
3.74,274.094,23.553
3.77,275.146,23.724
3.81,275.848,23.77
3.84,276.41,23.965
3.87,277.217,24.034
3.9,277.954,24.125
3.94,278.656,24.206
3.97,279.112,24.228
4.0,279.568,24.366
4.03,280.2,24.32
4.07,280.867,24.412
4.1,281.393,24.389
4.13,281.639,24.274
4.16,281.92,24.492
4.2,282.236,24.629
4.23,282.201,24.492
4.26,281.779,24.263
4.29,281.042,23.965
4.33,280.376,23.667
4.36,279.884,23.369
4.39,279.393,23.106
4.42,278.937,22.957
4.46,278.375,22.854
4.49,277.919,22.751
4.52,277.463,22.705
4.55,276.901,22.762
4.59,276.585,22.842
4.62,276.34,22.888
4.65,276.059,23.049
4.69,275.778,23.106
4.72,275.322,23.129
4.75,274.69,23.071
4.78,273.883,23.003
4.82,272.76,22.842
4.85,271.567,22.625
4.88,270.514,22.51
4.91,269.496,22.304
4.95,268.303,22.029
4.98,266.829,21.892
5.01,265.25,21.582
5.04,263.916,21.307
5.08,262.337,21.032
5.11,260.652,20.689
5.14,258.932,20.471
5.17,257.283,20.219
5.21,255.493,19.967
5.24,253.528,19.818
5.27,251.878,19.864
5.3,250.159,19.635
5.34,247.983,19.257
5.37,246.158,19.303
5.4,244.543,19.154
5.43,242.403,18.638
5.47,240.086,18.615
5.5,238.226,18.764
5.53,236.472,18.466
5.56,234.506,18.386
5.6,232.506,18.329
5.63,230.47,18.157
5.66,228.645,18.157
5.69,226.996,18.008
5.73,225.031,17.79
5.76,222.82,17.779
5.79,220.609,17.745
5.82,218.573,17.596
5.86,216.537,17.527
5.89,214.432,17.424
5.92,212.291,17.321
5.95,210.326,17.458
5.99,208.36,17.264
6.02,206.079,17.08
6.05,204.184,17.355
6.08,202.324,17.206
6.12,200.043,17.011
6.15,197.937,17.137
6.18,195.972,16.954
6.21,193.866,16.771
6.25,192.357,17.149
6.28,190.672,16.92
6.31,188.181,16.565
6.34,185.934,16.931
6.38,183.934,16.908
6.41,181.723,16.565
6.44,179.442,16.611
6.47,177.196,16.416
6.51,175.055,16.278
6.54,173.055,16.198
6.57,170.668,15.625
6.6,167.931,15.454
6.64,165.544,15.431
6.67,163.052,15.064
6.7,160.139,14.801
6.73,157.542,14.823
6.77,155.507,14.571
6.8,153.226,14.159
6.83,150.208,13.861
6.86,147.049,13.609
6.9,144.241,13.529
6.93,141.644,13.3
6.96,138.802,12.865
7.0,136.029,12.624
7.03,133.432,12.326
7.06,130.695,11.925
7.09,127.606,11.57
7.13,124.518,11.318
7.16,121.535,10.974
7.19,118.411,10.642
7.22,115.077,10.321
7.26,111.638,9.966
7.29,108.409,9.657
7.32,105.145,9.233
7.35,101.706,8.763
7.39,98.126,8.374
7.42,94.617,7.87
7.45,91.002,7.354
7.48,87.457,6.999
7.52,83.878,6.575
7.55,80.333,6.106
7.58,76.718,5.739
7.61,73.103,5.407
7.65,69.629,5.144
7.68,66.19,4.857
7.71,62.856,4.594
7.74,59.276,4.41
7.78,55.696,4.124
7.81,52.397,4.067
7.84,49.309,3.803
7.87,46.08,3.391
7.91,42.606,3.23
7.94,39.236,3.059
7.97,38.043,2.245
8.0,42.22,1.203
8.04,45.238,-0.481
8.07,37.622,-1.352
8.1,29.936,-0.722
8.13,26.707,-0.367
8.17,23.654,-0.687
8.2,15.547,-1.432
8.23,3.334,-1.638
8.26,-7.23,-1.077
8.3,-12.634,-0.619
8.33,-16.951,-0.527
8.36,-19.232,-0.768
8.39,-14.003,-1.627
8.43,-15.617,-2.051
8.46,-21.057,-1.936
8.49,-24.321,-1.203
8.52,-25.83,-0.733
8.56,-27.164,-0.848
8.59,-29.41,-1.398
8.62,-33.13,-2.142
8.65,-38.043,-2.715
8.69,-42.957,-2.807
8.72,-47.098,-2.749
8.75,-50.677,-2.749
8.78,-53.906,-2.875
8.82,-56.924,-3.013
8.85,-60.083,-3.265
8.88,-63.557,-3.563
8.91,-66.997,-3.78
8.95,-70.401,-3.883
8.98,-73.524,-3.941
9.01,-76.402,-4.078
9.04,-79.034,-4.101
9.08,-81.631,-4.204
9.11,-84.474,-4.456
9.14,-87.492,-4.582
9.17,-90.335,-4.639
9.21,-93.283,-4.857
9.24,-96.266,-5.075
9.27,-99.179,-5.27
9.31,-102.232,-5.567
9.34,-105.356,-5.923
9.37,-108.339,-6.197
9.4,-111.357,-6.564
9.44,-114.41,-7.091
9.47,-117.393,-7.274
9.5,-120.131,-7.732
9.53,-123.114,-8.237
9.57,-126.308,-8.408
9.6,-129.572,-8.809
9.63,-132.87,-9.199
9.66,-135.924,-9.474
9.7,-138.802,-9.909
9.73,-141.82,-10.299
9.76,-144.873,-10.516
9.79,-147.786,-10.906
9.83,-150.839,-11.226
9.86,-153.717,-11.352
9.89,-156.56,-11.696
9.92,-159.543,-12.017
9.96,-162.421,-12.12
9.99,-165.088,-12.498
10.02,-167.79,-12.865
10.05,-170.668,-13.14
10.09,-173.546,-13.38
10.12,-176.564,-13.666
10.15,-179.477,-13.964
10.18,-182.214,-14.193
10.22,-184.706,-14.549
10.25,-187.373,-14.904
10.28,-189.83,-15.007
10.31,-192.287,-15.156
10.35,-194.603,-15.362
10.38,-196.884,-15.339
10.41,-199.06,-15.465
10.44,-201.306,-15.683
10.48,-203.482,-15.625
10.51,-205.447,-15.694
10.54,-207.483,-15.751
10.57,-209.343,-15.717
10.61,-211.133,-15.866
10.64,-213.028,-16.038
10.67,-214.958,-16.118
10.7,-216.713,-16.29
10.74,-218.503,-16.439
10.77,-220.117,-16.507
10.8,-221.767,-16.633
10.83,-223.557,-16.702
10.87,-225.206,-16.828
10.9,-226.75,-16.92
10.93,-228.505,-17.115
10.96,-230.295,-17.355
11.0,-231.944,-17.504
11.03,-233.278,-17.733
11.06,-234.752,-17.848
11.09,-236.331,-18.168
11.13,-238.016,-18.363
11.16,-239.665,-18.398
11.19,-241.174,-18.615
11.22,-242.613,-18.799
11.26,-243.947,-19.005
11.29,-245.28,-19.257
11.32,-246.649,-19.383
11.35,-248.088,-19.52
11.39,-249.527,-19.795
11.42,-251.176,-20.024
11.45,-252.756,-20.242
11.48,-254.054,-20.425
11.52,-255.318,-20.78
11.55,-256.581,-20.906
11.58,-257.739,-21.009
11.62,-258.827,-21.296
11.65,-260.02,-21.307
11.68,-261.073,-21.388
11.71,-262.161,-21.548
11.75,-263.425,-21.811
11.78,-264.758,-21.96
11.81,-265.846,-22.109
11.84,-266.934,-22.327
11.88,-267.812,-22.487
11.91,-268.689,-22.659
11.94,-269.847,-22.865
11.97,-271.005,-23.003
12.01,-272.058,-23.117
12.04,-272.971,-23.289
12.07,-273.778,-23.415
12.1,-274.409,-23.507
12.14,-275.041,-23.656
12.17,-275.778,-23.816
12.2,-276.585,-23.873
12.23,-277.463,-23.965
12.27,-278.2,-24.08
12.3,-278.621,-24.125
12.33,-279.147,-24.332
12.36,-279.779,-24.366
12.4,-280.095,-24.171
12.43,-280.235,-24.183
12.46,-280.727,-24.354
12.49,-281.148,-24.423
12.53,-281.464,-24.4
12.56,-281.499,-24.412
12.59,-281.639,-24.423
12.62,-281.639,-24.389
12.66,-281.393,-24.171
12.69,-281.078,-24.08
12.72,-281.148,-24.068
12.75,-280.902,-23.896
12.79,-280.305,-23.805
12.82,-279.814,-23.759
12.85,-279.428,-23.541
12.88,-279.042,-23.427
12.92,-278.41,-23.289
12.95,-277.357,-23.026
12.98,-276.48,-23.003
13.01,-275.848,-22.865
13.05,-275.006,-22.613
13.08,-273.813,-22.533
13.11,-272.585,-22.258
13.14,-271.356,-21.995
13.18,-270.198,-21.788
13.21,-269.005,-21.525
13.24,-267.671,-21.376
13.27,-266.267,-21.284
13.31,-264.899,-21.181
13.34,-263.705,-21.032
13.37,-262.302,-20.861
13.4,-260.722,-20.609
13.44,-259.108,-20.54
13.47,-257.388,-20.391
13.5,-255.739,-20.219
13.53,-254.3,-20.093
13.57,-252.65,-19.784
13.6,-250.896,-19.612
13.63,-249.141,-19.623
13.66,-247.316,-19.383
13.7,-245.351,-19.268
13.73,-243.806,-19.36
13.76,-242.192,-19.131
13.79,-240.262,-18.993
13.83,-238.332,-19.005
13.86,-236.436,-18.879
13.89,-234.541,-18.844
13.93,-232.822,-18.673
13.96,-230.891,-18.501
13.99,-228.926,-18.512
14.02,-226.996,-18.398
14.06,-225.101,-18.295
14.09,-223.276,-18.123
14.12,-221.31,-17.997
14.15,-219.064,-17.859
14.19,-216.748,-17.676
14.22,-214.713,-17.71
14.25,-212.993,-17.676
14.28,-211.238,-17.584
14.32,-209.097,-17.63
14.35,-206.851,-17.527
14.38,-204.71,-17.378
14.41,-202.78,-17.344
14.45,-200.639,-17.103
14.48,-198.323,-17.0
14.51,-196.182,-17.023
14.54,-194.252,-16.84
14.58,-192.252,-16.668
14.61,-190.251,-16.622
14.64,-188.11,-16.553
14.67,-185.829,-16.45
14.71,-183.372,-16.393
14.74,-181.091,-16.198
14.77,-179.021,-16.072
14.8,-177.09,-16.072
14.84,-174.879,-15.923
14.87,-172.142,-15.694
14.9,-169.685,-15.683
14.93,-167.615,-15.591
14.97,-165.228,-15.179
15.0,-162.596,-14.801
15.03,-160.069,-14.64
15.06,-157.542,-14.423
15.1,-155.051,-14.297
15.13,-152.524,-14.159
15.16,-149.857,-13.964
15.19,-147.119,-13.655
15.23,-144.312,-13.323
15.26,-141.574,-13.071
15.29,-138.837,-12.647
15.32,-135.889,-12.338
15.36,-132.87,-12.074
15.39,-130.028,-11.719
15.42,-127.045,-11.421
15.45,-123.921,-11.066
15.49,-120.763,-10.699
15.52,-117.358,-10.367
15.55,-114.165,-10.069
15.58,-111.006,-9.703
15.62,-107.848,-9.279
15.65,-104.514,-8.924
15.68,-101.109,-8.523
15.71,-97.67,-8.053
15.75,-94.231,-7.641
15.78,-90.791,-7.228
15.81,-87.247,-6.873
15.84,-83.597,-6.461
15.88,-79.982,-6.152
15.91,-76.437,-5.751
15.94,-72.893,-5.396
15.97,-69.453,-5.155
16.01,-65.979,-4.834
16.04,-62.329,-4.422
16.07,-58.995,-4.399
16.1,-55.766,-4.078
16.14,-52.362,-3.608
16.17,-48.923,-3.482
16.2,-45.518,-3.345
16.24,-42.009,-2.921
16.27,-38.499,-3.013
16.3,-36.639,-2.394
16.33,-40.605,-1.031
16.37,-43.658,0.493
16.4,-35.411,1.375
16.43,-27.55,0.642
16.46,-24.812,0.229
16.5,-22.672,0.504
16.53,-15.266,1.34
16.56,-3.404,1.512
16.59,6.247,0.951
16.63,11.23,0.458
16.66,14.67,0.561
16.69,19.513,0.642
16.72,13.757,1.856
16.76,13.582,1.787
16.79,19.618,2.177
16.82,23.549,1.718
16.85,26.286,0.779
16.89,27.866,0.985
16.92,30.252,1.352
16.95,33.586,1.982
16.98,38.359,2.623
17.02,43.062,2.864
17.05,47.414,2.841
17.08,50.958,2.83
17.11,54.152,2.875
17.15,57.1,3.059
17.18,60.223,3.299
17.21,63.522,3.574
17.24,66.997,3.78
17.28,70.331,3.929
17.31,73.524,4.055
17.34,76.332,4.101
17.37,78.999,4.204
17.41,81.737,4.433
17.44,84.65,4.559
17.47,87.668,4.731
17.5,90.581,4.926
17.54,93.423,5.109
17.57,96.336,5.396
17.6,99.249,5.613
17.63,102.127,5.865
17.67,105.18,6.163
17.7,108.163,6.427
17.73,110.971,6.793
17.76,113.954,7.091
17.8,117.148,7.412
17.83,120.271,7.813
17.86,123.43,8.133
17.89,126.273,8.5
17.93,129.08,8.809
17.96,131.993,9.187
17.99,135.292,9.68
18.02,138.556,9.909
18.06,141.504,10.173
18.09,144.382,10.551
18.12,147.295,10.894
18.15,150.278,11.158
18.19,153.191,11.467
18.22,156.139,11.811
18.25,158.981,12.063
18.28,161.824,12.28
18.32,164.632,12.521
18.35,167.474,12.807
18.38,170.282,13.128
18.41,173.055,13.472
18.45,176.108,13.873
18.48,179.266,14.274
18.51,182.285,14.526
18.55,184.917,14.823
18.58,187.373,15.11
18.61,189.865,15.339
18.64,192.287,15.488
18.68,194.673,15.625
18.71,197.13,15.74
18.74,199.376,15.694
18.77,201.306,15.717
18.81,203.307,15.82
18.84,205.272,15.694
18.87,206.956,15.717
18.9,208.571,15.774
18.94,210.326,15.717
18.97,212.221,15.843
19.0,214.291,15.9
19.03,215.941,15.958
19.07,217.555,16.187
19.1,219.415,16.381
19.13,221.03,16.473
19.16,222.574,16.702
19.2,224.434,16.885
19.23,226.224,16.989
19.26,227.908,17.149
19.29,229.628,17.344
19.33,231.453,17.619
19.36,233.278,17.836
19.39,234.612,17.905
19.42,235.805,18.088
19.46,237.419,18.524
19.49,239.314,18.661
19.52,240.823,18.661
19.55,242.227,18.993
19.59,243.806,19.268
19.62,245.28,19.268
19.65,246.614,19.486
19.68,248.088,19.704
19.72,249.457,19.795
19.75,250.896,20.116
19.78,252.475,20.357
19.81,253.879,20.517
19.85,255.212,20.906
19.88,256.686,21.158
19.91,257.845,21.204
19.94,258.968,21.399
19.98,260.301,21.628
20.01,261.424,21.662
20.04,262.688,21.788
20.07,263.916,22.029
20.11,265.179,22.166
20.14,266.162,22.338
20.17,267.32,22.567
20.2,268.478,22.682
20.24,269.461,22.877
20.27,270.444,23.037
20.3,271.391,23.175
20.33,272.339,23.323
20.37,273.286,23.472
20.4,274.304,23.621
20.43,275.076,23.598
20.46,275.708,23.702
20.5,276.41,23.816
20.53,277.042,23.908
20.56,277.814,24.217
20.59,278.586,24.171
20.63,279.358,24.148
20.66,279.744,24.251
20.69,280.13,24.228
20.72,280.621,24.343
20.76,281.078,24.343
20.79,281.639,24.354
20.82,282.095,24.607
20.86,282.376,24.595
20.89,282.411,24.492
20.92,282.341,24.549
20.95,282.06,24.194
20.99,281.709,24.057
21.02,281.569,23.965
21.05,281.288,23.724
21.08,280.867,23.77
21.12,280.481,23.759
21.15,280.2,23.61
21.18,279.814,23.598
21.21,279.323,23.507
21.25,278.726,23.392
21.28,278.2,23.312
21.31,277.568,23.243
21.34,276.831,23.209
21.38,276.094,23.094
21.41,275.146,22.797
21.44,273.883,22.579
21.47,272.585,22.361
21.51,271.181,21.972
21.54,269.847,21.731
21.57,268.513,21.491
21.6,267.145,21.296
21.64,265.706,21.101
21.67,264.127,20.895
21.7,262.688,20.654
21.73,261.143,20.299
21.77,259.248,20.07
21.8,257.494,20.047
21.83,255.984,19.944
21.86,254.44,19.749
21.9,252.896,19.646
21.93,251.282,19.555
21.96,249.316,19.326
21.99,247.316,19.257
22.03,245.596,19.142
22.06,243.771,18.982
22.09,241.841,18.89
22.12,240.086,18.799
22.16,238.226,18.764
22.19,236.226,18.65
22.22,234.261,18.673
22.25,232.401,18.65
22.29,230.576,18.501
22.32,228.751,18.329
22.35,226.645,18.191
22.38,224.539,18.088
22.42,222.574,18.042
22.45,220.749,17.985
22.48,218.889,17.894
22.51,216.783,17.882
22.55,214.713,17.848
22.58,213.028,17.882
22.61,211.203,17.79
22.64,209.062,17.687
22.68,207.167,17.848
22.71,205.482,17.745
22.74,203.271,17.527
22.77,201.06,17.516
22.81,198.885,17.275
22.84,196.568,17.057
22.87,194.708,17.16
22.9,192.883,16.943
22.94,190.637,16.737
22.97,188.496,16.885
23.0,186.356,16.714
23.03,184.004,16.576
23.07,181.793,16.633
23.1,179.547,16.313
23.13,177.126,16.106
23.16,175.02,16.129
23.2,172.739,15.969
23.23,170.107,15.694
23.26,167.58,15.614
23.3,165.228,15.316
23.33,162.737,15.007
23.36,160.175,14.835
23.39,157.578,14.537
23.43,155.156,14.239
23.46,152.699,14.067
23.49,149.892,13.689
23.52,146.873,13.483
23.56,143.996,13.277
23.59,141.328,12.876
23.62,138.486,12.67
23.65,135.608,12.452
23.69,132.66,12.154
23.72,129.817,11.948
23.75,126.939,11.65
23.78,123.886,11.261
23.82,120.728,10.917
23.85,117.429,10.505
23.88,114.235,10.15
23.91,111.111,9.829
23.95,107.812,9.428
23.98,104.408,9.073
24.01,101.004,8.672
24.04,97.6,8.156
24.08,94.196,7.813
24.11,90.686,7.446
24.14,87.036,6.873
24.17,83.316,6.472
24.21,79.877,6.278
24.24,76.472,5.842
24.27,72.998,5.441
24.3,69.453,5.144
24.34,65.909,4.869
24.37,62.399,4.662
24.4,59.03,4.502
24.43,55.801,4.296
24.47,52.573,4.044
24.5,49.274,3.803
24.53,45.729,3.631
24.56,42.184,3.391
24.6,38.745,3.311
24.63,37.096,2.658
24.66,40.465,1.42
24.69,44.746,-0.183
24.73,38.464,-1.398
24.76,29.199,-0.916
24.79,25.374,-0.321
24.82,23.058,-0.527
24.86,16.214,-1.317
24.89,4.211,-1.65
24.92,-6.493,-1.123
24.95,-12.073,-0.573
24.99,-15.337,-0.47
25.02,-18.776,-0.687
25.05,-14.143,-1.455
25.08,-14.143,-1.718
25.12,-19.794,-1.959
25.15,-23.619,-1.478
25.18,-25.935,-0.848
25.21,-27.374,-0.859
25.25,-29.62,-1.306
25.28,-33.095,-1.959
25.31,-37.833,-2.623
25.34,-42.746,-2.83
25.38,-47.063,-2.795
25.41,-50.537,-2.772
25.44,-53.485,-2.715
25.47,-56.152,-2.784
25.51,-58.925,-3.047
25.54,-62.013,-3.288
25.57,-65.172,-3.448
25.61,-68.436,-3.643
25.64,-71.735,-3.826
25.67,-74.998,-3.987
25.7,-78.368,-4.193
25.74,-81.807,-4.41
25.77,-85.211,-4.617
25.8,-88.58,-4.892
25.83,-91.879,-5.086
25.87,-94.933,-5.304
25.9,-97.565,-5.43
25.93,-99.986,-5.739
25.96,-102.583,-6.152
26.0,-105.496,-6.415
26.03,-108.62,-6.644
26.06,-111.743,-6.954
26.09,-114.761,-7.194
26.13,-117.604,-7.435
26.16,-120.622,-7.847
26.19,-123.746,-8.156
26.22,-126.799,-8.477
26.26,-129.817,-8.901
26.29,-132.835,-9.164
26.32,-135.783,-9.508
26.35,-138.766,-9.886
26.39,-141.785,-10.081
26.42,-144.768,-10.47
26.45,-147.716,-10.803
26.48,-150.699,-11.112
26.52,-153.647,-11.364
26.55,-156.525,-11.73
26.58,-159.402,-12.005
26.61,-162.175,-12.246
26.65,-165.053,-12.578
26.68,-167.931,-12.865
26.71,-170.773,-13.094
26.74,-173.441,-13.472
26.78,-176.424,-13.792
26.81,-179.372,-13.953
26.84,-182.039,-14.365
26.87,-184.671,-14.571
26.91,-187.163,-14.675
26.94,-189.655,-15.007
26.97,-192.041,-15.156
27.0,-194.427,-15.179
27.04,-196.779,-15.385
27.07,-199.095,-15.545
27.1,-201.376,-15.648
27.13,-203.517,-15.751
27.17,-205.447,-15.797
27.2,-207.272,-15.797
27.23,-209.203,-15.923
27.26,-211.203,-16.015
27.3,-213.133,-16.038
27.33,-214.993,-16.187
27.36,-216.818,-16.393
27.39,-218.573,-16.496
27.43,-220.258,-16.656
27.46,-221.977,-16.759
27.49,-223.627,-16.885
27.52,-225.276,-17.092
27.56,-226.961,-17.126
27.59,-228.645,-17.183
27.62,-230.435,-17.458
27.65,-232.19,-17.527
27.69,-233.594,-17.584
27.72,-234.892,-17.905
27.75,-236.436,-18.1
27.78,-238.086,-18.283
27.82,-239.665,-18.421
27.85,-241.139,-18.501
27.88,-242.438,-18.764
27.92,-243.806,-19.016
27.95,-245.105,-19.326
27.98,-246.614,-19.555
28.01,-248.123,-19.692
28.05,-249.597,-19.944
28.08,-251.071,-20.242
28.11,-252.58,-20.471
28.14,-254.019,-20.654
28.18,-255.212,-20.861
28.21,-256.335,-21.113
28.24,-257.564,-21.216
28.27,-258.897,-21.33
28.31,-260.126,-21.422
28.34,-261.214,-21.525
28.37,-262.302,-21.743
28.4,-263.565,-21.903
28.44,-264.864,-22.109
28.47,-266.092,-22.327
28.5,-267.145,-22.59
28.53,-268.022,-22.785
28.57,-268.97,-22.945
28.6,-270.058,-23.14
28.63,-271.251,-23.346
28.66,-272.409,-23.45
28.7,-273.216,-23.564
28.73,-273.883,-23.61
28.76,-274.48,-23.644
28.79,-275.252,-23.793
28.83,-275.954,-23.85
28.86,-276.761,-24.057
28.89,-277.744,-24.148
28.92,-278.41,-24.183
28.96,-278.726,-24.24
28.99,-279.288,-24.366
29.02,-279.814,-24.423
29.05,-279.955,-24.32
29.09,-280.095,-24.423
29.12,-280.762,-24.584
29.15,-281.499,-24.572
29.18,-281.569,-24.503
29.22,-281.464,-24.607
29.25,-281.534,-24.572
29.28,-281.534,-24.435
29.31,-281.253,-24.228
29.35,-280.902,-24.137
29.38,-280.762,-24.114
29.41,-280.762,-23.999
29.44,-280.411,-24.011
29.48,-279.814,-23.816
29.51,-279.147,-23.702
29.54,-278.586,-23.679
29.57,-277.849,-23.392
29.61,-276.936,-23.278
29.64,-276.34,-23.14
29.67,-275.743,-22.957
29.7,-274.936,-22.774
29.74,-273.778,-22.556
29.77,-272.514,-22.338
29.8,-271.146,-22.189
29.83,-269.987,-22.018
29.87,-268.864,-21.72
29.9,-267.601,-21.548
29.93,-266.373,-21.445
29.96,-264.899,-21.261
30.0,-263.39,-21.135
30.03,-261.986,-20.987
30.06,-260.547,-20.838
30.09,-259.038,-20.654
30.13,-257.669,-20.483
30.16,-256.02,-20.242
30.19,-254.265,-20.139
30.23,-252.475,-20.093
30.26,-250.826,-19.978
30.29,-249.141,-19.91
30.32,-247.456,-19.623
30.36,-245.561,-19.452
30.39,-243.701,-19.337
30.42,-241.841,-19.096
30.45,-240.051,-19.062
30.49,-238.191,-19.016
30.52,-236.366,-18.902
30.55,-234.576,-18.993
30.58,-232.751,-18.764
30.62,-230.716,-18.707
30.65,-228.891,-18.787
30.68,-227.206,-18.558
30.71,-225.311,-18.398
30.75,-223.346,-18.249
30.78,-221.135,-18.146
30.81,-219.029,-18.031
30.84,-217.099,-17.916
30.88,-215.274,-17.939
30.91,-213.344,-17.79
30.94,-211.133,-17.733
30.97,-208.887,-17.699
31.01,-206.956,-17.573
31.04,-204.886,-17.55
31.07,-202.675,-17.355
31.1,-200.499,-17.355
31.14,-198.463,-17.183
31.17,-196.323,-16.897
31.2,-194.357,-17.011
31.23,-192.322,-16.817
31.27,-190.076,-16.771
31.3,-187.935,-16.851
31.33,-185.759,-16.588
31.36,-183.408,-16.473
31.4,-181.302,-16.359
31.43,-179.091,-16.164
31.46,-176.915,-16.118
31.49,-174.704,-16.049
31.53,-172.247,-15.774
31.56,-169.826,-15.717
31.59,-167.72,-15.602
31.62,-165.298,-15.167
31.66,-162.666,-14.904
31.69,-159.999,-14.789
31.72,-157.472,-14.48
31.75,-154.98,-14.308
31.79,-152.348,-14.09
31.82,-149.471,-13.804
31.85,-146.487,-13.552
31.88,-143.82,-13.323
31.92,-141.223,-13.059
31.95,-138.556,-12.727
31.98,-135.538,-12.372
32.01,-132.59,-12.166
32.05,-129.607,-11.845
32.08,-126.729,-11.467
32.11,-123.746,-11.169
32.14,-120.657,-10.734
32.18,-117.218,-10.333
32.21,-113.884,-10.012
32.24,-110.655,-9.772
32.27,-107.532,-9.325
32.31,-104.268,-8.901
32.34,-100.969,-8.58
32.37,-97.53,-8.145
32.4,-94.16,-7.755
32.44,-90.616,-7.366
32.47,-86.826,-6.896
32.5,-83.246,-6.564
32.54,-79.842,-6.186
32.57,-76.332,-5.739
32.6,-72.717,-5.533
32.63,-69.243,-5.189
32.67,-65.663,-4.857
32.7,-62.224,-4.559
32.73,-58.89,-4.296
32.76,-55.626,-4.032
32.8,-52.292,-3.78
32.83,-48.888,-3.643
32.86,-45.483,-3.46
32.89,-42.009,-3.15
32.93,-38.394,-2.967
32.96,-36.008,-2.841
32.99,-39.412,-1.673
33.02,-43.623,0.321
33.06,-36.604,1.363
33.09,-27.971,0.733
33.12,-25.023,0.229
33.15,-22.847,0.458
33.19,-16.144,1.283
33.22,-4.247,1.524
33.25,6.001,1.088
33.28,11.862,0.458
33.32,15.196,0.642
33.35,19.864,0.332
33.38,14.705,0.962
33.41,13.477,2.669
33.45,19.653,1.959
33.48,23.514,1.524
33.51,26.321,1.1
33.54,27.831,0.894
33.58,30.217,1.352
33.61,33.656,2.119
33.64,38.359,2.669
33.67,43.097,2.933
33.71,47.449,2.91
33.74,50.958,2.852
33.77,54.012,2.852
33.8,56.854,3.047
33.84,59.978,3.276
33.87,63.206,3.54
33.9,66.646,3.746
33.93,69.98,3.918
33.97,73.244,4.078
34.0,76.297,4.181
34.03,79.315,4.353
34.06,82.088,4.491
34.1,84.93,4.662
34.13,87.878,4.903
34.16,90.826,5.063
34.19,93.599,5.258
34.23,96.512,5.51
34.26,99.46,5.728
34.29,102.408,5.991
34.32,105.251,6.163
34.36,108.128,6.541
34.39,111.287,6.976
34.42,114.516,7.206
34.45,117.604,7.618
34.49,120.587,7.939
34.52,123.36,8.202
34.55,126.167,8.626
34.58,129.185,8.993
34.62,132.309,9.13
34.65,135.468,9.451
34.68,138.556,9.783
34.71,141.258,10.047
34.75,144.136,10.551
34.78,147.295,10.883
34.81,150.383,11.192
34.85,153.331,11.559
34.88,156.139,11.799
34.91,158.946,12.028
34.94,161.719,12.315
34.98,164.632,12.635
35.01,167.404,12.968
35.04,170.142,13.208
35.07,173.055,13.586
35.11,176.073,13.896
35.14,179.021,14.182
35.17,181.793,14.56
35.2,184.496,14.766
35.24,187.022,14.927
35.27,189.584,15.27
35.3,191.971,15.316
35.33,194.217,15.431
35.37,196.744,15.797
35.4,199.165,15.82
35.43,201.271,15.832
35.46,203.271,15.946
35.5,205.096,15.786
35.53,206.711,15.683
35.56,208.571,15.843
35.59,210.466,15.751
35.63,212.151,15.786
35.66,213.94,16.084
35.69,215.836,16.164
35.72,217.625,16.313
35.76,219.415,16.519
35.79,221.065,16.588
35.82,222.784,16.794
35.85,224.539,16.977
35.89,226.329,17.092
35.92,227.943,17.298
35.95,229.768,17.47
35.98,231.523,17.745
36.02,233.173,17.928
36.05,234.612,17.985
36.08,236.086,18.249
36.11,237.805,18.581
36.15,239.56,18.661
36.18,241.104,18.799
36.21,242.719,19.142
36.24,244.403,19.417
36.28,245.772,19.509
36.31,246.965,19.646
36.34,248.264,19.898
36.37,249.527,19.956
36.41,251.001,20.265
36.44,252.756,20.586
36.47,254.23,20.609
36.5,255.423,20.803
36.54,256.757,21.055
36.57,257.809,21.181
36.6,258.862,21.25
36.63,260.231,21.617
36.67,261.354,21.514
36.7,262.196,21.617
36.73,263.565,22.018
36.76,265.004,22.086
36.8,265.987,22.327
36.83,266.969,22.499
36.86,267.952,22.59
36.89,268.97,22.831
36.93,270.023,22.911
36.96,271.321,23.117
36.99,272.339,23.392
37.02,273.181,23.518
37.06,273.848,23.587
37.09,274.62,23.793
37.12,275.462,23.873
37.16,276.234,23.919
37.19,277.112,24.022
37.22,277.884,24.148
37.25,278.41,24.217
37.29,278.867,24.286
37.32,279.393,24.274
37.35,279.779,24.32
37.38,280.2,24.538
37.42,280.656,24.526
37.45,281.078,24.595
37.48,281.569,24.778
37.51,282.06,24.698
37.55,282.13,24.664
37.58,282.025,24.698
37.61,281.955,24.561
37.64,281.85,24.412
37.68,281.709,24.343
37.71,281.674,24.274
37.74,281.569,24.16
37.77,281.358,24.08
37.81,280.832,23.908
37.84,280.2,23.873
37.87,279.639,23.816
37.9,279.042,23.564
37.94,278.551,23.495
37.97,277.814,23.243
38.0,276.971,22.991
38.03,276.305,23.163
38.07,276.164,23.301
38.1,275.954,23.323
38.13,275.182,23.381
38.16,274.339,23.381
38.2,273.672,23.427
38.23,273.216,23.415
38.26,272.339,23.232
38.29,270.97,23.026
38.33,269.461,22.819
38.36,268.057,22.533
38.39,266.583,22.235
38.42,265.004,21.846
38.46,263.249,21.525
38.49,261.284,21.055
38.52,259.248,20.7
38.55,257.353,20.46
38.59,255.388,20.036
38.62,252.966,19.589
38.65,250.72,19.371
38.68,248.615,19.039
38.72,246.439,18.558
38.75,244.263,18.432
38.78,242.332,18.409
38.81,240.332,18.157
38.85,238.156,18.031
38.88,236.015,18.054
38.91,233.91,17.997
38.94,232.014,17.974
38.98,230.119,17.894
39.01,228.049,17.619
39.04,225.873,17.55
39.07,223.872,17.504
39.11,221.732,17.355
39.14,219.45,17.332
39.17,217.204,17.229
39.2,215.063,17.218
39.24,213.098,17.218
39.27,210.887,17.069
39.3,208.641,17.0
39.33,206.746,17.149
39.37,204.745,17.0
39.4,202.289,16.714
39.43,200.183,16.908
39.47,198.218,16.759
39.5,195.901,16.462
39.53,193.971,16.714
39.56,192.111,16.668
39.6,189.865,16.45
39.63,187.724,16.576
39.66,185.619,16.427
39.69,183.162,16.21
39.73,180.951,16.416
39.76,178.705,16.175
39.79,176.318,15.992
39.82,174.318,16.106
39.86,172.212,15.774
39.89,169.685,15.454
39.92,167.018,15.511
39.95,164.632,15.328
39.99,162.245,14.972
40.02,159.648,14.697
40.05,156.911,14.423
40.08,154.314,14.4
40.12,151.857,14.182
40.15,149.19,13.758
40.18,146.277,13.426
40.21,143.294,13.254
40.25,140.346,12.956
40.28,137.538,12.67
40.31,134.871,12.361
40.34,132.098,12.028
40.38,129.15,11.719
40.41,125.992,11.318
40.44,122.588,10.94
40.47,119.218,10.734
40.51,115.218,9.886
40.54,109.988,8.626
40.57,104.654,7.859
40.6,100.478,7.194
40.64,97.354,6.575
40.67,93.95,5.854
40.7,89.914,5.292
40.73,85.843,5.189
40.77,82.509,5.224
40.8,79.491,5.132
40.83,76.437,4.983
40.86,72.893,4.834
40.9,69.489,4.926
40.93,66.505,5.029
40.96,63.943,4.96
40.99,61.206,4.926
41.03,58.363,5.063
41.06,55.38,5.04
41.09,52.362,5.029
41.12,49.484,5.132
41.16,46.712,4.949
41.19,43.658,4.823
41.22,40.746,4.731
41.25,37.587,4.445
41.29,36.148,4.376
41.32,39.833,3.746
41.35,46.957,0.997
41.38,44.852,-1.375
41.42,33.867,-1.249
41.45,28.497,-0.378
41.48,27.129,-0.298
41.51,22.215,-1.18
41.55,9.792,-1.81
41.58,-2.983,-1.443
41.61,-10.88,-0.653
41.64,-13.477,-0.458
41.68,-17.899,-0.584
41.71,-17.197,-0.355
41.74,-13.161,-1.386
41.78,-17.232,-2.073
41.81,-21.268,-1.466
41.84,-24.146,-0.997
41.87,-25.935,-0.962
41.91,-28.181,-1.146
41.94,-31.305,-1.718
41.97,-35.692,-2.348
42.0,-40.324,-2.6
42.04,-44.992,-2.772
42.07,-48.888,-2.841
42.1,-52.222,-2.761
42.13,-55.205,-2.818
42.17,-58.293,-3.116
42.2,-61.452,-3.368
42.23,-64.821,-3.574
42.26,-68.19,-3.803
42.3,-71.664,-4.021
42.33,-74.963,-4.135
42.36,-78.227,-4.296
42.39,-81.351,-4.548
42.43,-84.65,-4.8
42.46,-87.773,-4.926
42.49,-90.651,-5.121
42.52,-93.318,-5.407
42.56,-95.845,-5.579
42.59,-98.512,-5.888
42.62,-101.53,-6.152
42.65,-104.549,-6.278
42.69,-107.462,-6.61
42.72,-110.62,-6.942
42.75,-113.603,-7.16
42.78,-116.586,-7.412
42.82,-119.464,-7.801
42.85,-122.237,-8.088
42.88,-125.114,-8.397
42.91,-128.203,-8.775
42.95,-131.326,-9.004
42.98,-134.415,-9.29
43.01,-137.538,-9.783
43.04,-140.732,-10.092
43.08,-143.645,-10.367
43.11,-146.733,-10.86
43.14,-149.751,-11.181
43.17,-152.594,-11.524
43.21,-155.577,-11.994
43.24,-158.63,-12.223
43.27,-161.578,-12.441
43.3,-164.421,-12.75
43.34,-167.334,-12.979
43.37,-169.931,-13.231
43.4,-172.739,-13.575
43.43,-175.687,-13.93
43.47,-178.6,-14.09
43.5,-181.477,-14.457
43.53,-184.32,-14.823
43.56,-186.882,-14.915
43.6,-189.198,-15.156
43.63,-191.655,-15.419
43.66,-194.077,-15.431
43.69,-196.603,-15.648
43.73,-199.271,-15.854
43.76,-201.341,-15.74
43.79,-203.061,-15.866
43.82,-205.202,-16.106
43.86,-207.307,-16.015
43.89,-209.167,-16.038
43.92,-210.992,-16.198
43.95,-212.782,-16.244
43.99,-214.783,-16.45
44.02,-216.959,-16.645
44.05,-218.819,-16.691
44.09,-220.433,-16.863
44.12,-222.012,-17.011
44.15,-223.697,-17.16
44.18,-225.627,-17.458
44.22,-227.487,-17.435
44.25,-229.066,-17.378
44.28,-230.646,-17.653
44.31,-232.19,-17.813
44.35,-233.594,-17.916
44.38,-235.033,-18.146
44.41,-236.682,-18.283
44.44,-238.297,-18.443
44.48,-240.016,-18.753
44.51,-241.771,-18.902
44.54,-243.35,-19.051
44.57,-244.93,-19.371
44.61,-246.368,-19.578
44.64,-247.527,-19.589
44.67,-248.755,-19.875
44.7,-250.369,-20.15
44.74,-251.738,-20.139
44.77,-253.072,-20.345
44.8,-254.51,-20.666
44.83,-255.739,-20.769
44.87,-256.862,-20.941
44.9,-257.95,-21.101
44.93,-259.108,-21.181
44.96,-260.231,-21.284
45.0,-261.249,-21.422
45.03,-262.407,-21.502
45.06,-263.67,-21.754
45.09,-264.934,-22.006
45.13,-265.987,-22.075
45.16,-266.864,-22.338
45.19,-267.882,-22.602
45.22,-268.97,-22.808
45.26,-269.917,-22.957
45.29,-270.83,-23.06
45.32,-271.883,-23.358
45.35,-273.076,-23.587
45.39,-274.023,-23.598
45.42,-274.655,-23.702
45.45,-275.146,-23.747
45.48,-275.673,-23.782
45.52,-276.55,-23.931
45.55,-277.463,-23.931
45.58,-277.919,-24.08
45.61,-278.375,-24.32
45.65,-278.972,-24.286
45.68,-279.498,-24.366
45.71,-279.884,-24.343
45.74,-279.955,-24.183
45.78,-280.2,-24.366
45.81,-280.692,-24.423
45.84,-281.042,-24.309
45.87,-281.042,-24.309
45.91,-280.937,-24.309
45.94,-280.902,-24.24
45.97,-280.762,-24.114
46.0,-280.551,-24.045
46.04,-280.376,-23.954
46.07,-280.341,-23.942
46.1,-280.2,-23.942
46.13,-279.674,-23.793
46.17,-279.007,-23.656
46.2,-278.305,-23.53
46.23,-277.638,-23.438
46.26,-277.007,-23.323
46.3,-276.445,-23.232
46.33,-275.743,-23.094
46.36,-274.831,-22.911
46.4,-273.813,-22.751
46.43,-272.83,-22.522
46.46,-271.567,-22.27
46.49,-270.128,-22.086
46.53,-268.864,-22.029
46.56,-267.741,-21.777
46.59,-266.583,-21.628
46.62,-265.285,-21.502
46.66,-263.986,-21.365
46.69,-262.582,-21.113
46.72,-261.038,-20.769
46.75,-259.389,-20.643
46.79,-257.845,-20.574
46.82,-256.335,-20.471
46.85,-254.686,-20.253
46.88,-253.036,-20.173
46.92,-251.598,-20.116
46.95,-249.878,-19.83
46.98,-247.807,-19.669
47.01,-246.123,-19.704
47.05,-244.403,-19.394
47.08,-242.438,-19.36
47.11,-240.718,-19.326
47.14,-239.139,-19.142
47.18,-237.349,-19.108
47.21,-235.384,-19.108
47.24,-233.348,-18.947
47.27,-231.558,-18.821
47.31,-229.874,-18.81
47.34,-227.979,-18.581
47.37,-225.803,-18.432
47.4,-223.627,-18.398
47.44,-221.626,-18.237
47.47,-219.661,-18.157
47.5,-217.555,-18.065
47.53,-215.379,-17.848
47.57,-213.344,-17.836
47.6,-211.694,-17.802
47.63,-209.729,-17.63
47.66,-207.553,-17.527
47.7,-205.553,-17.642
47.73,-203.447,-17.424
47.76,-201.06,-17.218
47.79,-198.744,-17.298
47.83,-196.884,-17.126
47.86,-194.743,-16.977
47.89,-192.813,-17.069
47.92,-190.848,-16.794
47.96,-188.602,-16.588
47.99,-186.32,-16.679
48.02,-184.074,-16.416
48.05,-181.688,-16.187
48.09,-179.512,-16.141
48.12,-177.196,-15.9
48.15,-174.669,-15.809
48.18,-172.388,-15.751
48.22,-170.001,-15.534
48.25,-167.474,-15.373
48.28,-165.123,-15.259
48.31,-162.807,-14.961
48.35,-160.245,-14.526
48.38,-157.718,-14.365
48.41,-155.121,-14.274
48.44,-152.348,-13.93
48.48,-149.646,-13.621
48.51,-146.768,-13.323
48.54,-143.996,-13.036
48.57,-141.258,-12.853
48.61,-138.521,-12.532
48.64,-135.573,-12.177
48.67,-132.765,-11.971
48.71,-129.958,-11.73
48.74,-126.869,-11.398
48.77,-123.605,-11.043
48.8,-120.412,-10.711
48.84,-117.288,-10.264
48.87,-114.165,-9.932
48.9,-110.936,-9.611
48.93,-107.742,-9.279
48.97,-104.408,-8.958
49.0,-101.074,-8.546
49.03,-97.6,-8.214
49.06,-94.266,-7.847
49.1,-90.791,-7.332
49.13,-87.141,-6.954
49.16,-83.562,-6.61
49.19,-79.912,-6.186
49.23,-76.297,-5.842
49.26,-73.174,-5.636
49.29,-69.875,-5.189
49.32,-66.19,-4.834
49.36,-62.434,-4.708
49.39,-59.065,-4.41
49.42,-55.836,-4.044
49.45,-52.748,-3.872
49.49,-49.344,-3.608
49.52,-45.834,-3.288
49.55,-42.325,-3.15
49.58,-38.815,-3.001
49.62,-36.85,-2.142
49.65,-41.132,-1.031
49.68,-44.044,0.573
49.71,-34.885,1.501
49.75,-26.251,0.687
49.78,-23.83,0.149
49.81,-22.04,0.504
49.84,-14.389,1.409
49.88,-2.211,1.524
49.91,7.195,0.859
49.94,11.266,0.389
49.97,14.389,0.493
50.01,18.46,0.722
50.04,12.389,1.925
50.07,13.336,1.799
50.1,19.548,2.257
50.14,23.584,1.638
50.17,26.076,0.664
50.2,27.515,0.836
50.23,29.866,1.249
50.27,33.446,2.005
50.3,38.254,2.543
50.33,42.816,2.612
50.36,46.782,2.612
50.4,49.976,2.577
50.43,52.783,2.497
50.46,55.38,2.704
50.49,58.398,3.013
50.53,61.697,3.288
50.56,65.207,3.528
50.59,68.681,3.746
50.62,72.191,3.895
50.66,75.665,4.078
50.69,79.034,4.284
50.72,82.333,4.559
50.75,85.703,4.777
50.79,88.861,4.983
50.82,91.563,5.224
50.85,94.301,5.544
50.88,97.038,5.819
50.92,99.741,5.911
50.95,102.408,6.209
50.98,105.356,6.553
51.02,108.444,6.724
51.05,111.638,7.16
51.08,115.042,7.458
51.11,118.025,7.584
51.15,120.622,7.916
51.18,123.395,8.237
51.21,126.448,8.523
51.24,129.536,8.786
51.28,132.66,9.05
51.31,135.643,9.439
51.34,138.731,9.817
51.37,141.679,10.184
51.41,144.733,10.573
51.44,147.786,10.848
51.47,150.629,11.135
51.5,153.296,11.421
51.54,155.963,11.708
51.57,158.841,12.005
51.6,161.964,12.257
51.63,164.948,12.487
51.67,167.65,12.681
51.7,170.317,13.002
51.73,173.019,13.3
51.76,175.792,13.563
51.8,178.74,13.907
51.83,181.548,14.148
51.86,184.215,14.434
51.89,186.812,14.858
51.93,189.304,15.03
51.96,191.725,15.11
51.99,194.147,15.362
52.02,196.393,15.35
52.06,198.463,15.431
52.09,200.85,15.66
52.12,203.026,15.648
52.15,204.956,15.728
52.19,206.851,15.854
52.22,208.641,15.843
52.25,210.501,15.98
52.28,212.537,16.198
52.32,214.502,16.187
52.35,216.397,16.21
52.38,218.292,16.404
52.41,219.942,16.404
52.45,221.451,16.553
52.48,223.17,16.817
52.51,225.101,16.977
52.54,226.926,17.16
52.58,228.47,17.401
52.61,230.014,17.527
52.64,231.593,17.71
52.67,233.313,17.939
52.71,234.962,17.871
52.74,236.472,18.065
52.77,238.016,18.363
52.8,239.384,18.34
52.84,240.894,18.65
52.87,242.683,19.039
52.9,244.228,18.947
52.93,245.491,19.28
52.97,246.965,19.6
53.0,248.228,19.612
53.03,249.702,19.99
53.06,251.282,20.23
53.1,252.615,20.334
53.13,253.773,20.677
53.16,255.388,20.895
53.19,256.757,20.895
53.23,257.95,21.09
53.26,259.108,21.239
53.29,260.196,21.399
53.33,261.389,21.525
53.36,262.547,21.674
53.39,263.741,21.96
53.42,265.039,22.144
53.46,266.127,22.292
53.49,267.075,22.476
53.52,268.092,22.545
53.55,269.18,22.728
53.59,270.479,22.888
53.62,271.602,23.014
53.65,272.585,23.175
53.68,273.462,23.335
53.72,274.234,23.461
53.75,274.901,23.576
53.78,275.497,23.576
53.81,276.129,23.759
53.85,277.007,23.805
53.88,277.849,23.862
53.91,278.41,24.057
53.94,279.007,24.08
53.98,279.533,24.08
54.01,279.884,24.068
54.04,280.305,24.217
54.07,281.007,24.228
54.11,281.358,24.251
54.14,281.674,24.412
54.17,282.166,24.561
54.2,282.236,24.412
54.24,281.955,24.4
54.27,281.99,24.458
54.3,282.025,24.377
54.33,281.99,24.263
54.37,281.674,24.171
54.4,281.393,24.137
54.43,281.393,23.988
54.46,281.007,23.839
54.5,280.341,23.724
54.53,279.674,23.621
54.56,279.112,23.564
54.59,278.586,23.472
54.63,278.34,23.495
54.66,278.2,23.564
54.69,277.603,23.404
54.72,276.48,23.255
54.76,275.252,23.037
54.79,274.059,22.716
54.82,272.69,22.384
54.85,271.286,21.995
54.89,269.742,21.628
54.92,268.163,21.227
54.95,266.443,20.952
54.98,264.758,20.666
55.02,262.968,20.253
55.05,260.933,20.104
55.08,259.283,19.887
55.11,257.634,19.566
55.15,255.809,19.326
55.18,253.879,19.154
55.21,251.808,19.016
55.24,249.913,18.993
55.28,248.158,18.925
55.31,246.474,18.684
55.34,244.438,18.489
55.37,242.438,18.421
55.41,240.613,18.455
55.44,238.753,18.317
55.47,236.998,18.398
55.5,235.419,18.501
55.54,233.208,18.168
55.57,231.102,18.191
55.6,229.488,18.306
55.64,227.663,18.031
55.67,225.627,18.02
55.7,223.697,18.031
55.73,221.872,17.756
55.77,219.942,17.939
55.8,218.082,17.939
55.83,216.011,17.687
55.86,214.011,17.871
55.9,212.045,17.768
55.93,210.045,17.561
55.96,208.08,17.745
55.99,206.255,17.596
56.03,204.254,17.493
56.06,202.394,17.756
56.09,200.534,17.561
56.12,198.323,17.447
56.16,196.358,17.55
56.19,194.427,17.286
56.22,192.357,17.057
56.25,190.532,17.16
56.29,188.707,16.943
56.32,186.25,16.702
56.35,183.934,16.897
56.38,181.898,16.748
56.42,179.688,16.359
56.45,177.371,16.462
56.48,175.02,16.21
56.51,172.704,15.889
56.55,170.598,15.98
56.58,168.211,15.614
56.61,165.544,15.431
56.64,163.052,15.373
56.68,160.631,15.041
56.71,157.964,14.72
56.74,155.507,14.457
56.77,152.945,14.09
56.81,149.962,13.758
56.84,146.944,13.609
56.87,144.312,13.426
56.9,141.714,13.082
56.94,139.012,12.853
56.97,136.064,12.578
57.0,133.046,12.303
57.03,130.063,12.005
57.07,127.08,11.559
57.1,124.062,11.192
57.13,120.868,10.791
57.16,117.499,10.321
57.2,114.095,9.943
57.23,110.76,9.439
57.26,107.356,8.993
57.29,104.057,8.718
57.33,100.548,8.248
57.36,96.898,7.927
57.39,93.529,7.652
57.42,90.019,7.148
57.46,86.404,6.736
57.49,82.965,6.564
57.52,79.842,6.301
57.55,76.578,5.968
57.59,73.174,5.831
57.62,70.015,5.659
57.65,66.891,5.361
57.68,63.733,5.063
57.72,60.329,4.914
57.75,56.96,4.72
57.78,53.485,4.559
57.81,50.291,4.353
57.85,46.992,4.009
57.88,43.518,3.666
57.91,39.798,3.391
57.95,37.798,2.509
57.98,41.132,1.26
58.01,44.711,-0.344
58.04,37.201,-1.489
58.08,27.69,-0.905
58.11,24.04,-0.332
58.14,21.829,-0.504
58.17,15.582,-1.214
58.21,4.703,-1.489
58.24,-4.773,-0.974
58.27,-9.23,-0.412
58.3,-11.722,-0.447
58.34,-15.863,-0.905
58.37,-12.108,-1.879
58.4,-12.775,-2.165
58.43,-19.618,-2.28
58.47,-24.461,-1.947
58.5,-27.48,-1.146
58.53,-29.164,-1.031
58.56,-31.375,-1.512
58.6,-34.604,-2.154
58.63,-38.956,-2.749
58.66,-43.448,-2.933
58.69,-47.449,-2.898
58.73,-50.642,-2.784
58.76,-53.345,-2.692
58.79,-55.801,-2.83
58.82,-58.539,-3.104
58.86,-61.662,-3.334
58.89,-65.067,-3.586
58.92,-68.576,-3.792
58.95,-72.05,-3.941
58.99,-75.42,-4.078
59.02,-78.859,-4.284
59.05,-82.193,-4.456
59.08,-85.527,-4.662
59.12,-88.756,-4.914
59.15,-91.949,-5.121
59.18,-94.687,-5.247
59.21,-97.144,-5.464
59.25,-99.706,-5.785
59.28,-102.548,-6.06
59.31,-105.637,-6.381
59.34,-108.76,-6.621
59.38,-111.778,-6.885
59.41,-114.761,-7.16
59.44,-117.78,-7.492
59.47,-120.728,-7.778
59.51,-123.676,-8.133
59.54,-126.624,-8.557
59.57,-129.712,-8.798
59.6,-132.695,-9.119
59.64,-135.959,-9.577
59.67,-139.188,-9.84
59.7,-142.065,-10.069
59.73,-145.013,-10.493
59.77,-148.032,-10.734
59.8,-150.874,-11.043
59.83,-153.893,-11.478
59.86,-156.946,-11.719
59.9,-159.859,-12.028
59.93,-162.772,-12.418
59.96,-165.649,-12.567
59.99,-168.282,-12.842
60.03,-171.124,-13.197
60.06,-173.932,-13.357
60.09,-176.74,-13.747
60.12,-179.582,-14.09
60.16,-182.355,-14.342
60.19,-184.917,-14.583
60.22,-187.444,-14.823
60.26,-190.111,-15.018
60.29,-192.497,-14.995
60.32,-194.708,-15.167
60.35,-197.165,-15.431
60.39,-199.376,-15.419
60.42,-201.552,-15.545
60.45,-203.693,-15.751
60.48,-205.658,-15.683
60.52,-207.448,-15.671
60.55,-209.343,-15.832
60.58,-211.238,-15.809
60.61,-213.133,-15.923
60.65,-215.063,-16.118
60.68,-216.853,-16.106
60.71,-218.538,-16.255
60.74,-220.187,-16.507
60.78,-221.767,-16.588
60.81,-223.521,-16.771
60.84,-225.206,-16.84
60.87,-226.855,-16.897
60.91,-228.61,-17.069
60.94,-230.505,-17.275
60.97,-232.155,-17.412
61.0,-233.453,-17.55
61.04,-234.752,-17.722
61.07,-236.366,-18.008
61.1,-238.086,-18.168
61.13,-239.7,-18.295
61.17,-241.209,-18.581
61.2,-242.578,-18.65
61.23,-243.771,-18.81
61.26,-245.0,-19.108
61.3,-246.404,-19.268
61.33,-247.807,-19.417
61.36,-249.176,-19.6
61.39,-250.65,-19.91
61.43,-252.299,-20.162
61.46,-253.738,-20.379
61.49,-255.037,-20.7
61.52,-256.3,-21.009
61.56,-257.634,-21.044
61.59,-258.932,-21.204
61.62,-260.126,-21.388
61.65,-261.179,-21.376
61.69,-262.231,-21.571
61.72,-263.46,-21.743
61.75,-264.864,-21.949
61.78,-266.092,-22.212
61.82,-267.145,-22.396
61.85,-268.198,-22.636
61.88,-269.18,-22.762
61.91,-270.128,-22.888
61.95,-271.286,-23.175
61.98,-272.234,-23.312
62.01,-273.111,-23.369
62.04,-273.778,-23.518
62.08,-274.62,-23.587
62.11,-275.462,-23.621
62.14,-276.059,-23.77
62.17,-276.691,-24.022
62.21,-277.673,-24.068
62.24,-278.445,-24.102
62.27,-278.937,-24.091
62.3,-279.463,-24.137
62.34,-280.06,-24.228
62.37,-280.235,-24.011
62.4,-280.235,-24.102
62.43,-280.727,-24.412
62.47,-281.499,-24.412
62.5,-281.639,-24.366
62.53,-281.569,-24.458
62.57,-281.534,-24.377
62.6,-281.499,-24.332
62.63,-281.429,-24.183
62.66,-281.218,-24.102
62.7,-281.078,-24.068
62.73,-280.937,-23.942
62.76,-280.586,-23.942
62.79,-280.025,-23.793
62.83,-279.393,-23.69
62.86,-278.937,-23.53
62.89,-278.375,-23.22
62.92,-277.638,-23.014
62.96,-276.726,-22.854
62.99,-275.883,-22.762
63.02,-275.006,-22.693
63.05,-274.023,-22.499
63.09,-272.83,-22.327
63.12,-271.461,-22.132
63.15,-270.128,-21.834
63.18,-268.97,-21.594
63.22,-267.812,-21.307
63.25,-266.513,-21.193
63.28,-265.074,-21.021
63.31,-263.67,-20.872
63.35,-262.231,-20.769
63.38,-260.617,-20.505
63.41,-258.897,-20.391
63.44,-257.388,-20.265
63.48,-255.879,-20.024
63.51,-254.195,-19.91
63.54,-252.44,-19.864
63.57,-250.65,-19.612
63.61,-248.825,-19.452
63.64,-247.176,-19.383
63.67,-245.456,-19.142
63.7,-243.526,-19.039
63.74,-241.771,-19.085
63.77,-240.051,-18.89
63.8,-238.226,-18.821
63.83,-236.366,-18.741
63.87,-234.401,-18.547
63.9,-232.506,-18.547
63.93,-230.716,-18.478
63.96,-228.856,-18.363
64.0,-226.891,-18.249
64.03,-224.925,-18.1
64.06,-222.855,-18.18
64.09,-221.03,-18.168
64.13,-219.17,-18.1
64.16,-217.204,-18.031
64.19,-215.274,-17.882
64.22,-213.414,-17.939
64.26,-211.378,-17.733
64.29,-209.132,-17.596
64.32,-207.132,-17.699
64.35,-205.237,-17.504
64.39,-203.166,-17.435
64.42,-200.99,-17.39
64.45,-198.779,-17.252
64.48,-196.744,-17.264
64.52,-194.884,-17.103
64.55,-192.953,-16.885
64.58,-190.953,-16.885
64.61,-188.672,-16.885
64.65,-186.32,-16.748
64.68,-184.004,-16.599
64.71,-181.688,-16.416
64.74,-179.337,-16.164
64.78,-177.055,-15.958
64.81,-174.774,-15.809
64.84,-172.633,-15.625
64.88,-170.352,-15.419
64.91,-167.79,-15.202
64.94,-165.158,-15.064
64.97,-162.526,-14.904
65.01,-159.859,-14.675
65.04,-157.367,-14.48
65.07,-155.261,-14.285
65.1,-152.805,-13.918
65.14,-149.892,-13.621
65.17,-146.733,-13.277
65.2,-143.925,-13.014
65.23,-141.258,-12.842
65.27,-138.416,-12.441
65.3,-135.362,-12.212
65.33,-132.59,-11.994
65.36,-129.852,-11.582
65.4,-126.799,-11.249
65.43,-123.64,-10.952
65.46,-120.447,-10.642
65.49,-117.218,-10.356
65.53,-114.13,-9.943
65.56,-110.866,-9.611
65.59,-107.602,-9.302
65.62,-104.338,-8.901
65.66,-101.039,-8.557
65.69,-97.67,-8.191
65.72,-94.231,-7.732
65.75,-90.651,-7.286
65.79,-87.001,-6.839
65.82,-83.316,-6.438
65.85,-79.807,-6.083
65.88,-76.367,-5.762
65.92,-72.963,-5.453
65.95,-69.348,-5.098
65.98,-65.768,-4.914
66.01,-62.329,-4.617
66.05,-58.96,-4.273
66.08,-55.626,-4.021
66.11,-52.187,-3.746
66.14,-48.782,-3.505
66.18,-45.554,-3.402
66.21,-42.22,-3.047
66.24,-38.464,-2.898
66.27,-35.762,-2.406
66.31,-38.71,-1.306
66.34,-43.553,0.195
66.37,-36.183,1.512
66.4,-26.392,0.836
66.44,-22.987,0.218
66.47,-21.198,0.424
66.5,-14.88,1.237
66.53,-3.299,1.501
66.57,6.528,1.008
66.6,11.652,0.401
66.63,14.073,0.515
66.66,19.092,0.561
66.7,14.354,1.684
66.73,13.196,1.982
66.76,19.583,2.234
66.79,23.865,1.959
66.83,26.848,0.905
66.86,28.146,0.882
66.89,30.217,1.214
66.92,33.235,1.867
66.96,37.692,2.532
66.99,42.325,2.738
67.02,46.642,2.726
67.05,50.116,2.692
67.09,53.029,2.555
67.12,55.661,2.784
67.15,58.749,3.059
67.18,61.873,3.265
67.22,65.277,3.505
67.25,68.716,3.735
67.28,72.05,3.861
67.32,75.349,3.998
67.35,78.613,4.239
67.38,81.947,4.491
67.41,85.352,4.662
67.45,88.721,4.926
67.48,91.774,5.212
67.51,94.441,5.338
67.54,96.968,5.602
67.58,99.741,5.98
67.61,102.618,6.163
67.64,105.637,6.449
67.67,108.62,6.759
67.71,111.568,7.022
67.74,114.621,7.332
67.77,117.78,7.664
67.8,120.763,7.881
67.84,123.395,8.133
67.87,126.167,8.534
67.9,129.256,8.878
67.93,132.309,9.119
67.97,135.678,9.6
68.0,138.837,9.898
68.03,141.679,10.184
68.06,144.522,10.711
68.1,147.575,10.986
68.13,150.594,11.284
68.16,153.506,11.524
68.19,156.314,11.753
68.23,159.192,12.074
68.26,162.21,12.315
68.29,164.983,12.567
68.32,167.755,12.876
68.36,170.563,13.071
68.39,173.195,13.357
68.42,175.897,13.678
68.45,178.915,14.033
68.49,181.934,14.274
68.52,184.566,14.514
68.55,186.847,14.858
68.58,189.268,14.995
68.62,191.69,15.179
68.65,194.252,15.362
68.68,196.533,15.35
68.71,198.639,15.454
68.75,200.85,15.66
68.78,203.026,15.683
68.81,204.991,15.694
68.84,206.781,15.797
68.88,208.606,15.877
68.91,210.536,15.935
68.94,212.502,16.038
68.97,214.467,16.118
69.01,216.222,16.244
69.04,218.292,16.485
69.07,220.082,16.519
69.1,221.451,16.542
69.14,222.925,16.794
69.17,224.715,17.0
69.2,226.61,17.16
69.23,228.435,17.252
69.27,230.154,17.481
69.3,231.874,17.745
69.33,233.348,17.894
69.36,234.682,18.065
69.4,236.121,18.203
69.43,237.77,18.363
69.46,239.595,18.569
69.49,241.174,18.753
69.53,242.683,18.947
69.56,244.087,19.211
69.59,245.561,19.383
69.63,246.825,19.44
69.66,247.983,19.635
69.69,249.632,19.933
69.72,251.247,20.116
69.76,252.615,20.242
69.79,253.984,20.54
69.82,255.493,20.803
69.85,256.862,20.998
69.89,257.915,21.204
69.92,259.108,21.41
69.95,260.301,21.548
69.98,261.389,21.536
70.02,262.512,21.777
70.05,263.811,21.926
70.08,265.109,22.075
70.11,266.232,22.292
70.15,267.215,22.407
70.18,268.127,22.671
70.21,269.25,22.865
70.24,270.444,22.991
70.28,271.567,23.197
70.31,272.62,23.346
70.34,273.567,23.495
70.37,274.234,23.438
70.41,274.901,23.576
70.44,275.638,23.736
70.47,276.34,23.77
70.5,276.901,23.999
70.54,277.744,24.102
70.57,278.516,24.137
70.6,278.972,24.263
70.63,279.393,24.332
70.67,280.06,24.435
70.7,280.692,24.366
70.73,280.902,24.286
70.76,281.113,24.435
70.8,281.955,24.664
70.83,282.692,24.549
70.86,282.516,24.458
70.89,282.166,24.584
70.93,282.166,24.515
70.96,282.306,24.423
70.99,282.306,24.228
71.02,281.955,24.08
71.06,281.709,24.148
71.09,281.534,24.068
71.12,281.078,23.862
71.15,280.481,23.805
71.19,279.814,23.644
71.22,279.077,23.369
71.25,278.305,23.14
71.28,277.638,23.163
71.32,277.112,23.071
71.35,276.305,22.877
71.38,275.111,22.693
71.41,273.743,22.43
71.45,272.549,22.178
71.48,271.321,21.892
71.51,269.917,21.525
71.54,268.198,21.216
71.58,266.513,21.055
71.61,265.074,20.803
71.64,263.635,20.7
71.67,262.196,20.517
71.71,260.477,20.15
71.74,258.582,20.036
71.77,256.967,19.715
71.8,255.283,19.474
71.84,253.598,19.555
71.87,251.949,19.429
71.9,250.159,19.291
71.94,248.369,19.291
71.97,246.79,19.199
72.0,245.035,19.051
72.03,243.175,19.016
72.07,241.49,18.982
72.1,239.7,18.833
72.13,237.981,18.902
72.16,236.261,18.787
72.2,234.331,18.524
72.23,232.365,18.638
72.26,230.47,18.581
72.29,228.505,18.249
72.33,226.364,18.226
72.36,224.434,18.146
72.39,222.504,18.077
72.42,220.679,18.134
72.46,218.959,18.1
72.49,216.994,17.985
72.52,214.888,17.962
72.55,212.888,17.962
72.59,211.168,17.928
72.62,209.273,17.951
72.65,207.167,17.836
72.68,205.167,17.733
72.72,203.271,17.813
72.75,201.166,17.516
72.78,198.814,17.286
72.81,196.884,17.355
72.85,194.849,17.046
72.88,192.778,17.057
72.91,190.813,17.183
72.94,188.602,16.897
72.98,186.285,16.851
73.01,184.109,16.84
73.04,181.828,16.519
73.07,179.512,16.301
73.11,177.441,16.187
73.14,175.09,15.935
73.17,172.704,15.797
73.2,170.422,15.614
73.24,168.001,15.362
73.27,165.263,15.259
73.3,162.666,15.064
73.33,160.104,14.846
73.37,157.718,14.652
73.4,155.367,14.411
73.43,152.664,14.182
73.46,149.821,13.838
73.5,147.084,13.518
73.53,144.276,13.208
73.56,141.328,12.83
73.59,138.275,12.67
73.63,135.538,12.395
73.66,132.835,12.074
73.69,130.133,11.811
73.72,127.22,11.444
73.76,124.026,11.112
73.79,120.692,10.791
73.82,117.358,10.39
73.85,114.2,10.069
73.89,111.111,9.703
73.92,107.988,9.416
73.95,104.724,9.061
73.98,101.039,8.615
74.02,97.424,8.34
74.05,94.231,8.042
74.08,91.037,7.561
74.11,87.527,7.16
74.15,83.842,6.701
74.18,80.228,6.381
74.21,76.823,6.129
74.25,73.419,5.762
74.28,70.05,5.499
74.31,66.646,5.155
74.34,63.277,4.823
74.38,59.908,4.502
74.41,56.503,4.261
74.44,53.134,4.09
74.47,49.695,3.906
74.51,46.185,3.666
74.54,42.606,3.46
74.57,38.991,3.093
74.6,37.201,3.001
74.64,40.746,1.902
74.67,43.167,-0.596
74.7,35.025,-1.398
74.73,26.988,-0.699
74.77,24.426,-0.229
74.8,22.215,-0.584
74.83,15.161,-1.272
74.86,4.457,-1.409
74.9,-4.492,-0.939
74.93,-8.809,-0.435
74.96,-12.003,-0.619
74.99,-16.003,-0.561
75.03,-11.792,-1.1
75.06,-13.091,-2.635
75.09,-19.864,-2.303
75.12,-24.146,-1.352
75.16,-26.602,-1.077
75.19,-28.357,-1.077
75.22,-30.673,-1.443
75.25,-34.113,-2.142
75.29,-38.394,-2.589
75.32,-42.676,-2.761
75.35,-46.606,-2.772
75.38,-49.8,-2.658
75.42,-52.608,-2.623
75.45,-55.38,-2.887
75.48,-58.504,-3.127
75.51,-61.838,-3.356
75.55,-65.453,-3.689
75.58,-69.138,-3.872
75.61,-72.647,-4.021
75.64,-76.051,-4.158
75.68,-79.42,-4.33
75.71,-82.579,-4.548
75.74,-85.632,-4.674
75.77,-88.615,-4.949
75.81,-91.563,-5.166
75.84,-94.406,-5.292
75.87,-97.038,-5.579
75.9,-99.776,-5.888
75.94,-102.548,-6.175
75.97,-105.637,-6.495
76.0,-109.006,-6.724
76.03,-112.164,-6.965
76.07,-115.077,-7.309
76.1,-117.955,-7.595
76.13,-120.833,-7.859
76.16,-123.605,-8.202
76.2,-126.659,-8.523
76.23,-129.712,-8.752
76.26,-132.765,-9.084
76.29,-135.713,-9.474
76.33,-138.837,-9.749
76.36,-141.89,-10.127
76.39,-144.943,-10.585
76.42,-147.961,-10.803
76.46,-150.804,-10.997
76.49,-153.612,-11.398
76.52,-156.56,-11.696
76.56,-159.438,-11.925
76.59,-162.386,-12.246
76.62,-165.228,-12.452
76.65,-167.86,-12.739
76.69,-170.668,-13.071
76.72,-173.511,-13.3
76.75,-176.213,-13.598
76.78,-179.091,-13.907
76.82,-182.004,-14.216
76.85,-184.566,-14.537
76.88,-187.022,-14.755
76.91,-189.655,-14.949
76.95,-192.146,-15.075
76.98,-194.322,-15.247
77.01,-196.393,-15.408
77.04,-198.744,-15.568
77.08,-201.166,-15.683
77.11,-203.482,-15.717
77.14,-205.412,-15.774
77.17,-207.237,-15.763
77.21,-209.132,-15.866
77.24,-211.168,-16.072
77.27,-213.133,-16.141
77.3,-214.853,-16.221
77.34,-216.608,-16.416
77.37,-218.503,-16.496
77.4,-220.433,-16.633
77.43,-222.153,-16.622
77.47,-223.592,-16.679
77.5,-225.136,-17.0
77.53,-226.961,-17.126
77.56,-228.751,-17.298
77.6,-230.646,-17.596
77.63,-232.26,-17.71
77.66,-233.418,-17.802
77.69,-234.576,-17.974
77.73,-236.296,-18.226
77.76,-238.121,-18.34
77.79,-239.63,-18.398
77.82,-241.069,-18.581
77.86,-242.438,-18.753
77.89,-243.877,-19.051
77.92,-245.456,-19.348
77.95,-246.825,-19.429
77.99,-248.088,-19.658
78.02,-249.316,-19.91
78.05,-250.72,-20.139
78.08,-252.37,-20.46
78.12,-253.914,-20.609
78.15,-255.283,-20.757
78.18,-256.546,-20.952
78.21,-257.774,-21.067
78.25,-258.932,-21.342
78.28,-260.056,-21.468
78.31,-261.179,-21.594
78.34,-262.337,-21.754
78.38,-263.6,-21.903
78.41,-264.828,-22.189
78.44,-265.846,-22.373
78.47,-266.864,-22.556
78.51,-267.987,-22.739
78.54,-269.075,-22.865
78.57,-270.023,-23.037
78.6,-271.111,-23.232
78.64,-272.163,-23.427
78.67,-273.041,-23.587
78.7,-273.883,-23.713
78.73,-274.62,-23.77
78.77,-275.392,-23.896
78.8,-276.129,-23.885
78.83,-276.831,-23.942
78.87,-277.638,-24.148
78.9,-278.34,-24.24
78.93,-278.902,-24.274
78.96,-279.533,-24.343
79.0,-280.165,-24.389
79.03,-280.411,-24.274
79.06,-280.305,-24.343
79.09,-280.762,-24.561
79.13,-281.464,-24.733
79.16,-281.885,-24.538
79.19,-281.779,-24.526
79.22,-281.674,-24.584
79.26,-281.604,-24.423
79.29,-281.253,-24.377
79.32,-280.972,-24.263
79.35,-280.832,-24.148
79.39,-280.832,-24.171
79.42,-280.656,-23.965
79.45,-280.095,-23.793
79.48,-279.533,-23.747
79.52,-278.831,-23.53
79.55,-278.024,-23.392
79.58,-277.217,-23.312
79.61,-276.515,-23.129
79.65,-275.883,-23.037
79.68,-274.971,-22.819
79.71,-273.813,-22.59
79.74,-272.444,-22.338
79.78,-271.111,-22.086
79.81,-269.987,-21.937
79.84,-268.935,-21.594
79.87,-267.706,-21.468
79.91,-266.302,-21.433
79.94,-264.758,-21.147
79.97,-263.39,-21.135
80.0,-262.126,-20.964
80.04,-260.582,-20.677
80.07,-258.862,-20.517
80.1,-257.213,-20.379
80.13,-255.634,-20.265
80.17,-253.984,-20.139
80.2,-252.44,-20.059
80.23,-250.685,-19.807
80.26,-248.79,-19.635
80.3,-247.105,-19.6
80.33,-245.456,-19.371
80.36,-243.596,-19.257
80.39,-241.876,-19.28
80.43,-240.051,-19.165
80.46,-238.226,-19.131
80.49,-236.472,-19.131
80.52,-234.682,-19.005
80.56,-232.751,-18.902
80.59,-230.856,-18.879
80.62,-229.102,-18.821
80.65,-227.136,-18.638
80.69,-225.066,-18.489
80.72,-223.206,-18.432
80.75,-221.346,-18.295
80.78,-219.345,-18.237
80.82,-217.31,-18.088
80.85,-215.379,-17.962
80.88,-213.449,-17.951
80.91,-211.659,-17.768
80.95,-209.378,-17.63
80.98,-206.956,-17.642
81.01,-204.781,-17.561
81.04,-202.78,-17.435
81.08,-200.674,-17.275
81.11,-198.393,-17.08
81.14,-196.182,-17.0
81.18,-194.357,-17.011
81.21,-192.603,-16.977
81.24,-190.497,-16.771
81.27,-188.286,-16.714
81.31,-186.075,-16.748
81.34,-183.794,-16.565
81.37,-181.512,-16.45
81.4,-179.372,-16.381
81.44,-177.09,-16.118
81.47,-174.879,-16.049
81.5,-172.704,-16.015
81.53,-170.142,-15.706
81.57,-167.545,-15.625
81.6,-165.193,-15.35
81.63,-162.631,-14.927
81.66,-159.964,-14.686
81.7,-157.402,-14.423
81.73,-154.805,-14.216
81.76,-152.313,-13.999
81.79,-149.786,-13.747
81.83,-146.909,-13.437
81.86,-144.031,-13.208
81.89,-141.258,-12.865
81.92,-138.31,-12.487
81.96,-135.327,-12.338
81.99,-132.66,-12.12
82.02,-130.028,-11.834
82.05,-126.939,-11.536
82.09,-123.676,-11.192
82.12,-120.587,-10.825
82.15,-117.393,-10.413
82.18,-114.2,-10.081
82.22,-110.866,-9.737
82.25,-107.707,-9.29
82.28,-104.373,-8.958
82.31,-100.934,-8.615
82.35,-97.424,-8.168
82.38,-93.81,-7.767
82.41,-90.3,-7.274
82.44,-87.036,-6.965
82.48,-83.527,-6.507
82.51,-79.877,-6.049
82.54,-76.402,-5.865
82.57,-72.963,-5.453
82.61,-69.313,-5.109
82.64,-65.909,-4.949
82.67,-62.469,-4.617
82.7,-58.89,-4.365
82.74,-55.45,-4.273
82.77,-52.222,-3.975
82.8,-48.888,-3.608
82.83,-45.589,-3.414
82.87,-42.079,-3.185
82.9,-38.394,-2.841
82.93,-35.762,-2.83
82.96,-39.061,-2.314
83.0,-43.167,0.367
83.03,-35.271,1.478
83.06,-26.392,0.722
83.09,-23.935,0.149
83.13,-22.075,0.47
83.16,-15.407,1.26
83.19,-3.685,1.501
83.22,5.861,0.974
83.26,10.95,0.412
83.29,13.441,0.55
83.32,18.741,0.55
83.35,13.898,0.504
83.39,12.669,2.738
83.42,19.513,2.543
83.45,23.619,1.237
83.49,26.462,1.123
83.52,27.866,0.848
83.55,30.042,1.18
83.58,33.34,2.062
83.62,38.113,2.623
83.65,42.781,2.83
83.68,47.133,2.91
83.71,50.502,2.738
83.75,53.38,2.646
83.78,55.977,2.864
83.81,59.065,3.173
83.84,62.189,3.356
83.88,65.593,3.631
83.91,69.032,3.838
83.94,72.401,3.941
83.97,75.665,4.101
84.01,78.754,4.307
84.04,81.947,4.536
84.07,85.246,4.777
84.1,88.405,4.949
84.14,91.318,5.166
84.17,94.125,5.43
84.2,96.793,5.602
84.23,99.53,5.865
84.27,102.478,6.175
84.3,105.531,6.472
84.33,108.514,6.782
84.36,111.462,7.16
84.4,114.551,7.4
84.43,117.499,7.71
84.46,120.341,8.019
84.49,123.325,8.282
84.53,126.553,8.592
84.56,129.572,8.798
84.59,132.484,9.164
84.62,135.538,9.634
84.66,138.731,9.943
84.69,141.89,10.31
84.72,144.803,10.642
84.75,147.61,10.929
84.79,150.453,11.238
84.82,153.331,11.547
84.85,156.244,11.799
84.88,159.157,12.074
84.92,162.07,12.395
84.95,164.772,12.601
84.98,167.685,12.968
85.01,170.528,13.151
85.05,173.16,13.357
85.08,176.003,13.827
85.11,178.81,14.045
85.14,181.548,14.354
85.18,184.25,14.709
85.21,186.777,14.869
85.24,189.128,15.087
85.27,191.62,15.328
85.31,194.077,15.339
85.34,196.358,15.385
85.37,198.744,15.58
85.4,201.025,15.58
85.44,202.885,15.671
85.47,204.781,15.946
85.5,206.746,15.912
85.53,208.676,15.843
85.57,210.606,16.026
85.6,212.537,16.084
85.63,214.467,16.198
85.66,216.292,16.462
85.7,218.327,16.565
85.73,219.977,16.645
85.76,221.451,16.782
85.8,223.065,16.874
85.83,224.89,17.011
85.86,226.645,17.149
85.89,228.224,17.229
85.93,229.768,17.493
85.96,231.593,17.802
85.99,233.243,17.882
86.02,234.647,18.031
86.06,236.331,18.363
86.09,238.051,18.409
86.12,239.63,18.581
86.15,241.174,18.833
86.19,242.613,18.925
86.22,244.193,19.314
86.25,245.772,19.555
86.28,246.93,19.383
86.32,248.018,19.704
86.35,249.527,20.104
86.38,250.966,19.978
86.41,252.194,20.299
86.45,253.809,20.7
86.48,255.388,20.723
86.51,256.686,20.975
86.54,257.845,21.193
86.58,258.932,21.33
86.61,260.02,21.525
86.64,261.179,21.754
86.67,262.407,21.846
86.71,263.635,21.892
86.74,264.934,22.144
86.77,266.267,22.304
86.8,267.32,22.464
86.84,268.163,22.819
86.87,269.215,23.06
86.9,270.338,23.152
86.93,271.532,23.335
86.97,272.585,23.404
87.0,273.357,23.438
87.03,273.988,23.621
87.06,274.796,23.839
87.1,275.462,23.747
87.13,276.234,23.885
87.16,277.147,24.022
87.19,277.884,24.125
87.23,278.656,24.228
87.26,279.218,24.286
87.29,279.604,24.389
87.32,280.2,24.446
87.36,280.621,24.458
87.39,280.832,24.458
87.42,281.113,24.595
87.45,281.92,24.813
87.49,282.587,24.744
87.52,282.657,24.584
87.55,282.341,24.584
87.58,282.201,24.572
87.62,282.271,24.481
87.65,282.13,24.286
87.68,281.779,24.194
87.71,281.604,24.228
87.75,281.604,24.091
87.78,281.113,23.85
87.81,280.305,23.782
87.84,279.568,23.598
87.88,278.972,23.495
87.91,278.305,23.278
87.94,277.463,23.06
87.97,276.656,22.98
88.01,275.848,22.739
88.04,274.655,22.487
88.07,273.357,22.315
88.11,272.023,22.063
88.14,270.619,21.777
88.17,269.18,21.468
88.2,267.671,21.261
88.24,266.232,21.009
88.27,264.793,20.803
88.3,263.425,20.677
88.33,261.951,20.345
88.37,260.231,20.265
88.4,258.406,20.162
88.43,256.827,19.933
88.46,255.353,20.036
88.5,253.809,19.852
88.53,252.089,19.646
88.56,250.369,19.795
88.59,248.755,19.589
88.63,247.0,19.337
88.66,245.351,19.337
88.69,243.842,19.268
88.72,241.946,18.993
88.76,239.981,18.947
88.79,238.297,19.073
88.82,236.542,18.776
88.85,234.366,18.673
88.89,232.19,18.764
88.92,230.295,18.661
88.95,228.575,18.547
88.98,226.645,18.375
89.02,224.574,18.237
89.05,222.644,18.237
89.08,220.995,18.226
89.11,219.31,18.1
89.15,217.239,18.042
89.18,214.958,17.985
89.21,212.852,17.871
89.24,211.028,17.928
89.28,209.167,17.733
89.31,207.062,17.607
89.34,205.202,17.836
89.37,203.271,17.516
89.41,200.71,17.252
89.44,198.639,17.435
89.47,196.744,17.172
89.5,194.392,16.851
89.54,192.427,17.137
89.57,190.602,16.977
89.6,188.251,16.645
89.63,186.145,16.977
89.67,184.109,16.714
89.7,181.688,16.393
89.73,179.372,16.519
89.76,177.301,16.198
89.8,174.985,15.969
89.83,172.774,16.038
89.86,170.387,15.797
89.89,167.685,15.637
89.93,165.263,15.591
89.96,162.877,15.121
89.99,160.315,14.766
90.02,157.788,14.697
90.06,155.296,14.308
90.09,152.664,14.113
90.12,149.927,13.884
90.15,147.084,13.54
90.19,144.206,13.426
90.22,141.328,13.002
90.25,138.24,12.693
90.28,135.397,12.59
90.32,132.73,12.235
90.35,129.782,11.834
90.38,126.834,11.627
90.42,123.886,11.318
90.45,120.798,10.952
90.48,117.639,10.596
90.51,114.375,10.184
90.55,111.147,9.772
90.58,107.883,9.531
90.61,104.689,9.176
90.64,101.25,8.729
90.68,97.81,8.42
90.71,94.336,7.985
90.74,90.616,7.446
90.77,86.966,7.102
90.81,83.527,6.759
90.84,80.087,6.346
90.87,76.613,5.945
90.9,73.209,5.613
90.94,69.804,5.201
90.97,66.26,5.04
91.0,62.82,4.788
91.03,59.311,4.433
91.07,55.907,4.284
91.1,52.713,4.067
91.13,49.625,4.009
91.16,46.712,4.101
91.2,44.009,3.987
91.23,40.921,3.918
91.26,39.868,3.219
91.29,43.588,1.879
91.33,49.835,0.229
91.36,45.624,-1.375
91.39,35.411,-1.123
91.42,30.077,-0.504
91.46,26.567,-0.619
91.49,19.337,-1.363
91.52,6.071,-1.902
91.55,-7.51,-1.512
91.59,-16.109,-0.825
91.62,-20.285,-0.435
91.65,-23.514,-0.745
91.68,-19.513,-2.039
91.72,-19.899,-2.406
91.75,-25.83,-2.681
91.78,-29.269,-1.902
91.81,-30.147,-1.146
91.85,-30.357,-1.42
91.88,-31.972,-1.695
91.91,-34.955,-2.303
91.94,-39.236,-2.956
91.98,-43.658,-3.013
92.01,-47.414,-2.864
92.04,-50.677,-2.864
92.07,-53.836,-3.013
92.11,-57.1,-3.185
92.14,-60.399,-3.402
92.17,-64.084,-3.723
92.2,-67.909,-4.009
92.24,-71.629,-4.135
92.27,-75.104,-4.216
92.3,-78.368,-4.41
92.33,-81.526,-4.605
92.37,-84.579,-4.777
92.4,-87.668,-4.983
92.43,-90.511,-5.224
92.46,-93.108,-5.43
92.5,-95.775,-5.648
92.53,-98.512,-5.865
92.56,-101.495,-6.014
92.59,-104.724,-6.278
92.63,-107.953,-6.507
92.66,-110.866,-6.644
92.69,-113.638,-7.045
92.73,-116.727,-7.458
92.76,-119.604,-7.606
92.79,-122.096,-7.859
92.82,-124.799,-8.237
92.86,-127.992,-8.489
92.89,-131.221,-8.809
92.92,-134.485,-9.05
92.95,-137.503,-9.371
92.99,-140.486,-9.806
93.02,-143.399,-10.138
93.05,-146.136,-10.47
93.08,-148.979,-10.791
93.12,-152.032,-11.181
93.15,-155.402,-11.421
93.18,-158.279,-11.616
93.21,-160.947,-12.086
93.25,-163.754,-12.498
93.28,-166.562,-12.693
93.31,-169.475,-13.059
93.34,-172.423,-13.334
93.38,-175.16,-13.529
93.41,-178.003,-13.987
93.44,-181.126,-14.193
93.47,-183.794,-14.297
93.51,-186.391,-14.755
93.54,-189.023,-14.961
93.57,-191.199,-15.007
93.6,-193.55,-15.385
93.64,-196.323,-15.591
93.67,-198.814,-15.58
93.7,-200.955,-15.694
93.73,-203.061,-15.923
93.77,-205.132,-15.958
93.8,-207.097,-16.003
93.83,-209.097,-16.164
93.86,-209.834,-15.476
93.9,-208.43,-14.148
93.93,-207.167,-13.701
93.96,-207.869,-13.437
93.99,-209.308,-12.613
94.03,-209.94,-12.005
94.06,-209.94,-11.765
94.09,-210.747,-11.983
94.12,-212.677,-12.487
94.16,-214.993,-12.887
94.19,-216.924,-13.518
94.22,-218.713,-14.365
94.25,-220.398,-15.053
94.29,-222.433,-15.854
94.32,-224.82,-16.565
94.35,-227.031,-17.0
94.38,-229.031,-17.619
94.42,-231.172,-18.249
94.45,-233.418,-18.65
94.48,-235.699,-19.337
94.51,-238.051,-19.887
94.55,-240.262,-20.242
94.58,-242.368,-20.574
94.61,-243.912,-20.906
94.64,-245.526,-21.227
94.68,-247.456,-21.548
94.71,-249.597,-21.846
94.74,-251.422,-21.937
94.77,-252.896,-22.178
94.81,-254.44,-22.419
94.84,-256.02,-22.476
94.87,-257.494,-22.522
94.9,-258.897,-22.625
94.94,-260.126,-22.762
94.97,-261.319,-22.808
95.0,-262.477,-22.98
95.04,-263.846,-23.186
95.07,-265.32,-23.301
95.1,-266.689,-23.289
95.13,-267.776,-23.381
95.17,-268.829,-23.472
95.2,-269.777,-23.53
95.23,-270.795,-23.782
95.26,-271.848,-23.908
95.3,-272.9,-24.057
95.33,-273.848,-24.206
95.36,-274.76,-24.125
95.39,-275.462,-24.114
95.43,-276.164,-24.183
95.46,-276.761,-24.171
95.49,-277.357,-24.194
95.52,-278.059,-24.343
95.56,-278.621,-24.228
95.59,-278.937,-24.148
95.62,-279.323,-24.24
95.65,-279.779,-24.16
95.69,-280.06,-24.091
95.72,-280.27,-23.999
95.75,-280.411,-23.976
95.78,-280.481,-24.091
95.82,-280.621,-24.091
95.85,-280.586,-24.068
95.88,-280.516,-24.045
95.91,-280.376,-23.931
95.95,-280.2,-23.885
95.98,-280.13,-23.77
96.01,-280.2,-23.782
96.04,-280.095,-23.759
96.08,-279.674,-23.667
96.11,-279.182,-23.667
96.14,-278.656,-23.621
96.17,-278.13,-23.541
96.21,-277.463,-23.346
96.24,-276.726,-23.243
96.27,-276.129,-23.22
96.3,-275.638,-23.014
96.34,-274.901,-22.797
96.37,-273.778,-22.659
96.4,-272.514,-22.567
96.43,-271.321,-22.338
96.47,-270.023,-22.086
96.5,-268.935,-21.972
96.53,-267.882,-21.788
96.56,-266.618,-21.651
96.6,-265.25,-21.491
96.63,-263.951,-21.41
96.66,-262.653,-21.239
96.69,-261.108,-20.952
96.73,-259.564,-20.815
96.76,-258.09,-20.551
96.79,-256.581,-20.391
96.82,-255.072,-20.391
96.86,-253.528,-20.173
96.89,-251.843,-20.07
96.92,-250.053,-20.082
96.95,-248.053,-19.818
96.99,-246.088,-19.635
97.02,-244.579,-19.726
97.05,-243.105,-19.429
97.08,-241.209,-19.142
97.12,-239.384,-19.199
97.15,-237.63,-19.188
97.18,-235.805,-19.039
97.21,-233.875,-19.005
97.25,-231.979,-19.028
97.28,-230.19,-18.833
97.31,-228.224,-18.673
97.35,-226.048,-18.535
97.38,-224.013,-18.443
97.41,-222.258,-18.398
97.44,-220.187,-18.226
97.48,-217.871,-18.008
97.51,-215.8,-17.985
97.54,-213.976,-17.894
97.57,-212.01,-17.607
97.61,-209.904,-17.573
97.64,-207.764,-17.527
97.67,-205.377,-17.264
97.7,-203.201,-17.309
97.74,-201.236,-17.149
97.77,-198.849,-16.771
97.8,-196.638,-16.84
97.83,-194.743,-16.805
97.87,-192.673,-16.576
97.9,-190.602,-16.679
97.93,-188.637,-16.53
97.96,-186.391,-16.267
98.0,-184.039,-16.29
98.03,-181.688,-16.175
98.06,-179.372,-15.98
98.09,-177.09,-15.958
98.13,-175.055,-15.832
98.16,-172.563,-15.454
98.19,-169.931,-15.316
98.22,-167.509,-15.224
98.26,-165.298,-14.984
98.29,-162.982,-14.789
98.32,-160.315,-14.445
98.35,-157.402,-14.331
98.39,-154.875,-14.274
98.42,-152.559,-14.01
98.45,-150.137,-13.827
98.48,-147.365,-13.495
98.52,-144.417,-13.311
98.55,-141.574,-13.071
98.58,-138.626,-12.67
98.61,-135.678,-12.487
98.65,-133.011,-12.212
98.68,-130.554,-11.788
98.71,-127.782,-11.49
98.74,-124.377,-11.1
98.78,-120.903,-10.803
98.81,-117.639,-10.516
98.84,-114.516,-10.115
98.87,-111.533,-9.806
98.91,-108.304,-9.325
98.94,-104.935,-9.004
98.97,-101.566,-8.58
99.0,-98.056,-8.202
99.04,-94.547,-7.87
99.07,-91.037,-7.412
99.1,-87.492,-6.999
99.13,-83.948,-6.53
99.17,-80.508,-6.14
99.2,-76.964,-5.819
99.23,-73.314,-5.51
99.26,-69.98,-5.235
99.3,-66.541,-5.006
99.33,-63.101,-4.594
99.36,-59.662,-4.422
99.39,-56.468,-4.284
99.43,-53.064,-3.918
99.46,-49.484,-3.792
99.49,-46.15,-3.631
99.52,-42.921,-3.265
99.56,-39.517,-3.196
99.59,-37.376,-2.566
99.62,-40.605,-1.111
99.66,-44.466,0.286
99.69,-37.201,1.432
99.72,-28.217,0.733
99.75,-25.233,0.241
99.79,-22.601,0.573
99.82,-15.091,1.375
99.85,-2.773,1.546
99.88,7.405,1.031
99.92,12.88,0.458
99.95,15.758,0.47
99.98,19.688,0.481
100.01,14.249,1.718
100.05,13.828,1.638
100.08,19.443,1.97
100.11,23.022,1.627
100.14,25.269,0.55
100.18,26.427,0.733
100.21,28.743,1.157
100.24,32.042,1.799
100.27,36.78,2.394
100.31,41.833,2.681
100.34,46.536,2.761
100.37,50.291,2.738
100.4,53.555,2.772
100.44,56.644,2.978
100.47,59.837,3.219
100.5,63.242,3.54
100.53,66.821,3.815
100.57,70.331,3.975
100.6,73.7,4.101
100.63,76.859,4.273
100.66,79.912,4.433
100.7,82.684,4.559
100.73,85.281,4.754
100.76,88.159,5.052
100.79,91.037,5.224
100.83,93.564,5.338
100.86,96.126,5.522
100.89,99.179,5.774
100.92,102.373,6.129
100.96,105.496,6.346
100.99,108.339,6.553
101.02,111.217,6.931
101.05,114.375,7.183
101.09,117.534,7.572
101.12,120.412,7.778
101.15,122.833,7.916
101.18,125.465,8.305
101.22,128.624,8.603
101.25,131.993,8.935
101.28,135.327,9.359
101.31,138.38,9.634
101.35,141.293,10.001
101.38,144.312,10.447
101.41,147.33,10.757
101.44,150.418,11.181
101.48,153.542,11.536
101.51,156.419,11.834
101.54,159.192,12.109
101.57,161.929,12.475
101.61,164.772,12.716
101.64,167.755,12.968
101.67,170.633,13.243
101.7,173.37,13.426
101.74,176.143,13.735
101.77,179.021,14.056
101.8,181.758,14.319
101.83,184.18,14.537
101.87,186.601,14.812
101.9,189.268,15.03
101.93,191.866,15.144
101.97,194.182,15.259
102.0,196.358,15.362
102.03,198.674,15.442
102.06,200.885,15.488
102.1,202.991,15.66
102.13,204.991,15.683
102.16,206.816,15.683
102.19,208.676,15.877
102.23,210.641,15.935
102.26,212.466,16.026
102.29,214.397,16.187
102.32,216.257,16.233
102.36,218.047,16.359
102.39,219.801,16.496
102.42,221.451,16.588
102.45,223.17,16.805
102.49,225.066,17.069
102.52,226.75,17.08
102.55,228.084,17.218
102.58,229.593,17.516
102.62,231.383,17.584
102.65,232.997,17.687
102.68,234.436,17.79
102.71,235.735,17.848
102.75,237.314,18.065
102.78,239.139,18.352
102.81,240.578,18.386
102.84,242.087,18.764
102.88,243.877,19.314
102.91,245.421,19.211
102.94,246.649,19.44
102.97,247.983,19.898
103.01,249.492,19.944
103.04,250.966,20.208
103.07,252.615,20.471
103.1,254.089,20.563
103.14,255.353,20.792
103.17,256.511,20.987
103.2,257.704,21.113
103.23,258.862,21.33
103.27,260.091,21.433
103.3,261.214,21.33
103.33,262.091,21.491
103.36,263.39,21.777
103.4,264.864,21.937
103.43,265.916,22.155
103.46,266.583,22.235
103.49,267.531,22.464
103.53,268.864,22.693
103.56,270.268,22.911
103.59,271.181,22.991
103.62,272.023,23.209
103.66,273.216,23.576
103.69,274.199,23.564
103.72,274.55,23.553
103.75,275.111,23.828
103.79,276.164,23.919
103.82,277.217,23.885
103.85,278.094,23.999
103.88,278.726,24.206
103.92,279.112,24.309
103.95,279.533,24.377
103.98,280.235,24.515
104.01,280.727,24.377
104.05,280.867,24.423
104.08,281.288,24.595
104.11,281.99,24.595
104.14,282.481,24.549
104.18,282.306,24.458
104.21,281.99,24.4
104.24,282.06,24.469
104.28,282.236,24.32
104.31,282.06,24.125
104.34,281.779,24.148
104.37,281.534,24.057
104.41,281.218,23.908
104.44,280.832,23.816
104.47,280.411,23.747
104.5,279.779,23.587
104.54,278.972,23.392
104.57,278.2,23.243
104.6,277.533,23.14
104.63,276.831,23.003
104.67,275.813,22.705
104.7,274.445,22.441
104.73,273.216,22.155
104.76,271.918,21.88
104.8,270.444,21.559
104.83,268.9,21.204
104.86,267.566,21.044
104.89,266.302,20.861
104.93,264.828,20.609
104.96,263.284,20.563
104.99,261.81,20.46
105.02,260.266,20.196
105.06,258.792,20.07
105.09,257.178,20.013
105.12,255.493,19.807
105.15,253.809,19.612
105.19,252.229,19.658
105.22,250.58,19.474
105.25,248.579,19.245
105.28,246.719,19.28
105.32,245.14,19.142
105.35,243.42,19.085
105.38,241.525,19.005
105.41,239.735,18.913
105.45,238.156,18.902
105.48,236.717,19.028
105.51,234.787,18.947
105.54,232.436,18.684
105.58,230.435,18.741
105.61,228.961,18.615
105.64,227.101,18.272
105.67,224.925,18.123
105.71,222.89,18.123
105.74,221.065,18.111
105.77,219.205,17.974
105.8,216.994,17.848
105.84,214.713,17.768
105.87,212.677,17.756
105.9,210.782,17.573
105.93,208.676,17.378
105.97,206.781,17.47
106.0,204.956,17.355
106.03,202.605,17.08
106.06,200.323,17.218
106.1,198.428,17.172
106.13,196.358,16.931
106.16,194.287,16.908
106.19,192.322,16.84
106.23,190.041,16.656
106.26,187.97,16.771
106.29,185.899,16.714
106.32,183.548,16.439
106.36,181.477,16.576
106.39,179.512,16.324
106.42,177.196,16.003
106.45,174.95,16.152
106.49,172.598,15.992
106.52,170.177,15.774
106.55,167.825,15.728
106.59,165.544,15.534
106.62,162.982,15.247
106.65,160.42,15.041
106.68,157.928,14.858
106.72,155.472,14.56
106.75,152.945,14.297
106.78,150.278,13.976
106.81,147.54,13.689
106.85,144.908,13.54
106.88,142.171,13.128
106.91,139.223,12.819
106.94,136.24,12.544
106.98,133.362,12.326
107.01,130.589,11.994
107.04,127.536,11.57
107.07,124.377,11.169
107.11,121.114,10.734
107.14,117.885,10.379
107.17,114.586,10.047
107.2,111.322,9.657
107.24,108.023,9.359
107.27,104.724,8.981
107.3,101.355,8.511
107.33,97.705,8.191
107.37,94.16,7.755
107.4,90.756,7.366
107.43,87.282,6.976
107.46,83.456,6.438
107.5,79.842,6.232
107.53,76.543,5.888
107.56,73.138,5.418
107.59,69.699,5.201
107.63,66.084,4.903
107.66,62.364,4.582
107.69,59.03,4.468
107.72,56.047,4.353
107.76,53.064,4.204
107.79,50.116,3.964
107.82,46.712,3.757
107.85,43.097,3.528
107.89,39.447,3.414
107.92,37.447,2.875
107.95,41.132,1.982
107.98,45.764,-0.229
108.02,38.148,-1.558
108.05,28.427,-0.916
108.08,24.812,-0.298
108.11,22.356,-0.619
108.15,14.214,-1.501
108.18,0.912,-1.764
108.21,-10.283,-1.077
108.24,-15.758,-0.607
108.28,-19.267,-0.389
108.31,-21.338,-0.779
108.34,-15.617,-1.134
108.37,-16.565,-1.638
108.41,-22.04,-2.291
108.44,-24.812,-0.962
108.47,-26.041,-0.515
108.5,-26.778,-0.596
108.54,-28.532,-0.985
108.57,-31.761,-1.684
108.6,-36.604,-2.337
108.63,-41.728,-2.394
108.67,-46.08,-2.325
108.7,-49.625,-2.348
108.73,-52.748,-2.509
108.76,-56.047,-2.726
108.8,-59.521,-3.082
108.83,-63.101,-3.368
108.86,-66.646,-3.528
108.89,-70.12,-3.769
108.93,-73.454,-3.929
108.96,-76.753,-4.032
108.99,-79.736,-4.17
109.03,-82.684,-4.353
109.06,-85.738,-4.594
109.09,-88.686,-4.731
109.12,-91.388,-4.869
109.16,-94.125,-5.144
109.19,-96.793,-5.292
109.22,-99.495,-5.487
109.25,-102.408,-5.728
109.29,-105.391,-6.037
109.32,-108.199,-6.312
109.35,-111.217,-6.644
109.38,-114.165,-6.919
109.42,-117.113,-7.263
109.45,-120.026,-7.561
109.48,-122.763,-7.744
109.51,-125.746,-8.248
109.55,-128.975,-8.523
109.58,-132.239,-8.821
109.61,-135.327,-9.268
109.64,-138.451,-9.68
109.68,-141.574,-10.104
109.71,-144.592,-10.459
109.74,-147.575,-10.86
109.77,-150.594,-11.158
109.81,-153.366,-11.352
109.84,-156.209,-11.708
109.87,-159.297,-12.028
109.9,-162.14,-12.235
109.94,-165.123,-12.681
109.97,-168.071,-13.025
110.0,-170.914,-13.197
110.03,-173.651,-13.426
110.07,-176.424,-13.735
110.1,-179.161,-13.999
110.13,-181.934,-14.274
110.16,-184.601,-14.549
110.2,-187.198,-14.755
110.23,-189.655,-14.995
110.26,-192.181,-15.156
110.29,-194.603,-15.224
110.33,-196.849,-15.488
110.36,-199.025,-15.568
110.39,-200.92,-15.545
110.42,-202.675,-15.602
110.46,-204.324,-15.408
110.49,-205.693,-15.202
110.52,-207.132,-15.133
110.55,-208.817,-14.972
110.59,-210.501,-14.949
110.62,-212.466,-15.087
110.65,-214.432,-15.316
110.68,-216.292,-15.614
110.72,-218.082,-15.843
110.75,-220.082,-16.278
110.78,-222.223,-16.691
110.81,-224.364,-16.885
110.85,-226.364,-17.412
110.88,-228.365,-17.733
110.91,-230.33,-17.905
110.94,-232.19,-18.237
110.98,-234.015,-18.398
111.01,-235.805,-18.558
111.04,-237.349,-18.65
111.07,-238.647,-18.81
111.11,-240.157,-19.085
111.14,-242.017,-19.211
111.17,-243.596,-19.303
111.2,-245.105,-19.52
111.24,-246.333,-19.623
111.27,-247.597,-19.681
111.3,-248.965,-19.933
111.34,-250.264,-20.001
111.37,-251.387,-20.082
111.4,-252.791,-20.253
111.43,-254.265,-20.471
111.47,-255.634,-20.666
111.5,-256.897,-20.757
111.53,-257.88,-20.918
111.56,-258.897,-21.032
111.6,-260.056,-21.216
111.63,-261.179,-21.342
111.66,-262.267,-21.536
111.69,-263.565,-21.788
111.73,-264.793,-21.857
111.76,-265.811,-21.937
111.79,-266.864,-22.178
111.82,-268.022,-22.327
111.86,-268.97,-22.522
111.89,-270.128,-22.819
111.92,-271.321,-23.026
111.95,-272.198,-23.106
111.99,-272.9,-23.301
112.02,-273.637,-23.392
112.05,-274.445,-23.472
112.08,-275.182,-23.541
112.12,-275.708,-23.598
112.15,-276.691,-23.77
112.18,-277.673,-23.965
112.21,-277.919,-23.931
112.25,-278.094,-24.057
112.28,-278.726,-24.309
112.31,-279.568,-24.148
112.34,-280.2,-24.171
112.38,-280.656,-24.297
112.41,-280.972,-24.32
112.44,-281.183,-24.458
112.47,-281.569,-24.481
112.51,-281.779,-24.526
112.54,-281.885,-24.503
112.57,-281.85,-24.458
112.6,-281.815,-24.435
112.64,-281.534,-24.332
112.67,-281.358,-24.297
112.7,-281.358,-24.206
112.73,-281.148,-23.999
112.77,-280.586,-23.713
112.8,-279.884,-23.576
112.83,-279.288,-23.518
112.86,-278.621,-23.301
112.9,-277.708,-23.117
112.93,-276.901,-22.945
112.96,-276.024,-22.762
112.99,-275.182,-22.636
113.03,-274.164,-22.304
113.06,-272.83,-22.132
113.09,-271.532,-21.96
113.12,-270.303,-21.662
113.16,-268.935,-21.502
113.19,-267.496,-21.227
113.22,-266.057,-21.147
113.25,-264.899,-21.101
113.29,-263.495,-20.861
113.32,-261.951,-20.62
113.35,-260.266,-20.391
113.38,-258.546,-20.196
113.42,-256.897,-19.978
113.45,-255.283,-19.83
113.48,-253.598,-19.726
113.51,-251.913,-19.635
113.55,-250.475,-19.669
113.58,-248.615,-19.44
113.61,-246.509,-19.222
113.65,-244.719,-19.154
113.68,-243.069,-18.97
113.71,-241.209,-18.787
113.74,-239.384,-18.73
113.78,-238.016,-18.833
113.81,-236.366,-18.844
113.84,-234.506,-18.81
113.87,-232.436,-18.787
113.91,-230.47,-18.638
113.94,-228.716,-18.569
113.97,-226.961,-18.421
114.0,-224.82,-18.123
114.04,-222.609,-18.1
114.07,-220.468,-17.939
114.1,-218.292,-17.733
114.13,-216.222,-17.768
114.17,-214.397,-17.584
114.2,-212.361,-17.378
114.23,-210.22,-17.344
114.26,-208.185,-17.355
114.3,-206.184,-17.298
114.33,-204.149,-17.286
114.36,-202.113,-17.229
114.39,-200.043,-17.218
114.43,-198.007,-17.16
114.46,-195.831,-16.954
114.49,-193.69,-16.977
114.52,-191.866,-16.84
114.56,-189.9,-16.771
114.59,-187.97,-16.828
114.62,-185.899,-16.679
114.65,-183.618,-16.599
114.69,-181.477,-16.565
114.72,-179.301,-16.37
114.75,-176.915,-16.233
114.78,-174.809,-16.187
114.82,-172.739,-15.935
114.85,-170.457,-15.625
114.88,-167.896,-15.534
114.91,-165.298,-15.328
114.95,-162.737,-15.144
114.98,-160.35,-15.041
115.01,-157.999,-14.835
115.04,-155.542,-14.549
115.08,-153.156,-14.365
115.11,-150.839,-14.113
115.14,-148.032,-13.666
115.17,-145.013,-13.414
115.21,-142.241,-13.14
115.24,-139.433,-12.83
115.27,-136.661,-12.532
115.3,-133.958,-12.257
115.34,-131.01,-11.891
115.37,-127.747,-11.616
115.4,-124.553,-11.352
115.43,-121.5,-10.963
115.47,-118.376,-10.505
115.5,-115.182,-9.989
115.53,-111.813,-9.703
115.56,-108.374,-9.245
115.6,-104.935,-8.855
115.63,-101.671,-8.637
115.66,-98.372,-8.042
115.69,-94.827,-7.584
115.73,-91.002,-7.137
115.76,-87.177,-6.61
115.79,-83.562,-6.301
115.82,-80.122,-5.9
115.86,-76.472,-5.487
115.89,-72.823,-5.178
115.92,-69.138,-4.823
115.96,-65.628,-4.479
115.99,-62.048,-4.147
116.02,-58.574,-3.883
116.05,-55.064,-3.712
116.09,-51.59,-3.494
116.12,-48.221,-3.253
116.15,-44.781,-3.059
116.18,-41.167,-2.818
116.22,-37.727,-2.577
116.25,-35.06,-2.406
116.28,-37.903,-1.34
116.31,-40.991,0.435
116.35,-33.551,1.329
116.38,-25.269,0.71
116.41,-22.636,0.183
116.44,-20.917,0.412
116.48,-14.705,1.191
116.51,-4.106,1.352
116.54,4.738,0.928
116.57,9.511,0.389
