Trigger_Date,2023/06/19
Trigger_Time,T 14:58:55.401 PDT
Samples_Per_Cycle,512
Microseconds_Per_Sample,32.557
Time (ms),Voltage (V),Current (A)
-16.67,11.371,0.424
-16.64,13.582,0.493
-16.6,18.811,0.481
-16.57,15.337,1.432
-16.54,12.354,1.867
-16.51,18.46,2.142
-16.47,23.093,2.096
-16.44,26.462,1.008
-16.41,28.041,0.974
-16.38,30.392,1.283
-16.34,33.481,1.879
-16.31,38.078,2.555
-16.28,42.676,2.83
-16.25,47.028,2.795
-16.21,50.572,2.807
-16.18,53.625,2.726
-16.15,56.293,2.818
-16.12,59.276,3.104
-16.08,62.505,3.448
-16.05,66.014,3.643
-16.02,69.489,3.826
-15.99,72.893,3.987
-15.95,76.157,4.09
-15.92,79.385,4.25
-15.89,82.544,4.491
-15.86,85.808,4.685
-15.82,89.072,4.88
-15.79,92.265,5.189
-15.76,95.354,5.522
-15.72,98.302,5.842
-15.69,101.18,6.186
-15.66,104.092,6.484
-15.63,107.111,6.782
-15.59,110.234,7.08
-15.56,113.358,7.32
-15.53,116.551,7.618
-15.5,119.464,7.824
-15.46,122.342,8.019
-15.43,125.15,8.282
-15.4,127.992,8.466
-15.37,130.905,8.752
-15.33,133.783,8.935
-15.3,136.731,9.176
-15.27,139.749,9.531
-15.24,142.627,9.806
-15.2,145.435,10.069
-15.17,148.172,10.367
-15.14,150.98,10.734
-15.11,154.033,10.974
-15.07,157.051,11.204
-15.04,159.859,11.513
-15.01,162.526,11.719
-14.98,165.263,12.04
-14.94,168.211,12.452
-14.91,171.159,12.75
-14.88,173.721,13.071
-14.85,176.634,13.495
-14.81,179.652,13.907
-14.78,182.53,14.171
-14.75,185.233,14.411
-14.72,187.9,14.675
-14.68,190.392,14.72
-14.65,192.813,14.881
-14.62,195.34,15.202
-14.59,197.551,15.19
-14.55,199.727,15.339
-14.52,202.113,15.625
-14.49,204.254,15.488
-14.46,206.255,15.671
-14.42,208.29,15.843
-14.39,210.01,15.648
-14.36,211.765,15.832
-14.33,213.8,15.98
-14.29,215.73,15.912
-14.26,217.59,16.084
-14.23,219.485,16.324
-14.19,221.24,16.404
-14.16,222.995,16.622
-14.13,224.75,16.794
-14.1,226.575,16.897
-14.06,228.259,17.057
-14.03,229.979,17.241
-14.0,231.523,17.355
-13.97,233.173,17.584
-13.93,234.892,17.733
-13.9,236.472,17.79
-13.87,238.086,18.077
-13.84,239.56,18.272
-13.8,240.999,18.386
-13.77,242.789,18.753
-13.74,244.508,18.867
-13.71,245.877,18.913
-13.67,247.316,19.303
-13.64,248.615,19.371
-13.61,249.738,19.406
-13.58,251.352,19.864
-13.54,253.072,20.013
-13.51,254.405,20.047
-13.48,255.739,20.46
-13.45,257.248,20.654
-13.41,258.476,20.7
-13.38,259.634,20.952
-13.35,260.828,21.17
-13.32,262.021,21.33
-13.28,263.249,21.376
-13.25,264.407,21.514
-13.22,265.53,21.731
-13.19,266.724,21.972
-13.15,267.987,22.258
-13.12,269.11,22.304
-13.09,270.058,22.522
-13.06,271.181,22.842
-13.02,272.374,22.865
-12.99,273.567,23.117
-12.96,274.69,23.415
-12.93,275.673,23.461
-12.89,276.445,23.633
-12.86,277.252,23.85
-12.83,278.059,23.828
-12.79,278.691,23.885
-12.76,279.498,23.965
-12.73,280.376,24.045
-12.7,281.078,24.16
-12.66,281.569,24.206
-12.63,281.955,24.228
-12.6,282.481,24.366
-12.57,282.903,24.286
-12.53,283.113,24.183
-12.5,283.359,24.309
-12.47,283.745,24.32
-12.44,284.026,24.354
-12.4,284.166,24.366
-12.37,284.131,24.297
-12.34,284.131,24.194
-12.31,284.166,24.091
-12.27,284.026,23.954
-12.24,283.64,23.919
-12.21,283.499,23.965
-12.18,283.604,23.988
-12.14,283.218,23.793
-12.11,282.341,23.587
-12.08,281.534,23.461
-12.05,280.902,23.278
-12.01,280.2,22.957
-11.98,279.463,22.762
-11.95,278.621,22.705
-11.92,277.533,22.43
-11.88,276.27,22.247
-11.85,275.006,22.075
-11.82,273.743,21.834
-11.79,272.444,21.525
-11.75,271.181,21.319
-11.72,269.847,21.193
-11.69,268.513,21.044
-11.66,267.039,20.918
-11.62,265.53,20.746
-11.59,264.021,20.528
-11.56,262.407,20.414
-11.53,260.933,20.253
-11.49,259.424,20.013
-11.46,257.774,19.967
-11.43,256.265,19.818
-11.39,254.475,19.566
-11.36,252.861,19.52
-11.33,251.176,19.371
-11.3,249.141,19.108
-11.26,247.141,18.993
-11.23,245.561,19.131
-11.2,243.806,18.936
-11.17,241.806,18.741
-11.13,240.157,19.005
-11.1,238.577,18.81
-11.07,236.577,18.558
-11.04,234.506,18.695
-11.0,232.541,18.547
-10.97,230.646,18.398
-10.94,228.926,18.421
-10.91,227.136,18.249
-10.87,225.031,18.134
-10.84,223.065,18.168
-10.81,221.205,18.157
-10.78,219.24,17.997
-10.74,217.31,17.939
-10.71,215.379,17.825
-10.68,213.133,17.745
-10.65,211.203,17.836
-10.61,209.097,17.71
-10.58,206.956,17.596
-10.55,204.816,17.493
-10.52,202.289,17.08
-10.48,200.043,17.08
-10.45,198.218,17.034
-10.42,196.007,16.633
-10.39,193.726,16.702
-10.35,191.866,16.782
-10.32,189.655,16.347
-10.29,187.303,16.393
-10.26,185.268,16.519
-10.22,182.881,16.152
-10.19,180.495,16.301
-10.16,178.705,16.439
-10.13,176.81,16.015
-10.09,174.599,16.026
-10.06,172.212,15.912
-10.03,169.51,15.568
-9.99,167.159,15.614
-9.96,165.088,15.522
-9.93,162.772,15.11
-9.9,160.069,15.007
-9.86,157.578,14.846
-9.83,154.98,14.445
-9.8,152.243,14.262
-9.77,149.4,13.907
-9.73,146.628,13.495
-9.7,143.75,13.117
-9.67,140.662,12.693
-9.64,137.363,12.452
-9.6,134.45,12.257
-9.57,131.642,11.891
-9.54,128.799,11.49
-9.51,125.851,11.158
-9.47,122.623,10.837
-9.44,119.359,10.447
-9.41,116.06,10.115
-9.38,112.831,9.772
-9.34,109.532,9.394
-9.31,106.023,9.004
-9.28,102.408,8.511
-9.25,98.863,8.133
-9.21,95.284,7.652
-9.18,91.599,7.148
-9.15,87.808,6.782
-9.12,84.334,6.449
-9.08,80.824,6.129
-9.05,77.28,5.751
-9.02,73.735,5.396
-8.99,70.015,5.04
-8.95,66.435,4.811
-8.92,63.136,4.685
-8.89,59.872,4.41
-8.86,56.433,4.078
-8.82,53.099,3.883
-8.79,49.695,3.746
-8.76,46.255,3.563
-8.73,42.816,3.265
-8.69,39.377,3.104
-8.66,37.025,2.486
-8.63,39.552,1.409
-8.6,43.764,-0.149
-8.56,37.657,-1.398
-8.53,28.603,-0.905
-8.5,24.812,-0.344
-8.46,22.707,-0.458
-8.43,16.846,-1.191
-8.4,5.896,-1.512
-8.37,-4.071,-1.088
-8.33,-9.651,-0.561
-8.3,-12.704,-0.504
-8.27,-17.197,-0.722
-8.24,-13.652,-1.673
-8.2,-13.055,-2.039
-8.17,-19.443,-2.142
-8.14,-23.865,-1.73
-8.11,-26.567,-0.985
-8.07,-28.076,-0.928
-8.04,-30.252,-1.352
-8.01,-33.411,-1.947
-7.98,-37.868,-2.497
-7.94,-42.43,-2.749
-7.91,-46.642,-2.726
-7.88,-50.011,-2.6
-7.85,-52.994,-2.681
-7.81,-55.872,-2.875
-7.78,-58.995,-3.116
-7.75,-62.329,-3.414
-7.72,-65.979,-3.723
-7.68,-69.559,-3.872
-7.65,-73.174,-4.032
-7.62,-76.613,-4.147
-7.59,-79.877,-4.307
-7.55,-83.0,-4.502
-7.52,-86.124,-4.662
-7.49,-89.212,-4.949
-7.46,-92.195,-5.075
-7.42,-95.003,-5.212
-7.39,-97.705,-5.522
-7.36,-100.337,-5.648
-7.33,-103.004,-5.888
-7.29,-106.023,-6.232
-7.26,-109.076,-6.381
-7.23,-112.059,-6.69
-7.2,-115.182,-7.08
-7.16,-118.236,-7.274
-7.13,-121.008,-7.629
-7.1,-123.816,-7.985
-7.06,-126.904,-8.271
-7.03,-129.958,-8.592
-7.0,-133.327,-9.096
-6.97,-136.555,-9.451
-6.93,-139.609,-9.657
-6.9,-142.346,-10.047
-6.87,-145.399,-10.367
-6.84,-148.593,-10.711
-6.8,-151.646,-11.089
-6.77,-154.419,-11.307
-6.74,-157.156,-11.673
-6.71,-160.315,-12.28
-6.67,-163.719,-12.578
-6.64,-166.737,-12.67
-6.61,-169.37,-12.979
-6.58,-172.282,-13.277
-6.54,-175.16,-13.414
-6.51,-178.003,-13.792
-6.48,-180.916,-14.262
-6.45,-183.829,-14.457
-6.41,-186.566,-14.686
-6.38,-189.409,-15.156
-6.35,-192.181,-15.259
-6.32,-194.708,-15.419
-6.28,-197.2,-15.809
-6.25,-199.622,-15.843
-6.22,-201.973,-16.003
-6.19,-204.535,-16.198
-6.15,-206.921,-16.175
-6.12,-209.097,-16.462
-6.09,-211.449,-16.725
-6.06,-213.835,-16.828
-6.02,-216.116,-16.966
-5.99,-218.257,-17.103
-5.96,-220.293,-17.252
-5.93,-222.398,-17.458
-5.89,-224.574,-17.653
-5.86,-226.645,-17.825
-5.83,-228.4,-17.939
-5.8,-229.979,-17.997
-5.76,-231.734,-17.997
-5.73,-233.559,-18.111
-5.7,-235.278,-18.054
-5.66,-236.682,-18.031
-5.63,-238.121,-18.226
-5.6,-239.595,-18.237
-5.57,-240.858,-18.18
-5.53,-242.262,-18.34
-5.5,-243.771,-18.421
-5.47,-245.175,-18.375
-5.44,-246.404,-18.409
-5.4,-247.597,-18.615
-5.37,-248.72,-18.753
-5.34,-250.053,-18.947
-5.31,-251.598,-19.177
-5.27,-252.896,-19.154
-5.24,-254.124,-19.486
-5.21,-255.563,-19.852
-5.18,-256.827,-19.91
-5.14,-258.125,-20.185
-5.11,-259.424,-20.425
-5.08,-260.442,-20.414
-5.05,-261.284,-20.586
-5.01,-262.477,-20.666
-4.98,-263.776,-20.735
-4.95,-265.039,-20.998
-4.92,-266.197,-21.216
-4.88,-267.32,-21.605
-4.85,-268.619,-21.823
-4.82,-269.461,-21.857
-4.79,-270.163,-22.075
-4.75,-271.321,-22.315
-4.72,-272.585,-22.419
-4.69,-273.708,-22.682
-4.66,-274.831,-22.98
-4.62,-275.778,-23.186
-4.59,-276.55,-23.358
-4.56,-277.357,-23.404
-4.53,-277.989,-23.564
-4.49,-278.726,-23.713
-4.46,-279.568,-23.782
-4.43,-280.376,-23.885
-4.4,-281.078,-24.068
-4.36,-281.709,-24.091
-4.33,-282.13,-24.034
-4.3,-282.446,-24.034
-4.26,-282.797,-24.091
-4.23,-283.253,-24.148
-4.2,-283.569,-24.148
-4.17,-283.885,-24.183
-4.13,-284.236,-24.16
-4.1,-284.447,-24.08
-4.07,-284.306,-24.091
-4.04,-284.201,-24.068
-4.0,-284.166,-24.114
-3.97,-282.692,-23.301
-3.94,-278.165,-21.261
-3.91,-273.146,-19.898
-3.87,-271.321,-19.612
-3.84,-271.146,-18.695
-3.81,-269.04,-17.286
-3.78,-265.53,-16.84
-3.74,-263.46,-16.977
-3.71,-263.179,-17.103
-3.68,-263.109,-17.424
-3.65,-262.547,-17.894
-3.61,-261.951,-18.547
-3.58,-261.88,-19.383
-3.55,-262.126,-20.07
-3.52,-262.091,-20.597
-3.48,-261.565,-20.998
-3.45,-260.793,-21.399
-3.42,-260.477,-21.823
-3.39,-260.652,-22.155
-3.35,-260.687,-22.235
-3.32,-259.915,-22.224
-3.29,-258.968,-22.533
-3.26,-258.301,-22.636
-3.22,-257.774,-22.59
-3.19,-257.143,-22.751
-3.16,-256.335,-22.59
-3.13,-255.247,-22.464
-3.09,-254.124,-22.476
-3.06,-253.001,-22.396
-3.03,-251.984,-22.396
-3.0,-251.036,-22.27
-2.96,-249.597,-21.96
-2.93,-247.948,-21.869
-2.9,-246.649,-21.914
-2.87,-245.456,-21.685
-2.83,-244.017,-21.319
-2.8,-242.508,-21.284
-2.77,-241.069,-21.181
-2.73,-239.42,-20.918
-2.7,-237.875,-20.883
-2.67,-236.156,-20.654
-2.64,-234.261,-20.391
-2.6,-232.576,-20.345
-2.57,-230.927,-19.99
-2.54,-228.996,-19.761
-2.51,-227.136,-19.612
-2.47,-224.995,-19.199
-2.44,-222.539,-18.959
-2.41,-220.258,-18.787
-2.38,-218.327,-18.592
-2.34,-216.397,-18.295
-2.31,-214.256,-18.02
-2.28,-211.975,-17.836
-2.25,-209.694,-17.676
-2.21,-207.518,-17.55
-2.18,-205.307,-17.321
-2.15,-202.956,-17.183
-2.12,-200.815,-17.16
-2.08,-198.604,-16.828
-2.05,-196.323,-16.691
-2.02,-194.182,-16.656
-1.99,-191.901,-16.313
-1.95,-189.374,-16.106
-1.92,-186.917,-16.061
-1.89,-184.46,-15.889
-1.86,-182.144,-15.763
-1.82,-180.038,-15.728
-1.79,-177.792,-15.534
-1.76,-175.371,-15.328
-1.73,-172.774,-15.27
-1.69,-170.212,-15.087
-1.66,-167.65,-14.869
-1.63,-165.018,-14.606
-1.6,-162.35,-14.262
-1.56,-159.648,-14.113
-1.53,-157.086,-13.873
-1.5,-154.349,-13.575
-1.47,-151.436,-13.357
-1.43,-148.593,-13.036
-1.4,-145.645,-12.796
-1.37,-142.767,-12.532
-1.33,-139.854,-12.12
-1.3,-136.836,-11.811
-1.27,-133.853,-11.524
-1.24,-130.73,-11.123
-1.2,-127.466,-10.86
-1.17,-124.413,-10.619
-1.14,-121.324,-10.184
-1.11,-118.06,-9.863
-1.07,-114.586,-9.623
-1.04,-111.322,-9.29
-1.01,-108.199,-9.038
-0.98,-105.005,-8.695
-0.94,-101.671,-8.282
-0.91,-98.196,-7.996
-0.88,-94.792,-7.606
-0.85,-91.283,-7.171
-0.81,-87.773,-6.782
-0.78,-84.088,-6.404
-0.75,-80.473,-6.129
-0.72,-77.139,-5.911
-0.68,-73.981,-5.59
-0.65,-70.541,-5.292
-0.62,-66.962,-5.029
-0.59,-63.417,-4.823
-0.55,-60.153,-4.628
-0.52,-57.1,-4.307
-0.49,-53.661,-4.032
-0.46,-50.081,-3.769
-0.42,-46.642,-3.735
-0.39,-43.343,-3.414
-0.36,-39.728,-3.242
-0.33,-37.376,-2.761
-0.29,-40.64,-1.283
-0.26,-44.957,0.229
-0.23,-37.727,1.432
-0.2,-28.532,0.768
-0.16,-25.444,0.229
-0.13,-23.338,0.435
-0.1,-16.846,1.26
-0.07,-5.159,1.489
-0.03,4.668,1.008
0.0,10.143,0.447
0.03,12.985,0.561
0.07,18.355,0.515
0.1,13.968,1.432
0.13,12.213,1.821
0.16,18.355,2.096
0.2,22.496,1.764
0.23,25.339,0.745
0.26,26.743,0.756
0.29,28.989,1.111
0.33,32.182,1.787
0.36,37.025,2.52
0.39,42.044,2.818
0.42,46.677,2.852
0.46,50.432,2.841
0.49,53.766,2.841
0.52,56.819,3.07
0.55,60.083,3.288
0.59,63.417,3.574
0.62,66.962,3.78
0.65,70.261,3.929
0.68,73.454,4.044
0.72,76.367,4.124
0.75,79.21,4.319
0.78,82.158,4.548
0.81,85.246,4.731
0.85,88.405,4.972
0.88,91.528,5.189
0.91,94.441,5.327
0.94,97.249,5.648
0.98,100.197,5.968
1.01,103.075,6.14
1.04,106.023,6.461
1.07,109.181,6.747
1.11,112.48,7.011
1.14,115.463,7.217
1.17,118.341,7.515
1.2,121.149,7.859
1.24,124.062,8.156
1.27,127.08,8.397
1.3,129.993,8.603
1.33,133.011,8.89
1.37,135.889,9.199
1.4,138.837,9.531
1.43,141.855,9.898
1.47,145.013,10.241
1.5,147.997,10.447
1.53,150.769,10.814
1.56,153.612,11.204
1.6,156.595,11.444
1.63,159.578,11.776
1.66,162.631,12.166
1.69,165.509,12.361
1.73,168.211,12.727
1.76,171.124,13.105
1.79,173.932,13.3
1.82,176.88,13.689
1.86,179.933,13.987
1.89,182.706,14.136
1.92,185.303,14.526
1.95,187.865,14.766
1.99,190.321,14.961
2.02,192.743,15.202
2.05,195.34,15.27
2.08,197.656,15.339
2.12,199.797,15.408
2.15,201.973,15.488
2.18,204.184,15.637
2.21,206.255,15.728
2.25,208.185,15.763
2.28,210.115,15.9
2.31,212.115,15.98
2.34,214.186,16.106
2.38,216.187,16.244
2.41,218.117,16.29
2.44,219.942,16.519
2.47,221.696,16.611
2.51,223.1,16.576
2.54,224.68,16.759
2.57,226.505,16.977
2.6,228.435,17.057
2.64,230.225,17.183
2.67,231.909,17.367
2.7,233.664,17.596
2.73,235.419,17.779
2.77,236.823,17.859
2.8,238.226,18.203
2.83,239.946,18.478
2.87,241.771,18.547
2.9,243.28,18.695
2.93,244.649,18.902
2.96,246.053,19.051
3.0,247.386,19.142
3.03,248.65,19.28
3.06,250.053,19.6
3.09,251.598,19.726
3.13,253.107,19.864
3.16,254.651,20.104
3.19,256.055,20.311
3.22,257.353,20.563
3.26,258.476,20.849
3.29,259.669,21.124
3.32,260.933,21.227
3.35,262.231,21.388
3.39,263.354,21.491
3.42,264.478,21.514
3.45,265.741,21.674
3.48,267.004,21.846
3.52,268.163,22.075
3.55,269.18,22.292
3.58,270.268,22.453
3.61,271.286,22.682
3.65,272.409,22.934
3.68,273.637,23.026
3.71,274.76,23.175
3.74,275.638,23.381
3.78,276.48,23.461
3.81,277.322,23.621
3.84,278.2,23.736
3.87,279.007,23.828
3.91,279.779,23.942
3.94,280.551,24.08
3.97,281.288,24.183
4.0,281.885,24.171
4.04,282.166,24.171
4.07,282.587,24.309
4.1,283.148,24.343
4.13,283.359,24.148
4.17,283.604,24.274
4.2,284.201,24.423
4.23,284.412,24.137
4.26,284.201,24.068
4.3,284.306,24.263
4.33,284.482,24.08
4.36,284.131,23.919
4.4,283.78,23.931
4.43,283.815,23.931
4.46,283.71,23.793
4.49,283.148,23.69
4.53,282.552,23.598
4.56,281.885,23.358
4.59,281.288,23.266
4.62,280.481,23.026
4.66,279.568,22.819
4.69,278.902,22.671
4.72,278.27,22.499
4.75,277.463,22.327
4.79,276.27,22.121
4.82,274.936,22.04
4.85,273.708,21.72
4.88,272.269,21.456
4.92,270.9,21.296
4.95,269.601,21.09
4.98,268.163,21.055
5.01,266.759,20.872
5.05,265.355,20.654
5.08,263.951,20.471
5.11,262.372,20.196
5.14,260.793,20.082
5.18,259.143,19.933
5.21,257.529,19.818
5.24,255.879,19.669
5.27,254.089,19.589
5.31,252.37,19.555
5.34,250.685,19.474
5.37,248.965,19.337
5.4,247.141,19.245
5.44,245.526,19.211
5.47,243.842,19.073
5.5,242.017,19.016
5.53,240.297,18.936
5.57,238.647,18.936
5.6,236.858,18.89
5.63,235.103,18.695
5.66,233.032,18.569
5.7,231.032,18.547
5.73,229.277,18.466
5.76,227.487,18.398
5.8,225.732,18.421
5.83,223.802,18.295
5.86,221.591,18.088
5.89,219.38,17.985
5.93,217.38,17.951
5.96,215.555,17.882
5.99,213.519,17.836
6.02,211.449,17.664
6.06,209.448,17.619
6.09,207.518,17.619
6.12,205.412,17.424
6.15,203.096,17.332
6.19,200.92,17.252
6.22,198.849,17.057
6.25,196.779,17.034
6.28,194.954,17.103
6.32,193.024,16.92
6.35,190.918,16.885
6.38,188.707,16.851
6.41,186.426,16.588
6.45,184.145,16.553
6.48,181.969,16.416
6.51,179.547,16.106
6.54,177.231,16.141
6.58,174.915,15.98
6.61,172.353,15.683
6.64,170.001,15.614
6.67,167.65,15.362
6.71,164.983,14.984
6.74,162.21,14.778
6.77,159.718,14.503
6.8,157.051,14.182
6.84,154.314,13.976
6.87,151.541,13.609
6.9,148.734,13.323
6.93,145.856,13.105
6.97,142.838,12.613
7.0,139.749,12.338
7.03,136.766,12.074
7.06,133.923,11.845
7.1,131.151,11.73
7.13,128.448,11.433
7.16,125.43,11.032
7.2,122.096,10.688
7.23,118.797,10.356
7.26,115.498,9.966
7.29,112.41,9.634
7.33,109.181,9.256
7.36,105.531,8.809
7.39,101.776,8.454
7.42,98.161,8.088
7.46,94.687,7.629
7.49,91.248,7.125
7.52,87.633,6.747
7.55,83.983,6.312
7.59,80.333,5.968
7.62,76.823,5.682
7.65,73.244,5.338
7.68,69.769,5.155
7.72,66.4,4.869
7.75,62.856,4.41
7.78,59.276,4.227
7.81,55.836,4.009
7.85,52.467,3.78
7.88,49.098,3.597
7.91,45.554,3.391
7.94,41.904,3.116
7.98,38.464,3.013
8.01,36.955,2.337
8.04,40.465,1.168
8.07,43.378,-0.447
8.11,36.043,-1.363
8.14,28.497,-0.63
8.17,26.602,-0.195
8.2,24.847,-0.493
8.24,18.495,-1.249
8.27,7.545,-1.478
8.3,-1.965,-1.008
8.33,-7.335,-0.573
8.37,-11.09,-0.664
8.4,-16.6,-0.836
8.43,-13.301,-1.638
8.46,-12.81,-2.131
8.5,-19.232,-2.222
8.53,-23.514,-1.661
8.56,-26.216,-0.985
8.6,-27.971,-1.042
8.63,-30.357,-1.478
8.66,-33.691,-2.062
8.69,-38.148,-2.635
8.73,-42.641,-2.864
8.76,-46.782,-2.807
8.79,-50.081,-2.704
8.82,-52.924,-2.738
8.86,-55.696,-2.875
8.89,-58.714,-3.116
8.92,-61.978,-3.402
8.95,-65.523,-3.643
8.99,-69.067,-3.838
9.02,-72.647,-4.009
9.05,-76.051,-4.147
9.08,-79.35,-4.33
9.12,-82.649,-4.502
9.15,-85.948,-4.72
9.18,-89.177,-4.903
9.21,-92.23,-5.052
9.25,-94.933,-5.327
9.28,-97.67,-5.533
9.31,-100.302,-5.728
9.34,-103.004,-6.037
9.38,-106.023,-6.278
9.41,-109.251,-6.518
9.44,-112.375,-6.782
9.47,-115.288,-7.057
9.51,-118.166,-7.332
9.54,-121.114,-7.675
9.57,-124.202,-7.985
9.6,-127.325,-8.156
9.64,-130.309,-8.477
9.67,-133.362,-8.981
9.7,-136.555,-9.313
9.73,-139.644,-9.737
9.77,-142.873,-10.15
9.8,-145.821,-10.333
9.83,-148.593,-10.757
9.86,-151.576,-11.146
9.9,-154.594,-11.261
9.93,-157.648,-11.547
9.96,-160.666,-11.971
9.99,-163.684,-12.177
10.03,-166.562,-12.544
10.06,-169.405,-12.91
10.09,-172.282,-13.197
10.13,-175.055,-13.506
10.16,-178.178,-13.999
10.19,-181.723,-14.411
10.22,-185.092,-14.755
10.26,-188.075,-15.121
10.29,-190.567,-15.396
10.32,-192.918,-15.648
10.35,-195.551,-15.866
10.39,-198.077,-15.866
10.42,-200.323,-15.877
10.45,-202.534,-15.935
10.48,-204.64,-15.877
10.52,-206.535,-15.786
10.55,-208.395,-15.763
10.58,-210.15,-15.763
10.61,-211.729,-15.66
10.65,-213.274,-15.614
10.68,-214.993,-15.625
10.71,-216.713,-15.58
10.74,-218.362,-15.591
10.78,-219.977,-15.66
10.81,-221.416,-15.66
10.84,-222.96,-15.683
10.87,-224.504,-15.797
10.91,-226.013,-15.946
10.94,-227.557,-16.106
10.97,-229.102,-16.267
11.0,-230.786,-16.588
11.04,-232.576,-16.817
11.07,-234.015,-16.966
11.1,-235.313,-17.126
11.13,-236.717,-17.435
11.17,-238.472,-17.676
11.2,-240.121,-17.813
11.23,-241.631,-18.088
11.26,-243.069,-18.432
11.3,-244.754,-18.753
11.33,-246.404,-18.947
11.36,-247.737,-19.119
11.39,-248.965,-19.429
11.43,-250.475,-19.669
11.46,-252.159,-19.921
11.49,-253.738,-20.173
11.53,-255.142,-20.368
11.56,-256.511,-20.528
11.59,-257.985,-20.769
11.62,-259.354,-20.906
11.66,-260.687,-21.067
11.69,-261.705,-21.307
11.72,-262.828,-21.388
11.75,-264.021,-21.594
11.79,-265.25,-21.823
11.82,-266.478,-21.983
11.85,-267.741,-22.27
11.88,-269.005,-22.43
11.92,-269.987,-22.533
11.95,-271.04,-22.797
11.98,-272.093,-22.888
12.01,-273.181,-23.06
12.05,-274.234,-23.266
12.08,-275.182,-23.404
12.11,-276.129,-23.644
12.14,-276.936,-23.702
12.18,-277.673,-23.85
12.21,-278.445,-23.828
12.24,-279.288,-23.828
12.27,-280.2,-24.022
12.31,-280.762,-24.045
12.34,-281.253,-24.137
12.37,-281.815,-24.24
12.4,-282.376,-24.309
12.44,-282.832,-24.297
12.47,-282.973,-24.286
12.5,-283.218,-24.332
12.53,-283.675,-24.297
12.57,-283.885,-24.343
12.6,-283.885,-24.206
12.63,-283.534,-23.862
12.66,-282.867,-23.702
12.7,-282.271,-23.358
12.73,-281.709,-23.049
12.76,-281.113,-22.865
12.79,-280.551,-22.705
12.83,-280.095,-22.602
12.86,-279.639,-22.522
12.89,-279.288,-22.487
12.93,-278.972,-22.567
12.96,-278.516,-22.693
12.99,-278.165,-22.808
13.02,-278.059,-23.071
13.06,-277.989,-23.22
13.09,-277.393,-23.129
13.12,-276.585,-23.129
13.15,-275.708,-23.117
13.19,-274.901,-22.911
13.22,-274.023,-22.705
13.25,-272.935,-22.51
13.28,-271.672,-22.27
13.32,-270.338,-22.098
13.35,-269.075,-21.846
13.38,-267.566,-21.582
13.41,-265.952,-21.376
13.45,-264.337,-20.964
13.48,-262.617,-20.597
13.51,-260.828,-20.437
13.54,-259.213,-20.265
13.58,-257.634,-20.059
13.61,-255.949,-19.875
13.64,-254.124,-19.635
13.67,-252.264,-19.406
13.71,-250.229,-19.222
13.74,-248.299,-19.051
13.77,-246.474,-19.039
13.8,-244.719,-18.867
13.84,-242.859,-18.787
13.87,-240.964,-18.673
13.9,-238.963,-18.443
13.93,-236.893,-18.352
13.97,-234.927,-18.283
14.0,-232.927,-18.065
14.03,-230.891,-17.985
14.06,-228.961,-17.985
14.1,-226.891,-17.802
14.13,-224.89,-17.836
14.16,-223.065,-17.882
14.19,-221.065,-17.699
14.23,-218.889,-17.619
14.26,-216.713,-17.561
14.29,-214.713,-17.39
14.33,-212.747,-17.332
14.36,-210.677,-17.229
14.39,-208.536,-17.172
14.42,-206.465,-17.08
14.46,-204.395,-17.046
14.49,-202.324,-16.989
14.52,-200.253,-16.897
14.55,-198.007,-16.84
14.59,-195.796,-16.748
14.62,-193.69,-16.748
14.65,-191.901,-16.737
14.68,-190.181,-16.725
14.72,-188.005,-16.588
14.75,-185.513,-16.45
14.78,-183.162,-16.381
14.81,-180.846,-16.233
14.85,-178.705,-16.072
14.88,-176.669,-15.946
14.91,-174.353,-15.717
14.94,-171.756,-15.499
14.98,-169.264,-15.385
15.01,-166.913,-15.202
15.04,-164.421,-14.995
15.07,-161.719,-14.64
15.11,-158.911,-14.354
15.14,-156.349,-14.228
15.17,-153.822,-13.941
15.2,-151.015,-13.644
15.24,-148.102,-13.403
15.27,-145.364,-13.059
15.3,-142.592,-12.75
15.33,-139.644,-12.441
15.37,-136.661,-12.189
15.4,-134.064,-12.005
15.43,-131.361,-11.742
15.46,-128.484,-11.456
15.5,-125.395,-11.261
15.53,-122.166,-10.906
15.56,-118.903,-10.505
15.59,-115.604,-10.218
15.63,-112.41,-9.714
15.66,-109.181,-9.394
15.69,-105.742,-8.947
15.72,-102.092,-8.477
15.76,-98.547,-8.214
15.79,-95.143,-7.778
15.82,-91.669,-7.251
15.86,-88.089,-6.85
15.89,-84.404,-6.358
15.92,-80.824,-6.003
15.95,-77.209,-5.682
15.99,-73.665,-5.338
16.02,-70.226,-5.132
16.05,-66.716,-4.823
16.08,-63.101,-4.479
16.12,-59.521,-4.342
16.15,-56.012,-4.009
16.18,-52.818,-3.757
16.21,-49.73,-3.494
16.25,-46.326,-3.23
16.28,-42.676,-2.967
16.31,-38.885,-3.001
16.34,-36.955,-2.211
16.38,-41.132,-0.871
16.41,-42.957,0.664
16.44,-33.727,1.42
16.47,-25.935,0.573
16.51,-23.689,0.195
16.54,-21.513,0.538
16.57,-13.933,1.352
16.6,-2.492,1.409
16.64,6.071,0.768
16.67,9.686,0.355
16.7,12.81,0.55
16.73,16.986,0.642
16.77,11.546,1.97
16.8,12.95,2.016
16.83,19.197,2.051
16.86,23.058,1.524
16.9,25.549,0.676
16.93,27.269,0.905
16.96,29.971,1.398
16.99,33.762,2.085
17.03,38.745,2.669
17.06,43.518,2.795
17.09,47.624,2.761
17.12,50.853,2.646
17.16,53.59,2.6
17.19,56.223,2.841
17.22,59.135,3.059
17.26,62.294,3.288
17.29,65.628,3.54
17.32,69.032,3.735
17.35,72.437,3.872
17.39,75.735,4.055
17.42,79.14,4.273
17.45,82.579,4.491
17.48,86.053,4.697
17.52,89.528,4.983
17.55,92.651,5.121
17.58,95.459,5.327
17.61,97.986,5.67
17.65,100.548,5.934
17.68,103.32,6.175
17.71,106.303,6.461
17.74,109.427,6.667
17.78,112.375,6.896
17.81,115.393,7.217
17.84,118.446,7.48
17.87,121.429,7.698
17.91,124.377,8.076
17.94,127.431,8.397
17.97,130.309,8.66
18.0,133.292,8.981
18.04,136.52,9.439
18.07,139.854,9.737
18.1,143.048,10.001
18.13,145.891,10.413
18.17,148.698,10.734
18.2,151.682,11.112
18.23,154.77,11.398
18.26,157.683,11.685
18.3,160.526,12.017
18.33,163.298,12.257
18.36,166.035,12.555
18.39,169.019,12.887
18.43,172.072,13.082
18.46,175.055,13.254
18.49,177.722,13.403
18.52,180.46,13.758
18.56,183.267,14.067
18.59,186.04,14.205
18.62,188.567,14.514
18.66,190.988,14.801
18.69,193.059,14.938
18.72,195.305,15.167
18.75,197.902,15.385
18.79,200.359,15.259
18.82,202.429,15.316
18.85,204.5,15.58
18.88,206.535,15.431
18.92,208.536,15.476
18.95,210.431,15.706
18.98,212.326,15.625
19.01,214.151,15.843
19.05,216.151,16.038
19.08,218.011,16.015
19.11,219.661,16.267
19.14,221.346,16.359
19.18,222.784,16.347
19.21,224.469,16.542
19.24,226.364,16.622
19.27,228.049,16.714
19.31,229.558,16.851
19.34,231.242,17.034
19.37,233.032,17.344
19.4,234.752,17.573
19.44,236.261,17.699
19.47,237.56,17.642
19.5,239.104,17.939
19.53,240.823,18.191
19.57,242.297,18.272
19.6,243.806,18.638
19.63,245.491,19.005
19.66,247.035,18.982
19.7,248.369,19.245
19.73,249.808,19.52
19.76,251.212,19.669
19.79,252.756,20.047
19.83,254.335,20.23
19.86,255.669,20.334
19.89,257.108,20.62
19.92,258.511,20.769
19.96,259.669,20.792
19.99,260.793,21.055
20.02,262.056,21.353
20.06,263.249,21.422
20.09,264.337,21.582
20.12,265.601,21.811
20.15,266.934,21.96
20.19,268.198,22.121
20.22,269.11,22.35
20.25,270.093,22.487
20.28,271.251,22.613
20.32,272.444,22.774
20.35,273.567,22.911
20.38,274.585,23.209
20.41,275.638,23.415
20.45,276.515,23.518
20.48,277.147,23.598
20.51,277.884,23.747
20.54,278.726,23.77
20.58,279.463,23.702
20.61,280.13,23.873
20.64,280.937,23.999
20.67,281.534,23.931
20.71,281.99,24.022
20.74,282.446,24.102
20.77,282.938,24.114
20.8,283.148,24.068
20.84,283.429,24.091
20.87,284.061,24.286
20.9,284.412,24.206
20.93,284.201,24.091
20.97,284.096,24.217
21.0,284.236,24.194
21.03,284.131,24.08
21.06,283.815,23.908
21.1,283.604,23.908
21.13,283.569,23.908
21.16,283.324,23.747
21.19,282.938,23.587
21.23,282.341,23.369
21.26,281.569,23.22
21.29,280.656,23.026
21.32,279.814,22.934
21.36,279.112,22.877
21.39,278.481,22.625
21.42,277.603,22.361
21.45,276.445,22.109
21.49,275.252,21.983
21.52,273.883,21.811
21.55,272.549,21.559
21.59,271.251,21.388
21.62,269.987,21.09
21.65,268.619,20.975
21.68,267.355,20.826
21.72,265.952,20.46
21.75,264.372,20.437
21.78,262.758,20.299
21.81,261.108,20.059
21.85,259.529,19.898
21.88,257.915,19.681
21.91,256.23,19.623
21.94,254.546,19.52
21.98,252.58,19.417
22.01,250.685,19.348
22.04,249.001,19.211
22.07,247.351,19.039
22.11,245.561,18.902
22.14,243.806,18.936
22.17,242.017,18.776
22.2,240.227,18.73
22.24,238.647,18.799
22.27,236.787,18.581
22.3,234.471,18.466
22.33,232.506,18.501
22.37,230.751,18.329
22.4,228.856,18.134
22.43,226.926,18.134
22.46,224.995,18.054
22.5,223.065,18.054
22.53,221.1,18.02
22.56,219.029,17.905
22.59,217.099,17.813
22.63,215.239,17.71
22.66,213.203,17.561
22.69,211.133,17.527
22.72,209.097,17.538
22.76,206.851,17.321
22.79,204.57,17.355
22.82,202.78,17.321
22.85,200.674,17.034
22.89,198.499,17.103
22.92,196.779,17.206
22.95,194.849,16.805
22.99,192.708,16.828
23.02,190.918,17.011
23.05,188.707,16.645
23.08,186.145,16.553
23.12,183.899,16.714
23.15,181.723,16.347
23.18,179.407,16.221
23.21,177.336,16.267
23.25,175.09,15.866
23.28,172.493,15.648
23.31,170.001,15.591
23.34,167.474,15.202
23.38,164.772,14.949
23.41,162.035,14.697
23.44,159.402,14.308
23.47,156.805,14.159
23.51,154.243,13.941
23.54,151.506,13.495
23.57,148.628,13.403
23.6,145.821,13.185
23.64,142.943,12.739
23.67,139.89,12.555
23.7,137.047,12.235
23.73,134.169,11.96
23.77,131.432,11.811
23.8,128.624,11.559
23.83,125.536,11.238
23.86,122.307,10.906
23.9,118.938,10.482
23.93,115.569,10.115
23.96,112.34,9.76
23.99,109.111,9.268
24.03,105.742,8.821
24.06,102.267,8.408
24.09,98.758,7.939
24.12,95.108,7.584
24.16,91.528,7.263
24.19,87.738,6.724
24.22,84.053,6.415
24.25,80.684,6.22
24.29,77.245,5.751
24.32,73.665,5.361
24.35,70.155,5.109
24.39,66.611,4.766
24.42,63.031,4.445
24.45,59.486,4.273
24.48,56.187,4.158
24.52,52.888,3.883
24.55,49.449,3.654
24.58,46.045,3.54
24.61,42.676,3.334
24.65,39.307,3.116
24.68,37.306,3.093
24.71,40.219,2.348
24.74,44.15,-0.115
24.78,38.184,-1.375
24.81,29.305,-0.871
24.84,25.795,-0.321
24.87,23.654,-0.481
24.91,17.232,-1.249
24.94,5.861,-1.546
24.97,-4.387,-1.146
25.0,-10.283,-0.527
25.04,-13.547,-0.63
25.07,-18.074,-0.504
25.1,-14.108,-0.676
25.13,-13.406,-2.245
25.17,-19.583,-2.371
25.2,-23.83,-1.398
25.23,-26.357,-1.031
25.26,-28.006,-1.031
25.3,-30.287,-1.294
25.33,-33.621,-2.073
25.36,-38.254,-2.612
25.39,-42.992,-2.852
25.43,-47.379,-2.944
25.46,-50.923,-2.83
25.49,-53.871,-2.761
25.52,-56.538,-2.841
25.56,-59.416,-3.116
25.59,-62.54,-3.356
25.62,-65.804,-3.505
25.65,-69.067,-3.666
25.69,-72.296,-3.815
25.72,-75.314,-3.941
25.75,-78.578,-4.135
25.79,-81.947,-4.376
25.82,-85.281,-4.594
25.85,-88.651,-4.777
25.88,-92.09,-4.995
25.92,-95.284,-5.144
25.95,-98.091,-5.361
25.98,-100.793,-5.613
26.01,-103.461,-5.842
26.05,-106.163,-6.209
26.08,-109.076,-6.449
26.11,-112.024,-6.724
26.14,-115.218,-7.011
26.18,-118.376,-7.332
26.21,-121.394,-7.71
26.24,-124.342,-7.962
26.27,-127.325,-8.294
26.31,-130.309,-8.626
26.34,-133.397,-9.027
26.37,-136.626,-9.439
26.4,-139.714,-9.6
26.44,-142.416,-9.829
26.47,-145.294,-10.276
26.5,-148.453,-10.665
26.53,-151.576,-10.986
26.57,-154.559,-11.295
26.6,-157.507,-11.582
26.63,-160.49,-11.937
26.66,-163.649,-12.269
26.7,-166.632,-12.532
26.73,-169.545,-12.693
26.76,-172.177,-12.899
26.79,-174.915,-13.311
26.83,-177.863,-13.655
26.86,-180.74,-14.09
26.89,-183.969,-14.663
26.92,-186.952,-14.835
26.96,-189.514,-14.927
26.99,-192.041,-15.259
27.02,-194.357,-15.385
27.05,-196.674,-15.373
27.09,-199.095,-15.545
27.12,-201.376,-15.591
27.15,-203.201,-15.488
27.18,-205.272,-15.717
27.22,-207.448,-15.728
27.25,-209.132,-15.488
27.28,-210.782,-15.568
27.32,-212.537,-15.671
27.35,-214.397,-15.648
27.38,-216.187,-15.832
27.41,-217.976,-15.992
27.45,-219.766,-16.003
27.48,-221.486,-16.198
27.51,-223.241,-16.301
27.54,-224.925,-16.359
27.58,-226.68,-16.599
27.61,-228.189,-16.668
27.64,-229.768,-16.805
27.67,-231.488,-17.195
27.71,-233.243,-17.355
27.74,-234.892,-17.47
27.77,-236.296,-17.504
27.8,-237.63,-17.756
27.84,-239.349,-17.962
27.87,-241.104,-18.077
27.9,-242.543,-18.306
27.93,-243.947,-18.753
27.97,-245.421,-19.073
28.0,-246.684,-19.119
28.03,-248.088,-19.326
28.06,-249.738,-19.52
28.1,-251.212,-19.623
28.13,-252.545,-19.864
28.16,-254.23,-20.162
28.19,-255.879,-20.334
28.23,-257.143,-20.551
28.26,-258.266,-20.838
28.29,-259.354,-21.009
28.32,-260.547,-21.227
28.36,-261.74,-21.399
28.39,-263.039,-21.514
28.42,-264.162,-21.64
28.45,-265.355,-21.8
28.49,-266.618,-21.96
28.52,-267.776,-22.098
28.55,-268.97,-22.292
28.58,-269.987,-22.419
28.62,-270.83,-22.613
28.65,-271.848,-22.923
28.68,-273.146,-22.991
28.72,-274.164,-23.14
28.75,-275.146,-23.404
28.78,-276.059,-23.553
28.81,-276.831,-23.69
28.85,-277.498,-23.713
28.88,-278.165,-23.793
28.91,-278.972,-23.885
28.94,-279.884,-23.873
28.98,-280.656,-23.908
29.01,-280.972,-24.034
29.04,-281.358,-24.194
29.07,-282.06,-24.4
29.11,-282.516,-24.286
29.14,-282.657,-24.16
29.17,-282.867,-24.309
29.2,-283.218,-24.286
29.24,-283.675,-24.32
29.27,-283.85,-24.228
29.3,-283.534,-24.171
29.33,-283.148,-24.102
29.37,-283.043,-23.885
29.4,-282.903,-23.816
29.43,-282.727,-23.713
29.46,-282.481,-23.679
29.5,-282.341,-23.736
29.53,-282.166,-23.621
29.56,-281.779,-23.633
29.59,-281.253,-23.587
29.63,-280.586,-23.415
29.66,-279.919,-23.415
29.69,-279.533,-23.323
29.72,-278.972,-23.22
29.76,-277.989,-23.106
29.79,-276.831,-22.865
29.82,-275.813,-22.59
29.85,-274.76,-22.224
29.89,-273.357,-21.823
29.92,-271.777,-21.697
29.95,-270.549,-21.548
29.98,-269.321,-21.319
30.02,-267.952,-21.021
30.05,-266.338,-20.746
30.08,-264.478,-20.54
30.12,-262.688,-20.345
30.15,-261.003,-20.208
30.18,-259.564,-20.07
30.21,-258.02,-19.761
30.25,-256.055,-19.635
30.28,-254.37,-19.692
30.31,-252.966,-19.463
30.34,-251.247,-19.268
30.38,-249.562,-19.257
30.41,-247.737,-19.062
30.44,-245.491,-18.936
30.47,-243.631,-19.039
30.51,-242.157,-19.028
30.54,-240.367,-18.741
30.57,-238.542,-18.753
30.6,-236.752,-18.879
30.64,-234.822,-18.524
30.67,-232.892,-18.501
30.7,-231.137,-18.627
30.73,-229.207,-18.363
30.77,-227.031,-18.317
30.8,-225.066,-18.295
30.83,-223.276,-18.146
30.86,-221.416,-18.054
30.9,-219.31,-17.756
30.93,-216.959,-17.607
30.96,-214.818,-17.699
30.99,-212.923,-17.516
31.03,-210.817,-17.447
31.06,-208.922,-17.378
31.09,-206.746,-17.183
31.12,-204.5,-17.103
31.16,-202.534,-17.126
31.19,-200.253,-16.943
31.22,-197.902,-16.84
31.25,-196.182,-17.023
31.29,-194.217,-16.851
31.32,-191.795,-16.702
31.35,-189.83,-16.863
31.38,-188.04,-16.656
31.42,-185.548,-16.427
31.45,-182.951,-16.565
31.48,-180.6,-16.221
31.52,-178.459,-16.049
31.55,-176.494,-16.038
31.58,-174.248,-15.534
31.61,-171.405,-15.328
31.65,-168.808,-15.305
31.68,-166.246,-15.041
31.71,-163.719,-14.743
31.74,-161.122,-14.514
31.78,-158.56,-14.274
31.81,-156.068,-14.067
31.84,-153.366,-13.792
31.87,-150.523,-13.54
31.91,-147.681,-13.334
31.94,-144.873,-13.105
31.97,-142.206,-12.807
32.0,-139.363,-12.498
32.04,-136.415,-12.338
32.07,-133.607,-12.086
32.1,-130.94,-11.811
32.13,-128.062,-11.547
32.17,-124.869,-11.249
32.2,-121.675,-10.894
32.23,-118.446,-10.596
32.26,-115.182,-10.138
32.3,-111.813,-9.749
32.33,-108.549,-9.302
32.36,-105.321,-8.741
32.39,-101.952,-8.408
32.43,-98.442,-8.076
32.46,-94.827,-7.641
32.49,-91.107,-7.332
32.52,-87.527,-6.931
32.56,-84.123,-6.495
32.59,-80.614,-6.152
32.62,-77.069,-5.785
32.65,-73.595,-5.453
32.69,-69.98,-5.121
32.72,-66.435,-4.857
32.75,-63.066,-4.548
32.78,-59.697,-4.135
32.82,-56.258,-3.998
32.85,-52.818,-3.849
32.88,-49.379,-3.551
32.91,-45.975,-3.528
32.95,-42.676,-3.391
32.98,-39.026,-3.036
33.01,-36.288,-2.933
33.05,-39.026,-1.947
33.08,-43.834,0.137
33.11,-37.376,1.443
33.14,-27.164,0.951
33.18,-23.514,0.206
33.21,-22.075,0.321
33.24,-16.389,1.191
33.27,-4.773,1.524
33.31,5.299,1.031
33.34,10.634,0.378
33.37,12.985,0.561
33.4,18.109,0.435
33.44,14.073,0.779
33.47,12.073,2.623
33.5,18.53,2.154
33.53,22.917,1.546
33.57,26.146,1.191
33.6,27.901,0.894
33.63,30.322,1.237
33.66,33.691,2.039
33.7,38.429,2.623
33.73,43.027,2.83
33.76,47.414,2.887
33.79,50.818,2.852
33.83,53.836,2.761
33.86,56.433,2.933
33.89,59.521,3.208
33.92,62.715,3.391
33.96,66.014,3.586
33.99,69.418,3.803
34.02,72.717,3.941
34.05,75.946,4.067
34.09,79.14,4.227
34.12,82.404,4.491
34.15,85.738,4.754
34.18,89.001,4.926
34.22,92.125,5.144
34.25,94.933,5.373
34.28,97.459,5.579
34.31,100.197,5.945
34.35,103.355,6.266
34.38,106.479,6.495
34.41,109.532,6.679
34.45,112.375,6.988
34.48,115.323,7.332
34.51,118.481,7.618
34.54,121.675,7.973
34.58,124.799,8.202
34.61,127.676,8.511
34.64,130.519,8.901
34.67,133.432,9.119
34.71,136.766,9.657
34.74,140.24,9.989
34.77,143.188,10.115
34.8,145.75,10.505
34.84,148.593,10.848
34.87,151.717,11.078
34.9,154.7,11.295
34.93,157.648,11.582
34.97,160.561,11.834
35.0,163.298,12.097
35.03,165.93,12.441
35.06,168.808,12.761
35.1,171.686,12.968
35.13,174.599,13.208
35.16,177.371,13.586
35.19,180.003,13.873
35.23,182.741,14.159
35.26,185.619,14.503
35.29,188.251,14.583
35.32,190.742,14.766
35.36,193.094,14.972
35.39,195.2,15.03
35.42,197.551,15.224
35.45,200.043,15.362
35.49,202.254,15.373
35.52,204.254,15.557
35.55,206.255,15.614
35.58,208.22,15.683
35.62,210.255,15.706
35.65,212.256,15.797
35.68,214.046,15.889
35.71,215.836,15.98
35.75,217.731,16.164
35.78,219.696,16.381
35.81,221.486,16.473
35.85,223.03,16.473
35.88,224.504,16.725
35.91,226.224,16.84
35.94,228.049,17.011
35.98,229.733,17.115
36.01,231.523,17.218
36.04,233.348,17.493
36.07,235.068,17.642
36.11,236.436,17.779
36.14,237.665,17.997
36.17,239.279,18.237
36.2,241.104,18.409
36.24,242.719,18.592
36.27,244.052,18.764
36.3,245.596,19.005
36.33,247.246,19.257
36.37,248.509,19.314
36.4,249.738,19.474
36.43,251.247,19.83
36.46,252.756,19.898
36.5,254.195,20.116
36.53,255.704,20.483
36.56,257.213,20.712
36.59,258.546,20.872
36.63,259.74,20.952
36.66,260.898,21.055
36.69,262.021,21.261
36.72,263.144,21.33
36.76,264.407,21.433
36.79,265.671,21.64
36.82,266.934,21.914
36.85,268.057,22.189
36.89,268.97,22.476
36.92,269.952,22.648
36.95,271.181,22.854
36.98,272.339,23.049
37.02,273.427,23.117
37.05,274.585,23.335
37.08,275.497,23.472
37.11,276.199,23.564
37.15,277.007,23.747
37.18,277.919,23.873
37.21,278.621,23.942
37.25,279.428,23.999
37.28,280.13,24.194
37.31,281.042,24.251
37.34,281.604,24.251
37.38,282.025,24.377
37.41,282.622,24.412
37.44,282.903,24.366
37.47,283.008,24.343
37.51,283.429,24.343
37.54,284.061,24.435
37.57,284.341,24.343
37.6,284.131,24.286
37.64,284.026,24.366
37.67,284.341,24.206
37.7,284.131,24.125
37.73,283.71,23.965
37.77,283.534,23.885
37.8,283.64,23.954
37.83,283.464,23.828
37.86,282.797,23.633
37.9,281.955,23.53
37.93,281.288,23.346
37.96,280.656,23.197
37.99,279.884,22.991
38.03,279.147,22.865
38.06,278.305,22.648
38.09,277.393,22.43
38.12,276.305,22.327
38.16,275.322,22.075
38.19,274.023,21.926
38.22,272.514,21.685
38.25,270.83,21.388
38.29,269.461,21.193
38.32,268.338,20.987
38.35,267.039,20.769
38.38,265.25,20.586
38.42,263.565,20.528
38.45,262.126,20.357
38.48,260.617,20.162
38.51,259.108,20.127
38.55,257.529,19.944
38.58,255.704,19.772
38.61,253.984,19.646
38.64,252.545,19.589
38.68,250.931,19.417
38.71,248.93,19.257
38.74,246.93,19.337
38.78,245.28,19.268
38.81,243.736,19.119
38.84,242.192,19.108
38.87,240.543,19.016
38.91,238.612,18.799
38.94,236.366,18.73
38.97,234.261,18.695
39.0,232.541,18.627
39.04,230.891,18.547
39.07,228.961,18.386
39.1,226.68,18.329
39.13,224.785,18.329
39.17,223.135,18.214
39.2,221.17,18.1
39.23,219.064,17.962
39.26,217.099,17.928
39.3,215.099,17.894
39.33,213.063,17.802
39.36,210.957,17.848
39.39,208.957,17.779
39.43,207.062,17.607
39.46,204.956,17.55
39.49,202.71,17.378
39.52,200.604,17.344
39.56,198.779,17.309
39.59,196.744,17.08
39.62,194.673,17.034
39.65,192.708,17.034
39.69,190.672,16.931
39.72,188.496,16.874
39.75,186.215,16.782
39.78,183.829,16.656
39.82,181.477,16.507
39.85,179.372,16.324
39.88,177.126,16.106
39.91,174.774,15.958
39.95,172.318,15.717
39.98,169.72,15.419
40.01,167.088,15.236
40.04,164.456,15.007
40.08,161.929,14.743
40.11,159.332,14.514
40.14,156.805,14.274
40.18,154.173,13.987
40.21,151.401,13.666
40.24,148.558,13.38
40.27,145.61,13.082
40.31,142.767,12.876
40.34,139.925,12.635
40.37,136.977,12.338
40.4,134.064,12.097
40.44,131.256,11.822
40.47,128.413,11.604
40.5,125.29,11.249
40.53,122.061,10.894
40.57,118.832,10.493
40.6,115.533,10.081
40.63,112.164,9.691
40.66,108.795,9.336
40.7,105.321,8.924
40.73,101.811,8.592
40.76,98.302,8.145
40.79,94.862,7.755
40.83,91.458,7.343
40.86,87.703,6.782
40.89,84.053,6.495
40.92,80.473,6.117
40.96,76.894,5.751
40.99,73.56,5.567
41.02,70.155,5.178
41.05,66.576,4.857
41.09,63.066,4.731
41.12,59.627,4.513
41.15,56.328,4.273
41.18,52.994,4.147
41.22,49.8,3.849
41.25,46.255,3.574
41.28,42.746,3.288
41.31,39.131,3.185
41.35,36.78,2.681
41.38,39.236,1.535
41.41,44.044,0.0
41.44,38.535,-1.432
41.48,28.638,-0.997
41.51,24.777,-0.298
41.54,23.058,-0.412
41.58,17.302,-1.226
41.61,5.861,-1.581
41.64,-4.597,-1.157
41.67,-10.564,-0.573
41.71,-13.477,-0.493
41.74,-17.793,-0.676
41.77,-14.354,-1.615
41.8,-13.371,-1.982
41.84,-19.478,-2.051
41.87,-23.795,-1.65
41.9,-26.321,-0.951
41.93,-27.831,-0.871
41.97,-29.971,-1.294
42.0,-33.27,-1.993
42.03,-37.973,-2.6
42.06,-42.606,-2.807
42.1,-46.922,-2.772
42.13,-50.397,-2.761
42.16,-53.485,-2.704
42.19,-56.152,-2.795
42.23,-59.135,-3.082
42.26,-62.329,-3.356
42.29,-65.768,-3.551
42.32,-69.102,-3.677
42.36,-72.437,-3.861
42.39,-75.665,-4.009
42.42,-78.824,-4.158
42.45,-82.123,-4.433
42.49,-85.492,-4.628
42.52,-88.791,-4.846
42.55,-92.09,-5.063
42.58,-95.178,-5.247
42.62,-98.056,-5.453
42.65,-100.688,-5.67
42.68,-103.25,-5.934
42.71,-106.058,-6.266
42.75,-109.111,-6.518
42.78,-112.164,-6.816
42.81,-115.218,-7.114
42.84,-118.236,-7.377
42.88,-121.184,-7.767
42.91,-124.026,-8.065
42.94,-127.08,-8.34
42.98,-130.098,-8.729
43.01,-133.362,-9.153
43.04,-136.591,-9.542
43.07,-139.644,-9.783
43.11,-142.416,-10.012
43.14,-145.364,-10.333
43.17,-148.628,-10.745
43.2,-151.752,-11.043
43.24,-154.524,-11.375
43.27,-157.332,-11.765
43.3,-160.42,-12.166
43.33,-163.544,-12.509
43.37,-166.527,-12.796
43.4,-169.334,-12.933
43.43,-172.107,-13.197
43.46,-174.844,-13.392
43.5,-177.757,-13.678
43.53,-180.775,-14.102
43.56,-183.618,-14.342
43.59,-186.285,-14.617
43.63,-188.918,-14.961
43.66,-191.515,-15.098
43.69,-193.761,-15.213
43.72,-195.937,-15.373
43.76,-198.148,-15.419
43.79,-200.464,-15.408
43.82,-202.815,-15.522
43.85,-204.851,-15.454
43.89,-206.606,-15.431
43.92,-208.501,-15.694
43.95,-210.466,-15.717
43.98,-212.431,-15.843
44.02,-214.362,-15.946
44.05,-216.151,-15.958
44.08,-217.941,-16.198
44.11,-220.047,-16.336
44.15,-222.047,-16.45
44.18,-223.732,-16.656
44.21,-225.241,-16.794
44.24,-226.785,-16.931
44.28,-228.61,-17.069
44.31,-230.365,-17.172
44.34,-231.979,-17.355
44.37,-233.699,-17.642
44.41,-235.173,-17.699
44.44,-236.401,-17.733
44.47,-237.981,-18.077
44.51,-239.841,-18.226
44.54,-241.209,-18.283
44.57,-242.543,-18.478
44.6,-244.087,-18.799
44.64,-245.667,-19.005
44.67,-247.176,-19.131
44.7,-248.474,-19.303
44.73,-249.702,-19.36
44.77,-251.106,-19.646
44.8,-252.65,-19.956
44.83,-254.124,-20.196
44.86,-255.669,-20.483
44.9,-257.072,-20.712
44.93,-258.195,-20.861
44.96,-259.389,-21.032
44.99,-260.722,-21.204
45.03,-262.021,-21.261
45.06,-263.074,-21.456
45.09,-264.197,-21.685
45.12,-265.32,-21.823
45.16,-266.618,-22.04
45.19,-267.882,-22.201
45.22,-268.935,-22.258
45.25,-269.847,-22.499
45.29,-270.83,-22.819
45.32,-271.848,-22.957
45.35,-273.076,-23.117
45.38,-274.094,-23.301
45.42,-275.041,-23.369
45.45,-275.848,-23.53
45.48,-276.656,-23.679
45.51,-277.428,-23.805
45.55,-278.165,-23.873
45.58,-278.867,-24.034
45.61,-279.744,-24.08
45.64,-280.446,-24.125
45.68,-280.972,-24.24
45.71,-281.393,-24.228
45.74,-282.06,-24.481
45.77,-282.622,-24.343
45.81,-282.692,-24.08
45.84,-282.762,-24.263
45.87,-283.289,-24.297
45.91,-283.745,-24.183
45.94,-283.815,-24.183
45.97,-283.71,-24.286
46.0,-283.569,-24.354
46.04,-283.429,-24.286
46.07,-283.429,-24.16
46.1,-283.359,-24.16
46.13,-283.148,-24.137
46.17,-282.867,-24.034
46.2,-282.657,-23.873
46.23,-282.201,-23.828
46.26,-281.499,-23.644
46.3,-280.727,-23.427
46.33,-280.095,-23.369
46.36,-279.428,-23.163
46.39,-278.621,-23.037
46.43,-277.849,-23.037
46.46,-277.463,-23.071
46.49,-277.322,-23.209
46.52,-276.866,-23.152
46.56,-276.059,-23.186
46.59,-275.357,-23.381
46.62,-274.76,-23.243
46.65,-273.918,-23.14
46.69,-272.69,-22.923
46.72,-271.321,-22.682
46.75,-269.812,-22.419
46.78,-268.268,-22.018
46.82,-266.653,-21.8
46.85,-264.969,-21.445
46.88,-263.214,-21.009
46.91,-261.389,-20.838
46.95,-259.529,-20.505
46.98,-257.564,-20.139
47.01,-255.353,-19.83
47.04,-253.107,-19.463
47.08,-251.036,-19.257
47.11,-249.316,-18.936
47.14,-247.281,-18.627
47.17,-244.894,-18.478
47.21,-242.754,-18.409
47.24,-241.034,-18.421
47.27,-238.998,-18.18
47.31,-236.717,-18.054
47.34,-234.647,-17.985
47.37,-232.541,-17.779
47.4,-230.435,-17.653
47.44,-228.294,-17.504
47.47,-226.048,-17.447
47.5,-223.837,-17.378
47.53,-221.626,-17.241
47.57,-219.45,-17.206
47.6,-217.415,-17.126
47.63,-215.239,-16.977
47.66,-212.958,-16.908
47.7,-210.712,-16.805
47.73,-208.641,-16.737
47.76,-206.606,-16.737
47.79,-204.5,-16.714
47.83,-202.219,-16.599
47.86,-199.937,-16.553
47.89,-197.902,-16.622
47.92,-195.796,-16.542
47.96,-193.726,-16.507
47.99,-191.795,-16.565
48.02,-189.584,-16.324
48.05,-186.987,-16.106
48.09,-184.601,-16.198
48.12,-182.425,-16.015
48.15,-180.179,-15.751
48.18,-177.933,-15.683
48.22,-175.652,-15.591
48.25,-173.265,-15.476
48.28,-170.773,-15.362
48.31,-168.176,-15.167
48.35,-165.755,-15.087
48.38,-163.368,-14.858
48.41,-160.701,-14.423
48.44,-157.999,-14.331
48.48,-155.647,-14.136
48.51,-153.05,-13.804
48.54,-150.137,-13.54
48.57,-147.084,-13.254
48.61,-144.206,-13.025
48.64,-141.644,-12.773
48.67,-138.766,-12.361
48.71,-135.643,-12.074
48.74,-132.625,-11.925
48.77,-129.817,-11.685
48.8,-126.939,-11.33
48.84,-123.676,-11.02
48.87,-120.412,-10.585
48.9,-116.376,-9.737
48.93,-111.357,-8.672
48.97,-105.777,-7.618
49.0,-100.829,-6.839
49.03,-97.389,-6.415
49.06,-94.336,-5.579
49.1,-90.37,-4.903
49.13,-86.089,-4.72
49.16,-82.404,-4.651
49.19,-79.28,-4.731
49.23,-76.297,-4.674
49.26,-72.998,-4.536
49.29,-69.699,-4.628
49.32,-66.751,-4.731
49.36,-64.119,-4.811
49.39,-61.311,-4.846
49.42,-58.504,-4.926
49.45,-55.766,-5.029
49.49,-53.064,-5.029
49.52,-50.081,-5.029
49.55,-47.133,-4.914
49.58,-44.044,-4.869
49.62,-41.202,-4.743
49.65,-37.833,-4.422
49.68,-35.551,-4.009
49.71,-38.675,-2.623
49.75,-46.817,-0.825
49.78,-45.448,1.283
49.81,-33.411,1.375
49.84,-27.55,0.309
49.88,-26.462,0.183
49.91,-22.075,1.065
49.94,-9.967,1.741
49.97,3.053,1.455
50.01,11.02,0.55
50.04,13.161,0.367
50.07,17.126,0.458
50.1,18.53,0.802
50.14,12.634,1.615
50.17,15.477,1.592
50.2,20.145,1.913
50.24,23.724,1.237
50.27,25.935,0.836
50.3,28.252,1.168
50.33,31.27,1.615
50.37,35.551,2.234
50.4,40.57,2.818
50.43,45.624,3.001
50.46,49.8,2.956
50.5,53.345,2.887
50.53,56.433,3.024
50.56,59.557,3.265
50.59,62.856,3.551
50.63,66.19,3.803
50.66,69.734,4.032
50.69,73.209,4.261
50.72,76.402,4.387
50.76,79.385,4.536
50.79,82.228,4.788
50.82,85.141,5.018
50.85,88.019,5.212
50.89,91.072,5.43
50.92,94.055,5.613
50.95,97.038,5.865
50.98,100.056,6.037
51.02,102.934,6.22
51.05,105.847,6.495
51.08,108.76,6.713
51.11,111.848,6.965
51.15,114.832,7.194
51.18,117.78,7.48
51.21,120.728,7.721
51.24,123.5,7.996
51.28,126.483,8.34
51.31,129.466,8.637
51.34,132.625,8.947
51.37,135.678,9.313
51.41,138.626,9.634
51.44,141.644,9.955
51.47,144.838,10.31
51.5,147.997,10.608
51.54,150.839,10.894
51.57,153.612,11.226
51.6,156.349,11.536
51.64,159.227,11.914
51.67,162.175,12.246
51.7,165.228,12.487
51.73,168.176,12.75
51.77,170.879,13.048
51.8,173.616,13.369
51.83,176.424,13.735
51.86,179.512,14.102
51.9,182.53,14.297
51.93,185.338,14.423
51.96,187.759,14.72
51.99,190.111,15.041
52.03,192.638,15.133
52.06,195.059,15.236
52.09,197.375,15.419
52.12,199.622,15.442
52.16,201.762,15.58
52.19,204.044,15.648
52.22,206.184,15.694
52.25,208.115,15.774
52.29,210.01,15.763
52.32,211.94,15.923
52.35,213.94,16.129
52.38,215.906,16.175
52.42,217.801,16.347
52.45,219.766,16.611
52.48,221.591,16.668
52.51,223.311,16.771
52.55,225.066,16.954
52.58,226.82,17.103
52.61,228.645,17.241
52.64,230.295,17.321
52.68,231.804,17.47
52.71,233.453,17.756
52.74,235.278,17.825
52.77,236.928,17.939
52.81,238.507,18.168
52.84,240.051,18.34
52.87,241.701,18.547
52.9,243.245,18.764
52.94,244.824,18.867
52.97,246.333,19.119
53.0,247.842,19.371
53.04,249.071,19.486
53.07,250.264,19.704
53.1,251.843,19.967
53.13,253.668,20.093
53.17,255.283,20.276
53.2,256.616,20.563
53.23,257.985,20.7
53.26,259.038,20.803
53.3,260.02,20.975
53.33,261.108,21.158
53.36,262.196,21.33
53.39,263.425,21.514
53.43,264.653,21.559
53.46,265.741,21.72
53.49,266.899,21.892
53.52,268.163,22.006
53.56,269.25,22.109
53.59,270.198,22.315
53.62,271.321,22.567
53.65,272.514,22.682
53.69,273.497,22.957
53.72,274.515,23.197
53.75,275.533,23.323
53.78,276.445,23.53
53.82,277.217,23.656
53.85,277.989,23.69
53.88,278.761,23.77
53.91,279.498,23.885
53.95,280.341,24.011
53.98,281.253,24.148
54.01,281.709,24.045
54.04,281.779,24.057
54.08,282.271,24.309
54.11,282.832,24.183
54.14,282.973,24.091
54.17,283.183,24.171
54.21,283.675,24.228
54.24,283.955,24.171
54.27,283.85,24.091
54.3,283.71,24.102
54.34,283.64,24.102
54.37,283.569,23.873
54.4,283.359,23.736
54.44,283.253,23.736
54.47,283.113,23.69
54.5,282.657,23.61
54.53,282.06,23.484
54.57,281.569,23.415
54.6,280.972,23.266
54.63,280.376,22.991
54.66,279.533,22.785
54.7,278.586,22.602
54.73,277.744,22.556
54.76,277.007,22.476
54.79,276.129,22.247
54.83,274.971,22.04
54.86,273.497,21.823
54.89,271.953,21.594
54.92,270.689,21.399
54.96,269.707,21.193
54.99,268.408,21.021
55.02,266.934,20.78
55.05,265.425,20.609
55.09,264.021,20.483
55.12,262.582,20.322
55.15,260.828,20.173
55.18,259.143,20.116
55.22,257.634,20.082
55.25,256.125,19.933
55.28,254.475,19.784
55.31,252.861,19.669
55.35,251.247,19.555
55.38,249.527,19.406
55.41,247.772,19.36
55.44,246.123,19.371
55.48,244.298,19.326
55.51,242.368,19.268
55.54,240.683,19.257
55.57,239.174,19.108
55.61,237.279,18.913
55.64,235.208,18.776
55.67,233.243,18.569
55.7,231.488,18.547
55.74,229.768,18.455
55.77,227.663,18.214
55.8,225.627,18.352
55.83,223.732,18.283
55.87,221.661,18.031
55.9,219.415,18.008
55.93,217.485,17.848
55.97,215.485,17.779
56.0,213.379,17.687
56.03,211.203,17.435
56.06,209.097,17.412
56.1,207.202,17.401
56.13,205.096,17.241
56.16,202.71,17.218
56.19,200.569,17.218
56.23,198.534,17.034
56.26,196.533,16.989
56.29,194.638,17.0
56.32,192.603,16.92
56.36,190.356,16.737
56.39,188.251,16.725
56.42,186.25,16.622
56.45,183.794,16.37
56.49,181.372,16.347
56.52,178.986,16.164
56.55,176.775,16.003
56.58,174.634,15.912
56.62,172.212,15.671
56.65,169.615,15.499
56.68,167.123,15.385
56.71,164.702,15.03
56.75,162.035,14.72
56.78,159.332,14.48
56.81,156.595,14.136
56.84,154.138,13.987
56.88,151.682,13.689
56.91,148.804,13.311
56.94,145.715,13.082
56.97,142.732,12.887
57.01,139.819,12.59
57.04,136.977,12.303
57.07,134.099,12.063
57.1,131.291,11.776
57.14,128.308,11.456
57.17,125.079,11.112
57.2,121.71,10.734
57.23,118.481,10.436
57.27,115.253,9.978
57.3,111.884,9.52
57.33,108.514,9.153
57.37,105.04,8.752
57.4,101.601,8.317
57.43,98.232,7.996
57.46,94.757,7.584
57.5,91.037,7.16
57.53,87.387,6.839
57.56,83.948,6.495
57.59,80.403,6.083
57.63,76.929,5.819
57.66,73.419,5.544
57.69,69.734,5.132
57.72,66.33,4.995
57.76,63.101,4.72
57.79,59.767,4.365
57.82,56.433,4.25
57.85,53.029,4.021
57.89,49.554,3.723
57.92,46.01,3.631
57.95,42.886,3.471
57.98,39.622,3.322
58.02,37.798,2.738
58.05,41.026,1.501
58.08,45.624,-0.115
58.11,39.798,-1.398
58.15,30.392,-0.962
58.18,26.146,-0.389
58.21,23.549,-0.561
58.24,16.705,-1.306
58.28,4.597,-1.684
58.31,-6.598,-1.191
58.34,-12.599,-0.584
58.37,-15.688,-0.47
58.41,-19.057,-0.642
58.44,-14.74,-1.409
58.47,-14.565,-1.776
58.5,-19.794,-1.844
58.54,-23.128,-1.294
58.57,-25.198,-0.768
58.6,-26.602,-0.79
58.63,-28.813,-1.226
58.67,-32.358,-1.879
58.7,-37.201,-2.463
58.73,-42.184,-2.623
58.77,-46.606,-2.692
58.8,-50.291,-2.749
58.83,-53.731,-2.83
58.86,-56.995,-3.036
58.9,-60.469,-3.322
58.93,-63.979,-3.586
58.96,-67.593,-3.78
58.99,-71.103,-3.975
59.03,-74.332,-4.067
59.06,-77.35,-4.17
59.09,-80.122,-4.193
59.12,-82.719,-4.296
59.16,-85.457,-4.536
59.19,-88.335,-4.674
59.22,-91.212,-4.823
59.25,-94.09,-4.949
59.29,-96.933,-5.109
59.32,-99.846,-5.407
59.35,-102.899,-5.682
59.38,-106.058,-5.923
59.42,-109.111,-6.266
59.45,-112.024,-6.541
59.48,-115.007,-6.873
59.51,-117.955,-7.194
59.55,-120.973,-7.503
59.58,-124.026,-7.824
59.61,-127.115,-8.156
59.64,-130.098,-8.557
59.68,-133.116,-8.935
59.71,-136.38,-9.394
59.74,-139.609,-9.806
59.77,-142.697,-10.115
59.81,-145.575,-10.425
59.84,-148.453,-10.722
59.87,-151.401,-11.032
59.9,-154.524,-11.295
59.94,-157.542,-11.582
59.97,-160.42,-11.948
60.0,-163.333,-12.212
60.03,-166.211,-12.509
60.07,-169.089,-12.865
60.1,-171.861,-13.048
60.13,-174.493,-13.266
60.17,-177.336,-13.621
60.2,-180.53,-13.827
60.23,-183.408,-14.125
60.26,-186.005,-14.4
60.3,-188.496,-14.617
60.33,-191.023,-14.835
60.36,-193.515,-15.075
60.39,-195.796,-15.213
60.43,-197.832,-15.19
60.46,-200.078,-15.454
60.49,-202.57,-15.625
60.52,-204.71,-15.465
60.56,-206.746,-15.58
60.59,-208.746,-15.694
60.62,-210.641,-15.625
60.65,-212.466,-15.774
60.69,-214.362,-15.992
60.72,-216.327,-16.049
60.75,-218.398,-16.255
60.78,-220.363,-16.404
60.82,-221.977,-16.393
60.85,-223.592,-16.553
60.88,-225.241,-16.668
60.91,-227.031,-16.748
60.95,-228.786,-16.931
60.98,-230.33,-17.0
61.01,-231.944,-17.149
61.04,-233.699,-17.481
61.08,-235.208,-17.573
61.11,-236.577,-17.676
61.14,-238.226,-18.02
61.17,-239.876,-18.088
61.21,-241.35,-18.249
61.24,-242.964,-18.524
61.27,-244.543,-18.604
61.3,-245.947,-18.844
61.34,-247.386,-19.154
61.37,-248.579,-19.199
61.4,-249.667,-19.394
61.43,-251.071,-19.726
61.47,-252.791,-19.875
61.5,-254.335,-20.082
61.53,-255.879,-20.425
61.56,-257.388,-20.574
61.6,-258.582,-20.643
61.63,-259.634,-20.677
61.66,-260.547,-20.769
61.7,-261.705,-20.987
61.73,-262.968,-21.227
61.76,-264.021,-21.307
61.79,-265.179,-21.594
61.83,-266.513,-21.823
61.86,-267.741,-21.846
61.89,-268.689,-22.052
61.92,-269.637,-22.304
61.96,-270.654,-22.43
61.99,-271.742,-22.59
62.02,-272.935,-22.785
62.05,-273.988,-23.003
62.09,-274.901,-23.22
62.12,-275.603,-23.232
62.15,-276.375,-23.427
62.18,-277.112,-23.553
62.22,-277.884,-23.621
62.25,-278.656,-23.828
62.28,-279.674,-23.828
62.31,-280.411,-23.919
62.35,-280.727,-24.102
62.38,-281.288,-24.16
62.41,-281.99,-24.297
62.44,-282.271,-24.068
62.48,-282.446,-24.08
62.51,-282.797,-24.16
62.54,-283.324,-24.16
62.57,-283.604,-24.206
62.61,-283.604,-24.194
62.64,-283.78,-24.297
62.67,-283.885,-24.171
62.7,-283.64,-23.976
62.74,-283.499,-23.965
62.77,-283.499,-23.965
62.8,-283.534,-24.011
62.83,-283.289,-23.873
62.87,-282.867,-23.862
62.9,-282.306,-23.713
62.93,-281.534,-23.53
62.96,-280.727,-23.369
63.0,-280.165,-23.186
63.03,-280.025,-23.323
63.06,-280.06,-23.301
63.1,-279.463,-23.163
63.13,-278.235,-23.14
63.16,-277.042,-22.957
63.19,-275.848,-22.659
63.23,-274.585,-22.396
63.26,-273.181,-21.972
63.29,-271.567,-21.628
63.32,-269.812,-21.307
63.36,-268.057,-20.998
63.39,-266.443,-20.746
63.42,-264.934,-20.357
63.45,-263.109,-20.059
63.49,-261.214,-19.898
63.52,-259.213,-19.6
63.55,-257.318,-19.383
63.58,-255.634,-19.234
63.62,-253.773,-18.902
63.65,-251.878,-18.764
63.68,-249.983,-18.638
63.71,-247.807,-18.249
63.75,-245.947,-18.26
63.78,-244.403,-18.466
63.81,-242.543,-18.1
63.84,-240.297,-18.111
63.88,-238.472,-18.317
63.91,-237.033,-18.272
63.94,-235.524,-18.329
63.97,-233.699,-18.237
64.01,-231.593,-18.134
64.04,-229.593,-18.283
64.07,-227.768,-18.272
64.1,-225.908,-18.1
64.14,-223.872,-18.008
64.17,-221.977,-17.939
64.2,-219.942,-17.79
64.23,-217.941,-17.71
64.27,-215.941,-17.584
64.3,-213.8,-17.447
64.33,-211.694,-17.447
64.36,-209.554,-17.367
64.4,-207.518,-17.275
64.43,-205.833,-17.355
64.46,-203.868,-17.275
64.5,-201.482,-17.0
64.53,-199.306,-17.149
64.56,-197.375,-17.092
64.59,-195.235,-16.679
64.63,-192.953,-16.805
64.66,-190.918,-16.771
64.69,-188.812,-16.473
64.72,-186.917,-16.702
64.76,-184.811,-16.473
64.79,-182.355,-16.198
64.82,-180.179,-16.336
64.85,-178.003,-16.095
64.89,-175.827,-15.843
64.92,-173.616,-15.854
64.95,-171.335,-15.602
64.98,-168.738,-15.396
65.02,-166.351,-15.476
65.05,-164.07,-15.179
65.08,-161.473,-14.927
65.11,-158.946,-14.858
65.15,-156.56,-14.56
65.18,-154.208,-14.377
65.21,-151.682,-14.102
65.24,-148.663,-13.598
65.28,-145.61,-13.38
65.31,-142.873,-13.22
65.34,-139.995,-12.773
65.37,-136.942,-12.406
65.41,-133.958,-12.143
65.44,-131.081,-11.719
65.47,-128.133,-11.318
65.5,-124.869,-10.986
65.54,-121.5,-10.493
65.57,-118.06,-10.092
65.6,-114.726,-9.772
65.63,-111.322,-9.302
65.67,-107.953,-8.924
65.7,-104.514,-8.523
65.73,-101.109,-8.133
65.76,-97.881,-7.813
65.8,-94.406,-7.412
65.83,-90.791,-7.011
65.86,-87.212,-6.782
65.9,-84.088,-6.392
65.93,-80.789,-6.06
65.96,-77.35,-5.968
65.99,-73.946,-5.797
66.03,-70.752,-5.556
66.06,-67.523,-5.315
66.09,-64.154,-5.029
66.12,-60.75,-4.834
66.16,-57.381,-4.559
66.19,-53.941,-4.261
66.22,-50.572,-4.078
66.25,-47.238,-3.803
66.29,-43.834,-3.46
66.32,-40.184,-3.448
66.35,-38.289,-2.715
66.38,-42.044,-1.203
66.42,-46.326,0.286
66.45,-38.745,1.466
66.48,-29.726,0.733
66.51,-26.602,0.275
66.55,-23.97,0.538
66.58,-16.495,1.375
66.61,-3.896,1.604
66.64,6.668,1.042
66.68,12.283,0.481
66.71,15.758,0.561
66.74,20.566,0.607
66.77,14.951,1.97
66.81,14.6,1.913
66.84,20.847,2.314
66.87,24.988,2.005
66.9,27.409,0.813
66.94,28.568,0.951
66.97,30.743,1.432
67.0,33.972,2.131
67.03,38.605,2.795
67.07,43.448,3.047
67.1,47.8,2.944
67.13,51.274,2.841
67.16,54.222,2.852
67.2,57.065,3.024
67.23,60.188,3.276
67.26,63.593,3.608
67.29,67.172,3.815
67.33,70.612,3.929
67.36,73.946,4.055
67.39,77.034,4.147
67.43,80.017,4.33
67.46,82.93,4.456
67.49,86.053,4.754
67.52,89.247,4.972
67.56,92.265,5.121
67.59,95.073,5.373
67.62,98.021,5.59
67.65,100.723,5.751
67.69,103.566,5.98
67.72,106.514,6.301
67.75,109.462,6.553
67.78,112.445,6.724
67.82,115.604,7.148
67.85,118.587,7.366
67.88,121.429,7.526
67.91,124.202,7.927
67.95,126.904,8.191
67.98,129.922,8.557
68.01,133.257,8.935
68.04,136.38,9.096
68.08,139.293,9.405
68.11,142.451,9.932
68.14,145.61,10.299
68.17,148.558,10.619
68.21,151.436,10.94
68.24,154.349,11.192
68.27,157.262,11.513
68.3,160.175,11.891
68.34,163.158,12.086
68.37,165.895,12.269
68.4,168.668,12.681
68.43,171.545,13.002
68.47,174.353,13.277
68.5,177.336,13.632
68.53,180.284,13.976
68.56,183.057,14.205
68.6,185.689,14.571
68.63,188.356,14.892
68.66,190.848,14.961
68.69,193.34,15.121
68.73,195.796,15.19
68.76,197.832,15.121
68.79,199.973,15.408
68.83,202.359,15.557
68.86,204.535,15.419
68.89,206.29,15.534
68.92,208.15,15.602
68.96,210.115,15.557
68.99,212.186,15.774
69.02,214.256,15.854
69.05,215.941,15.946
69.09,217.661,16.129
69.12,219.415,16.278
69.15,221.24,16.416
69.18,222.925,16.427
69.22,224.504,16.53
69.25,226.294,16.691
69.28,228.119,16.794
69.31,229.663,16.977
69.35,231.172,17.137
69.38,232.927,17.344
69.41,234.647,17.493
69.44,236.121,17.596
69.48,237.489,17.813
69.51,239.104,18.054
69.54,240.648,18.123
69.57,242.157,18.375
69.61,243.771,18.661
69.64,245.245,18.89
69.67,246.684,19.085
69.7,248.264,19.211
69.74,249.702,19.371
69.77,251.071,19.635
69.8,252.58,19.99
69.83,254.16,20.185
69.87,255.634,20.414
69.9,257.143,20.7
69.93,258.371,20.757
69.96,259.389,20.872
70.0,260.722,21.147
70.03,262.161,21.181
70.06,263.319,21.296
70.09,264.267,21.433
70.13,265.144,21.72
70.16,266.478,22.121
70.19,268.022,22.144
70.23,268.97,22.155
70.26,269.742,22.338
70.29,270.9,22.602
70.32,272.269,22.9
70.36,273.357,23.003
70.39,274.339,23.117
70.42,275.392,23.404
70.45,276.27,23.53
70.49,276.831,23.564
70.52,277.533,23.61
70.55,278.516,23.77
70.58,279.463,23.828
70.62,280.235,23.839
70.65,280.692,23.885
70.68,281.288,24.045
70.71,281.92,24.08
70.75,282.481,24.068
70.78,282.587,24.137
70.81,282.762,24.148
70.84,283.324,24.183
70.88,284.096,24.297
70.91,284.236,24.08
70.94,284.026,24.068
70.97,284.166,24.32
71.01,284.341,24.206
71.04,284.061,23.988
71.07,283.675,23.816
71.1,283.429,23.805
71.14,283.464,23.793
71.17,283.183,23.644
71.2,282.692,23.587
71.23,282.095,23.404
71.27,281.429,23.163
71.3,280.692,22.98
71.33,279.814,22.751
71.36,278.761,22.545
71.4,277.849,22.499
71.43,277.042,22.361
71.46,276.094,22.247
71.49,274.971,22.075
71.53,273.672,21.766
71.56,272.198,21.502
71.59,270.83,21.319
71.63,269.672,21.204
71.66,268.513,20.918
71.69,267.004,20.62
71.72,265.46,20.528
71.76,263.986,20.322
71.79,262.337,20.162
71.82,260.793,20.07
71.85,259.283,19.898
71.89,257.669,19.818
71.92,256.02,19.646
71.95,254.3,19.486
71.98,252.686,19.383
72.02,251.141,19.337
72.05,249.176,19.051
72.08,246.93,18.902
72.11,245.105,19.073
72.15,243.596,18.856
72.18,241.631,18.627
72.21,239.876,18.741
72.24,238.261,18.627
72.28,236.436,18.558
72.31,234.366,18.432
72.34,232.19,18.34
72.37,230.295,18.352
72.41,228.54,18.214
72.44,226.645,18.042
72.47,224.574,17.939
72.5,222.609,17.962
72.54,220.679,17.905
72.57,218.643,17.768
72.6,216.643,17.768
72.63,214.783,17.733
72.67,212.817,17.516
72.7,210.887,17.561
72.73,209.027,17.504
72.76,206.956,17.435
72.8,204.921,17.516
72.83,202.675,17.275
72.86,200.323,17.149
72.89,198.499,17.195
72.93,196.533,16.954
72.96,194.322,16.748
72.99,192.181,16.885
73.02,190.216,16.759
73.06,187.935,16.473
73.09,185.478,16.485
73.12,183.197,16.313
73.16,180.916,16.061
73.19,178.635,16.049
73.22,176.389,15.935
73.25,174.002,15.648
73.29,171.686,15.602
73.32,169.299,15.396
73.35,166.702,15.11
73.38,164.14,14.995
73.42,161.684,14.686
73.45,159.087,14.468
73.48,156.665,14.354
73.51,154.173,14.045
73.55,151.436,13.827
73.58,148.804,13.689
73.61,146.066,13.357
73.64,143.048,13.117
73.68,140.205,12.933
73.71,137.398,12.578
73.74,134.66,12.315
73.77,131.888,12.074
73.81,128.975,11.696
73.84,125.922,11.318
73.87,122.623,10.929
73.9,119.289,10.528
73.94,115.919,10.127
73.97,112.48,9.703
74.0,108.9,9.359
74.03,105.566,8.97
74.07,102.197,8.477
74.1,98.793,8.065
74.13,95.213,7.606
74.16,91.423,7.137
74.2,87.668,6.667
74.23,83.948,6.289
74.26,80.508,6.026
74.29,77.104,5.59
74.33,73.524,5.304
74.36,70.015,5.144
74.39,66.681,4.846
74.42,63.277,4.559
74.46,59.908,4.445
74.49,56.538,4.135
74.52,53.099,3.895
74.56,49.625,3.757
74.59,46.326,3.586
74.62,42.746,3.242
74.65,39.096,3.15
74.69,37.622,2.291
74.72,41.132,0.871
74.75,42.57,-0.699
74.78,33.762,-1.398
74.82,26.427,-0.619
74.85,24.04,-0.286
74.88,21.408,-0.664
74.91,13.652,-1.363
74.95,2.808,-1.409
74.98,-5.685,-0.825
75.01,-9.3,-0.47
75.04,-12.74,-0.481
75.08,-15.512,-0.882
75.11,-11.336,-1.546
75.14,-13.441,-1.707
75.17,-19.232,-1.879
75.21,-22.882,-1.203
75.24,-25.093,-0.768
75.27,-27.023,-0.916
75.3,-29.761,-1.398
75.34,-33.762,-2.016
75.37,-38.499,-2.52
75.4,-43.167,-2.681
75.43,-47.203,-2.635
75.47,-50.432,-2.566
75.5,-53.38,-2.681
75.53,-56.258,-2.852
75.56,-59.416,-3.15
75.6,-62.82,-3.448
75.63,-66.365,-3.666
75.66,-69.945,-3.838
75.69,-73.349,-3.952
75.73,-76.718,-4.113
75.76,-79.912,-4.273
75.79,-83.035,-4.433
75.82,-85.878,-4.525
75.86,-88.896,-4.72
75.89,-91.914,-5.052
75.92,-94.862,-5.155
75.96,-97.67,-5.407
75.99,-100.443,-5.648
76.02,-103.18,-5.693
76.05,-105.952,-5.957
76.09,-108.9,-6.289
76.12,-111.848,-6.449
76.15,-114.937,-6.782
76.18,-117.955,-7.08
76.22,-120.938,-7.412
76.25,-123.816,-7.824
76.28,-126.694,-8.214
76.31,-129.887,-8.5
76.35,-133.116,-8.775
76.38,-136.31,-9.187
76.41,-139.328,-9.52
76.44,-142.276,-9.84
76.48,-145.259,-10.23
76.51,-148.242,-10.596
76.54,-151.19,-10.974
76.57,-154.208,-11.295
76.61,-157.297,-11.513
76.64,-160.245,-11.811
76.67,-163.193,-12.109
76.7,-166.0,-12.406
76.74,-168.878,-12.761
76.77,-171.791,-13.002
76.8,-174.529,-13.357
76.83,-177.266,-13.644
76.87,-180.179,-14.01
76.9,-183.092,-14.377
76.93,-185.829,-14.537
76.96,-188.496,-14.755
77.0,-191.023,-14.972
77.03,-193.304,-15.041
77.06,-195.41,-15.247
77.09,-197.867,-15.442
77.13,-200.359,-15.431
77.16,-202.71,-15.534
77.19,-204.851,-15.602
77.22,-206.641,-15.648
77.26,-208.536,-15.74
77.29,-210.641,-15.843
77.32,-212.747,-15.935
77.36,-214.607,-15.992
77.39,-216.502,-16.129
77.42,-218.222,-16.233
77.45,-219.942,-16.393
77.49,-221.837,-16.496
77.52,-223.521,-16.53
77.55,-225.066,-16.633
77.58,-226.645,-16.885
77.62,-228.47,-16.966
77.65,-230.26,-17.034
77.68,-231.944,-17.332
77.71,-233.348,-17.39
77.75,-234.717,-17.573
77.78,-236.226,-17.768
77.81,-237.84,-17.848
77.84,-239.56,-18.134
77.88,-241.245,-18.283
77.91,-242.683,-18.432
77.94,-244.087,-18.799
77.97,-245.737,-18.936
78.01,-247.07,-19.039
78.04,-248.404,-19.44
78.07,-249.843,-19.578
78.1,-251.141,-19.658
78.14,-252.51,-20.001
78.17,-254.16,-20.219
78.2,-255.563,-20.334
78.23,-256.862,-20.574
78.27,-258.09,-20.815
78.3,-259.213,-21.009
78.33,-260.477,-21.193
78.36,-261.951,-21.388
78.4,-263.179,-21.433
78.43,-264.197,-21.548
78.46,-265.25,-21.766
78.49,-266.478,-21.892
78.53,-267.671,-22.166
78.56,-269.075,-22.396
78.59,-270.093,-22.487
78.62,-270.795,-22.533
78.66,-271.602,-22.682
78.69,-272.9,-23.026
78.72,-274.059,-23.083
78.75,-274.796,-23.14
78.79,-275.708,-23.45
78.82,-276.726,-23.576
78.85,-277.603,-23.656
78.89,-277.919,-23.621
78.92,-278.375,-23.736
78.95,-279.288,-24.011
78.98,-280.165,-23.976
79.02,-280.376,-23.805
79.05,-280.762,-24.045
79.08,-281.604,-24.148
79.11,-282.166,-23.999
79.15,-282.095,-24.034
79.18,-282.306,-24.274
79.21,-282.797,-24.309
79.24,-283.253,-24.274
79.28,-283.359,-24.343
79.31,-283.64,-24.343
79.34,-283.745,-24.377
79.37,-283.64,-24.297
79.41,-283.359,-24.228
79.44,-283.394,-24.206
79.47,-283.289,-23.999
79.5,-282.938,-24.011
79.54,-282.481,-23.999
79.57,-281.92,-23.77
79.6,-281.218,-23.644
79.63,-280.446,-23.415
79.67,-279.779,-23.22
79.7,-279.147,-23.06
79.73,-278.656,-22.945
79.76,-278.024,-22.923
79.8,-277.007,-22.613
79.83,-275.462,-22.396
79.86,-274.059,-22.235
79.89,-272.83,-21.811
79.93,-271.461,-21.605
79.96,-270.023,-21.33
79.99,-268.513,-20.998
80.02,-266.899,-20.78
80.06,-265.32,-20.54
80.09,-263.67,-20.368
80.12,-262.056,-20.15
80.15,-260.442,-19.898
80.19,-258.862,-19.807
80.22,-257.283,-19.658
80.25,-255.634,-19.555
80.29,-254.089,-19.555
80.32,-252.299,-19.406
80.35,-250.51,-19.406
80.38,-248.86,-19.417
80.42,-247.0,-19.222
80.45,-245.175,-19.234
80.48,-243.701,-19.28
80.51,-242.087,-19.154
80.55,-240.227,-19.039
80.58,-238.402,-19.005
80.61,-236.647,-18.936
80.64,-234.717,-18.592
80.68,-232.611,-18.443
80.71,-230.611,-18.512
80.74,-228.786,-18.329
80.77,-226.961,-18.283
80.81,-225.171,-18.295
80.84,-223.241,-18.088
80.87,-221.205,-17.962
80.9,-218.959,-17.997
80.94,-216.783,-17.779
80.97,-214.748,-17.779
81.0,-212.958,-17.802
81.03,-211.133,-17.504
81.07,-209.132,-17.493
81.1,-206.921,-17.39
81.13,-204.605,-17.286
81.16,-202.71,-17.435
81.2,-200.71,-17.172
81.23,-198.534,-17.011
81.26,-196.463,-17.126
81.29,-194.182,-16.782
81.33,-191.936,-16.748
81.36,-190.181,-16.897
81.39,-187.97,-16.45
81.42,-185.338,-16.301
81.46,-182.986,-16.439
81.49,-180.74,-16.072
81.52,-178.319,-15.9
81.55,-176.178,-15.935
81.59,-173.932,-15.568
81.62,-171.475,-15.339
81.65,-168.913,-15.202
81.69,-166.211,-14.823
81.72,-163.614,-14.697
81.75,-161.122,-14.48
81.78,-158.56,-14.125
81.82,-155.788,-14.102
81.85,-152.98,-13.827
81.88,-150.137,-13.483
81.91,-147.4,-13.357
81.95,-144.908,-12.945
81.98,-142.101,-12.693
82.01,-139.188,-12.487
82.04,-136.31,-12.212
82.08,-133.537,-12.028
82.11,-130.905,-11.879
82.14,-128.133,-11.616
82.17,-125.15,-11.204
82.21,-121.956,-10.929
82.24,-118.587,-10.608
82.27,-115.218,-10.207
82.3,-112.094,-9.955
82.34,-108.936,-9.474
82.37,-105.672,-9.061
82.4,-102.127,-8.66
82.43,-98.547,-8.156
82.47,-95.038,-7.95
82.5,-91.704,-7.492
82.53,-88.229,-6.942
82.56,-84.544,-6.553
82.6,-81.0,-6.266
82.63,-77.596,-5.957
82.66,-73.981,-5.51
82.69,-70.261,-5.292
82.73,-66.821,-5.121
82.76,-63.452,-4.674
82.79,-60.083,-4.422
82.82,-56.749,-4.239
82.86,-53.415,-3.929
82.89,-49.765,-3.723
82.92,-46.396,-3.551
82.95,-42.886,-3.139
82.99,-39.377,-2.921
83.02,-37.447,-2.463
83.05,-41.167,-1.535
83.09,-43.799,0.538
83.12,-35.376,1.386
83.15,-27.304,0.642
83.18,-24.777,0.183
83.22,-22.496,0.573
83.25,-14.915,1.329
83.28,-3.088,1.501
83.31,6.352,0.871
83.35,10.774,0.435
83.38,13.968,0.47
83.41,18.39,0.882
83.44,13.617,1.249
83.48,13.828,1.959
83.51,19.934,2.589
83.54,23.795,1.26
83.57,26.146,0.802
83.61,27.655,0.939
83.64,29.936,1.214
83.67,33.27,1.913
83.7,37.868,2.497
83.74,42.43,2.6
83.77,46.501,2.681
83.8,49.905,2.612
83.83,52.888,2.589
83.87,55.766,2.807
83.9,58.855,3.082
83.93,62.189,3.334
83.96,65.733,3.563
84.0,69.278,3.78
84.03,72.893,4.021
84.06,76.297,4.135
84.09,79.701,4.307
84.13,83.0,4.582
84.16,86.264,4.788
84.19,89.388,5.029
84.22,92.336,5.315
84.26,94.968,5.499
84.29,97.53,5.682
84.32,100.232,6.014
84.35,103.04,6.22
84.39,106.058,6.369
84.42,109.286,6.713
84.45,112.55,6.942
84.48,115.569,7.183
84.52,118.481,7.561
84.55,121.394,7.801
84.58,124.342,8.133
84.62,127.29,8.523
84.65,130.238,8.786
84.68,133.221,9.05
84.71,136.485,9.497
84.75,139.854,9.806
84.78,142.908,10.047
84.81,145.715,10.425
84.84,148.593,10.791
84.88,151.471,11.135
84.91,154.454,11.387
84.94,157.472,11.742
84.97,160.385,11.983
85.01,163.052,12.246
85.04,165.825,12.624
85.07,168.703,12.761
85.1,171.651,12.899
85.14,174.564,13.266
85.17,177.336,13.414
85.2,179.968,13.666
85.23,182.635,14.193
85.27,185.268,14.4
85.3,187.83,14.583
85.33,190.532,14.869
85.36,192.989,14.846
85.4,195.094,14.949
85.43,197.481,15.293
85.46,199.973,15.328
85.49,202.219,15.35
85.53,204.324,15.648
85.56,206.29,15.671
85.59,208.08,15.591
85.62,209.869,15.797
85.66,211.835,15.854
85.69,213.8,15.854
85.72,215.695,16.003
85.75,217.59,16.095
85.79,219.38,16.278
85.82,221.275,16.496
85.85,222.96,16.53
85.88,224.609,16.656
85.92,226.434,16.851
85.95,228.224,17.057
85.98,230.014,17.252
86.02,231.699,17.458
86.05,233.383,17.584
86.08,234.892,17.745
86.11,236.331,17.905
86.15,237.805,17.962
86.18,239.42,18.157
86.21,241.104,18.386
86.24,242.683,18.478
86.28,244.193,18.661
86.31,245.702,19.005
86.34,247.105,19.165
86.37,248.369,19.394
86.41,249.983,19.715
86.44,251.527,19.795
86.47,252.791,19.99
86.5,254.054,20.276
86.54,255.634,20.505
86.57,257.248,20.757
86.6,258.687,20.861
86.63,259.775,20.929
86.67,260.757,21.044
86.7,261.951,21.284
86.73,263.354,21.433
86.76,264.442,21.502
86.8,265.565,21.743
86.83,266.794,22.018
86.86,267.952,22.144
86.89,268.794,22.464
86.93,269.952,22.636
86.96,271.216,22.636
86.99,272.269,22.854
87.02,273.286,23.049
87.06,274.234,23.323
87.09,275.357,23.564
87.12,276.305,23.576
87.15,277.112,23.679
87.19,277.814,23.793
87.22,278.551,23.805
87.25,279.253,23.919
87.28,279.955,24.022
87.32,280.797,24.091
87.35,281.323,24.125
87.38,281.709,24.171
87.42,282.166,24.354
87.45,282.762,24.32
87.48,282.903,24.114
87.51,282.867,24.228
87.55,283.359,24.377
87.58,283.815,24.332
87.61,283.99,24.297
87.64,283.885,24.183
87.68,283.64,24.125
87.71,283.569,24.114
87.74,283.64,23.988
87.77,283.534,23.954
87.81,283.218,23.873
87.84,282.903,23.85
87.87,282.587,23.679
87.9,282.025,23.484
87.94,281.358,23.335
87.97,280.481,23.129
88.0,279.639,22.98
88.03,278.902,22.9
88.07,278.165,22.739
88.1,277.217,22.533
88.13,276.094,22.338
88.16,274.796,22.109
88.2,273.567,21.96
88.23,272.444,21.674
88.26,271.146,21.41
88.29,269.637,21.261
88.33,268.373,21.204
88.36,267.004,21.021
88.39,265.32,20.849
88.42,263.916,20.78
88.46,262.582,20.471
88.49,260.863,20.299
88.52,259.319,20.185
88.55,257.774,19.91
88.59,256.09,19.795
88.62,254.335,19.681
88.65,252.686,19.589
88.68,250.966,19.474
88.72,249.176,19.383
88.75,247.386,19.36
88.78,245.596,19.154
88.82,243.842,19.051
88.85,242.227,18.959
88.88,240.543,18.902
88.91,238.683,18.867
88.95,236.612,18.73
88.98,234.366,18.638
89.01,232.471,18.569
89.04,230.786,18.489
89.08,228.856,18.363
89.11,226.855,18.329
89.14,225.066,18.295
89.17,223.206,18.054
89.21,221.065,17.928
89.24,218.784,17.79
89.27,216.643,17.756
89.3,214.993,17.859
89.34,213.379,17.802
89.37,211.238,17.699
89.4,209.273,17.894
89.43,207.483,17.813
89.47,205.377,17.584
89.5,203.271,17.619
89.53,201.06,17.47
89.56,198.779,17.367
89.6,196.884,17.367
89.63,194.954,17.149
89.66,192.813,17.046
89.69,190.672,17.023
89.73,188.321,16.737
89.76,186.04,16.496
89.79,183.794,16.45
89.82,181.337,16.164
89.86,178.81,16.003
89.89,176.564,15.969
89.92,174.388,15.786
89.95,172.037,15.614
89.99,169.545,15.419
90.02,167.088,15.202
90.05,164.526,14.938
90.08,161.824,14.663
90.12,159.192,14.537
90.15,156.665,14.377
90.18,153.893,14.113
90.21,151.12,13.884
90.25,148.418,13.552
90.28,145.575,13.197
90.31,142.697,12.887
90.35,139.679,12.59
90.38,136.661,12.338
90.41,134.029,12.074
90.44,131.291,11.788
90.48,128.273,11.421
90.51,124.974,10.997
90.54,121.64,10.722
90.57,118.341,10.356
90.61,115.042,9.898
90.64,111.743,9.634
90.67,108.549,9.279
90.7,105.215,8.809
90.74,101.741,8.477
90.77,98.126,8.053
90.8,94.547,7.652
90.83,91.142,7.251
90.87,87.598,6.839
90.9,83.983,6.553
90.93,80.508,6.197
90.96,76.999,5.9
91.0,73.454,5.648
91.03,69.98,5.384
91.06,66.646,5.109
91.09,63.382,4.823
91.13,60.013,4.559
91.16,56.468,4.261
91.19,52.959,4.101
91.22,49.695,3.975
91.26,46.431,3.643
91.29,43.097,3.414
91.32,39.622,3.219
91.35,37.762,3.139
91.39,41.132,2.36
91.42,45.518,-0.126
91.45,39.377,-1.409
91.48,30.217,-0.928
91.52,26.181,-0.355
91.55,23.865,-0.504
91.58,17.337,-1.294
91.61,5.65,-1.604
91.65,-4.984,-1.157
91.68,-10.669,-0.515
91.71,-13.898,-0.607
91.75,-18.25,-0.55
91.78,-14.073,-0.779
91.81,-13.582,-2.177
91.84,-19.864,-2.371
91.88,-24.005,-1.42
91.91,-26.532,-1.042
91.94,-28.111,-1.042
91.97,-30.217,-1.283
92.01,-33.305,-1.982
92.04,-37.622,-2.509
92.07,-42.009,-2.681
92.1,-46.045,-2.658
92.14,-49.309,-2.6
92.17,-52.187,-2.623
92.2,-55.064,-2.772
92.23,-58.153,-3.024
92.27,-61.522,-3.299
92.3,-65.067,-3.563
92.33,-68.681,-3.769
92.36,-72.366,-3.941
92.4,-75.876,-4.124
92.43,-79.315,-4.296
92.46,-82.79,-4.559
92.49,-86.229,-4.788
92.53,-89.493,-4.96
92.56,-92.511,-5.189
92.59,-95.143,-5.396
92.62,-97.635,-5.579
92.66,-100.267,-5.842
92.69,-103.11,-6.175
92.72,-106.233,-6.289
92.75,-109.286,-6.507
92.79,-112.305,-6.839
92.82,-115.323,-7.068
92.85,-118.201,-7.503
92.88,-121.184,-7.893
92.92,-124.097,-8.065
92.95,-127.15,-8.374
92.98,-130.203,-8.649
93.01,-133.432,-9.016
93.05,-136.696,-9.382
93.08,-139.784,-9.703
93.11,-142.487,-9.966
93.15,-145.189,-10.321
93.18,-148.207,-10.78
93.21,-151.366,-11.1
93.24,-154.419,-11.398
93.28,-157.437,-11.708
93.31,-160.596,-12.005
93.34,-163.719,-12.326
93.37,-166.597,-12.681
93.41,-169.194,-12.887
93.44,-171.826,-13.22
93.47,-174.809,-13.437
93.5,-177.863,-13.621
93.54,-180.775,-13.987
93.57,-183.408,-14.251
93.6,-185.934,-14.423
93.63,-188.461,-14.835
93.67,-191.164,-15.121
93.7,-193.655,-15.087
93.73,-195.761,-15.133
93.76,-197.972,-15.362
93.8,-200.288,-15.442
93.83,-202.605,-15.442
93.86,-204.745,-15.568
93.89,-206.781,-15.614
93.93,-208.606,-15.671
93.96,-210.431,-15.832
93.99,-212.361,-15.889
94.02,-214.326,-16.003
94.06,-216.327,-16.118
94.09,-218.187,-16.255
94.12,-220.187,-16.427
94.15,-222.118,-16.576
94.19,-223.732,-16.714
94.22,-225.241,-16.863
94.25,-226.996,-17.034
94.28,-228.891,-17.218
94.32,-230.646,-17.286
94.35,-232.12,-17.424
94.38,-233.629,-17.596
94.41,-235.033,-17.733
94.45,-236.507,-17.79
94.48,-238.156,-17.905
94.51,-239.946,-18.146
94.55,-241.455,-18.214
94.58,-242.719,-18.478
94.61,-244.052,-18.81
94.64,-245.631,-18.902
94.68,-247.211,-19.062
94.71,-248.544,-19.257
94.74,-249.738,-19.406
94.77,-251.071,-19.715
94.81,-252.721,-19.887
94.84,-254.265,-20.024
94.87,-255.598,-20.276
94.9,-256.932,-20.471
94.94,-258.195,-20.666
94.97,-259.354,-20.815
95.0,-260.442,-21.009
95.03,-261.53,-21.261
95.07,-262.828,-21.456
95.1,-264.197,-21.628
95.13,-265.39,-21.8
95.16,-266.583,-21.995
95.2,-267.741,-22.247
95.23,-268.759,-22.441
95.26,-269.742,-22.51
95.29,-270.76,-22.693
95.33,-271.848,-22.888
95.36,-273.006,-23.106
95.39,-274.129,-23.301
95.42,-275.076,-23.427
95.46,-275.813,-23.61
95.49,-276.55,-23.759
95.52,-277.287,-23.816
95.55,-277.989,-23.85
95.59,-278.726,-23.919
95.62,-279.639,-24.034
95.65,-280.551,-23.999
95.68,-281.042,-24.022
95.72,-281.358,-24.217
95.75,-281.815,-24.228
95.78,-282.236,-24.228
95.81,-282.306,-24.102
95.85,-282.376,-24.137
95.88,-283.043,-24.423
95.91,-283.64,-24.412
95.94,-283.604,-24.309
95.98,-283.394,-24.389
96.01,-283.675,-24.412
96.04,-283.85,-24.309
96.08,-283.569,-24.102
96.11,-283.183,-24.022
96.14,-283.183,-24.16
96.17,-283.043,-23.976
96.21,-282.552,-23.896
96.24,-281.85,-23.862
96.27,-281.113,-23.564
96.3,-280.516,-23.438
96.34,-279.884,-23.232
96.37,-279.077,-23.049
96.4,-278.375,-23.06
96.43,-277.498,-22.797
96.47,-276.375,-22.464
96.5,-274.971,-22.338
96.53,-273.567,-22.063
96.56,-272.128,-21.754
96.6,-270.795,-21.536
96.63,-269.566,-21.227
96.66,-268.303,-20.975
96.69,-266.829,-20.803
96.73,-265.109,-20.666
96.76,-263.53,-20.505
96.79,-262.126,-20.368
96.82,-260.757,-20.265
96.86,-259.354,-20.116
96.89,-257.809,-19.967
96.92,-256.125,-19.841
96.95,-254.475,-19.807
96.99,-253.072,-19.795
97.02,-251.457,-19.555
97.05,-249.527,-19.383
97.08,-247.527,-19.486
97.12,-245.772,-19.44
97.15,-244.228,-19.314
97.18,-242.438,-19.131
97.21,-240.543,-18.97
97.25,-238.823,-19.005
97.28,-237.068,-18.776
97.31,-234.892,-18.615
97.34,-232.857,-18.592
97.38,-231.032,-18.489
97.41,-228.996,-18.363
97.44,-227.031,-18.306
97.48,-225.241,-18.18
97.51,-223.416,-18.065
97.54,-221.346,-18.031
97.57,-219.099,-17.916
97.61,-216.888,-17.756
97.64,-215.099,-17.722
97.67,-213.309,-17.584
97.7,-211.203,-17.47
97.74,-208.887,-17.458
97.77,-206.781,-17.458
97.8,-204.851,-17.424
97.83,-202.921,-17.229
97.87,-200.71,-17.011
97.9,-198.499,-16.954
97.93,-196.217,-16.885
97.96,-193.971,-16.737
98.0,-191.936,-16.805
98.03,-189.97,-16.737
98.06,-187.689,-16.473
98.09,-185.373,-16.427
98.13,-183.057,-16.233
98.16,-180.705,-16.015
98.19,-178.459,-15.923
98.22,-176.178,-15.74
98.26,-173.686,-15.591
98.29,-171.265,-15.522
98.32,-168.948,-15.213
98.35,-166.492,-14.984
98.39,-163.895,-14.823
98.42,-161.263,-14.468
98.45,-158.63,-14.262
98.48,-155.998,-14.193
98.52,-153.366,-13.93
98.55,-150.909,-13.678
98.58,-148.277,-13.437
98.61,-145.47,-13.105
98.65,-142.381,-12.83
98.68,-139.258,-12.418
98.71,-136.31,-12.2
98.74,-133.678,-12.04
98.78,-131.01,-11.685
98.81,-128.027,-11.49
98.84,-124.834,-11.204
98.88,-121.64,-10.745
98.91,-118.481,-10.459
98.94,-115.253,-10.081
98.97,-111.954,-9.657
99.01,-108.655,-9.348
99.04,-105.426,-8.901
99.07,-102.022,-8.466
99.1,-98.372,-8.053
99.14,-94.897,-7.721
99.17,-91.493,-7.4
99.2,-87.984,-6.885
99.23,-84.439,-6.61
99.27,-80.789,-6.163
99.3,-77.385,-5.819
99.33,-74.648,-5.991
99.36,-72.086,-5.842
99.4,-69.067,-5.613
99.43,-65.804,-5.716
99.46,-62.785,-5.533
99.49,-59.697,-5.327
99.53,-56.503,-5.144
99.56,-53.099,-4.869
99.59,-49.484,-4.525
99.62,-45.834,-4.147
99.66,-42.044,-3.574
99.69,-39.096,-3.15
99.72,-41.728,-1.787
99.75,-44.676,0.607
99.79,-34.85,1.684
99.82,-23.865,0.985
99.85,-19.022,0.401
99.88,-14.951,0.768
99.92,-5.861,1.478
99.95,6.493,1.489
99.98,15.512,0.768
100.01,18.179,0.149
100.05,18.846,0.149
100.08,18.32,0.126
100.11,13.828,1.191
100.14,16.214,1.535
100.18,19.478,0.974
100.21,21.478,0.584
100.24,23.058,0.47
100.28,25.374,0.825
100.31,28.989,1.375
100.34,34.077,1.982
100.37,39.763,2.325
100.41,44.887,2.348
100.44,49.133,2.36
100.47,52.467,2.509
100.5,55.486,2.681
100.54,58.574,2.99
100.57,61.908,3.23
100.6,65.172,3.379
100.63,68.365,3.62
100.67,71.559,3.769
100.7,74.577,3.826
100.73,77.56,4.009
100.76,80.684,4.261
100.8,83.913,4.491
100.83,87.106,4.662
100.86,90.335,4.892
100.89,93.564,5.155
100.93,96.477,5.373
100.96,99.109,5.544
100.99,101.671,5.888
101.02,104.619,6.335
101.06,107.777,6.575
101.09,110.971,6.873
101.12,114.095,7.183
101.15,117.183,7.412
101.19,120.201,7.721
101.22,123.184,7.962
101.25,126.027,8.191
101.28,129.01,8.649
101.32,132.063,8.901
101.35,135.081,9.21
101.38,138.135,9.611
101.41,141.364,9.875
101.45,144.452,10.195
101.48,147.4,10.459
101.51,150.208,10.78
101.54,153.12,11.192
101.58,156.068,11.582
101.61,159.157,11.914
101.64,162.0,12.189
101.67,164.877,12.544
101.71,167.79,12.773
101.74,170.633,12.887
101.77,173.511,13.105
101.81,176.459,13.369
101.84,179.337,13.586
101.87,182.144,13.941
101.9,184.952,14.251
101.94,187.549,14.4
101.97,190.005,14.697
102.0,192.427,14.995
102.03,193.831,14.617
102.07,193.445,13.621
102.1,192.638,12.887
102.13,193.234,12.59
102.16,194.954,11.983
102.2,196.112,11.238
102.23,196.463,10.86
102.26,197.2,10.963
102.29,198.99,11.284
102.33,201.447,11.696
102.36,203.833,12.235
102.39,205.904,12.796
102.42,207.799,13.54
102.46,210.08,14.297
102.49,212.607,14.949
102.52,215.028,15.442
102.55,217.134,16.049
102.59,219.521,16.622
102.62,221.977,17.092
102.65,224.329,17.55
102.68,226.61,18.02
102.72,228.996,18.535
102.75,231.207,18.879
102.78,233.243,19.245
102.81,235.384,19.566
102.85,237.665,19.921
102.88,239.771,20.139
102.91,241.56,20.334
102.94,243.385,20.586
102.98,245.245,20.723
103.01,246.965,20.861
103.04,248.509,20.941
103.07,249.948,21.17
103.11,251.773,21.422
103.14,253.668,21.456
103.17,255.388,21.64
103.21,256.932,21.777
103.24,258.266,21.892
103.27,259.599,22.04
103.3,260.933,22.029
103.34,262.161,22.063
103.37,263.425,22.098
103.4,264.548,22.178
103.43,265.776,22.338
103.47,266.969,22.522
103.5,268.233,22.648
103.53,269.356,22.648
103.56,270.198,22.716
103.6,271.146,22.957
103.63,272.269,23.037
103.66,273.357,23.083
103.69,274.409,23.266
103.73,275.392,23.346
103.76,276.375,23.472
103.79,277.112,23.644
103.82,277.849,23.656
103.86,278.586,23.747
103.89,279.358,23.77
103.92,280.165,23.782
103.95,280.867,23.862
103.99,281.464,23.908
104.02,281.885,23.919
104.05,282.306,23.954
104.08,282.622,23.919
104.12,282.797,23.896
104.15,282.938,24.011
104.18,283.113,24.022
104.21,283.534,23.999
104.25,283.78,23.942
104.28,283.85,23.793
104.31,283.675,23.747
104.34,283.534,23.747
104.38,283.253,23.656
104.41,282.867,23.621
104.44,282.622,23.564
104.47,282.552,23.472
104.51,282.376,23.358
104.54,281.779,23.175
104.57,281.113,23.175
104.61,280.516,23.037
104.64,279.99,22.797
104.67,279.253,22.648
104.7,278.445,22.51
104.74,277.744,22.522
104.77,277.007,22.419
104.8,276.059,22.27
104.83,274.831,22.144
104.87,273.637,21.972
104.9,272.339,21.766
104.93,271.04,21.479
104.96,269.742,21.261
105.0,268.408,21.193
105.03,267.039,21.021
105.06,265.741,20.906
105.09,264.407,20.78
105.13,262.933,20.46
105.16,261.319,20.379
105.19,259.915,20.219
105.22,258.371,20.059
105.26,256.476,19.978
105.29,254.791,19.898
105.32,253.247,19.818
105.35,251.562,19.658
105.39,249.738,19.555
105.42,247.913,19.417
105.45,246.193,19.417
105.48,244.789,19.36
105.52,243.14,19.165
105.55,241.28,19.119
105.58,239.595,19.096
105.61,237.735,18.959
105.65,235.699,18.776
105.68,233.769,18.661
105.71,232.05,18.673
105.74,230.26,18.604
105.78,228.365,18.535
105.81,226.645,18.615
105.84,225.031,18.489
105.87,222.855,18.226
105.91,220.398,18.042
105.94,218.187,18.02
105.97,216.432,17.882
106.01,214.432,17.687
106.04,212.115,17.538
106.07,209.904,17.516
106.1,207.939,17.504
106.14,205.939,17.378
106.17,203.658,17.195
106.2,201.482,17.195
106.23,199.376,17.115
106.27,197.305,16.989
106.3,195.34,16.966
106.33,193.34,16.817
106.36,191.093,16.725
106.4,188.707,16.565
106.43,186.32,16.393
106.46,184.145,16.347
106.49,181.898,16.141
106.53,179.407,15.923
106.56,176.845,15.717
106.59,174.599,15.694
106.62,172.388,15.602
106.66,170.107,15.35
106.69,167.509,15.167
106.72,164.702,14.812
106.75,161.929,14.56
106.79,159.438,14.354
106.82,157.016,14.056
106.85,154.524,13.85
106.88,151.927,13.655
106.92,149.014,13.392
106.95,146.066,13.243
106.98,143.153,12.933
107.01,140.205,12.544
107.05,137.257,12.223
107.08,134.099,11.834
107.11,131.256,11.604
107.14,128.519,11.352
107.18,125.5,11.02
107.21,122.272,10.78
107.24,119.043,10.459
107.27,115.744,10.047
107.31,112.375,9.726
107.34,109.146,9.359
107.37,105.812,8.878
107.41,102.232,8.511
107.44,98.758,8.076
107.47,95.354,7.652
107.5,91.879,7.286
107.54,88.335,6.942
107.57,84.65,6.575
107.6,81.105,6.175
107.63,77.631,5.911
107.67,74.121,5.544
107.7,70.541,5.132
107.73,67.207,4.972
107.76,63.838,4.731
107.8,60.294,4.456
107.83,56.96,4.342
107.86,53.661,4.124
107.89,50.151,3.815
107.93,46.782,3.666
107.96,43.307,3.322
107.99,39.517,3.036
108.02,37.131,2.463
108.06,39.763,1.26
108.09,43.448,-0.298
108.12,36.288,-1.466
108.15,27.199,-0.836
108.19,24.075,-0.263
108.22,22.145,-0.481
108.25,16.039,-1.191
108.28,5.299,-1.478
108.32,-4.036,-0.974
108.35,-8.809,-0.47
108.38,-11.546,-0.493
108.41,-16.003,-0.79
108.45,-12.669,-1.604
108.48,-12.459,-1.787
108.51,-18.495,-1.947
108.54,-22.601,-1.409
108.58,-25.128,-0.825
108.61,-26.848,-0.848
108.64,-29.269,-1.26
108.67,-32.779,-1.867
108.71,-37.341,-2.371
108.74,-42.009,-2.555
108.77,-46.185,-2.612
108.8,-49.73,-2.635
108.84,-52.748,-2.589
108.87,-55.661,-2.83
108.9,-58.82,-3.093
108.94,-62.154,-3.299
108.97,-65.628,-3.574
109.0,-69.138,-3.769
109.03,-72.612,-3.952
109.07,-76.016,-4.101
109.1,-79.35,-4.273
109.13,-82.684,-4.468
109.16,-85.983,-4.685
109.2,-89.072,-4.903
109.23,-92.02,-5.063
109.26,-94.897,-5.35
109.29,-97.635,-5.51
109.33,-100.267,-5.659
109.36,-103.145,-5.968
109.39,-106.023,-6.232
109.42,-108.971,-6.495
109.46,-112.094,-6.85
109.49,-115.323,-7.137
109.52,-118.376,-7.309
109.55,-121.219,-7.629
109.59,-124.026,-7.973
109.62,-127.01,-8.225
109.65,-130.133,-8.603
109.68,-133.327,-8.947
109.72,-136.52,-9.268
109.75,-139.574,-9.577
109.78,-142.557,-9.829
109.81,-145.435,-10.253
109.85,-148.418,-10.677
109.88,-151.436,-10.974
109.91,-154.384,-11.33
109.94,-157.367,-11.662
109.98,-160.245,-11.845
110.01,-163.123,-12.109
110.04,-166.071,-12.475
110.07,-168.878,-12.761
110.11,-171.756,-13.036
110.14,-174.634,-13.277
110.17,-177.477,-13.632
110.2,-180.424,-13.964
110.24,-183.267,-14.159
110.27,-185.934,-14.423
110.3,-188.496,-14.594
110.34,-190.953,-14.801
110.37,-193.445,-15.041
110.4,-195.761,-14.972
110.43,-197.937,-15.087
110.47,-200.183,-15.385
110.5,-202.464,-15.442
110.53,-204.71,-15.373
110.56,-206.816,-15.568
110.6,-208.641,-15.591
110.63,-210.291,-15.625
110.66,-212.221,-15.946
110.69,-214.326,-15.946
110.73,-216.362,-15.969
110.76,-218.398,-16.267
110.79,-220.258,-16.301
110.82,-222.047,-16.381
110.86,-223.978,-16.668
110.89,-225.838,-16.691
110.92,-227.592,-16.943
110.95,-229.207,-17.229
110.99,-230.646,-17.275
111.02,-232.33,-17.538
111.05,-234.085,-17.71
111.08,-235.594,-17.676
111.12,-237.173,-17.71
111.15,-238.753,-17.985
111.18,-240.192,-18.1
111.21,-241.701,-18.352
111.25,-243.315,-18.627
111.28,-244.859,-18.569
111.31,-246.123,-18.81
111.34,-247.421,-19.131
111.38,-248.579,-19.154
111.41,-249.878,-19.394
111.44,-251.527,-19.6
111.47,-253.036,-19.555
111.51,-254.335,-19.852
111.54,-255.774,-20.15
111.57,-257.072,-20.368
111.6,-258.231,-20.689
111.64,-259.669,-20.849
111.67,-260.933,-20.895
111.7,-261.951,-20.975
111.74,-262.968,-21.124
111.77,-264.127,-21.273
111.8,-265.355,-21.456
111.83,-266.689,-21.628
111.87,-267.847,-21.96
111.9,-268.9,-22.121
111.93,-269.882,-22.27
111.96,-270.9,-22.476
112.0,-271.777,-22.716
112.03,-273.041,-22.945
112.06,-274.269,-23.071
112.09,-275.182,-23.22
112.13,-275.989,-23.369
112.16,-276.796,-23.541
112.19,-277.603,-23.587
112.22,-278.2,-23.667
112.26,-278.972,-23.896
112.29,-279.849,-23.896
112.32,-280.586,-24.034
112.35,-281.253,-24.08
112.39,-281.815,-23.976
112.42,-282.341,-24.228
112.45,-282.481,-24.137
112.48,-282.587,-24.206
112.52,-283.183,-24.526
112.55,-283.675,-24.297
112.58,-283.604,-24.263
112.61,-283.885,-24.354
112.65,-284.201,-24.114
112.68,-284.096,-24.022
112.71,-283.815,-23.885
112.74,-283.71,-23.931
112.78,-283.64,-23.999
112.81,-283.464,-23.805
112.84,-283.043,-23.828
112.87,-282.516,-23.736
112.91,-281.955,-23.427
112.94,-281.358,-23.312
112.97,-280.621,-23.083
113.0,-279.779,-22.819
113.04,-279.182,-22.842
113.07,-278.481,-22.636
113.1,-277.357,-22.441
113.14,-276.129,-22.315
113.17,-274.831,-22.063
113.2,-273.743,-21.811
113.23,-272.549,-21.491
113.27,-271.111,-21.193
113.3,-269.637,-21.009
113.33,-268.338,-20.861
113.36,-267.004,-20.723
113.4,-265.425,-20.574
113.43,-263.776,-20.425
113.46,-262.056,-20.265
113.49,-260.512,-20.093
113.53,-259.073,-19.933
113.56,-257.634,-19.864
113.59,-255.949,-19.761
113.62,-254.16,-19.669
113.66,-252.58,-19.658
113.69,-251.106,-19.406
113.72,-249.352,-19.096
113.75,-247.527,-19.199
113.79,-245.947,-19.234
113.82,-244.052,-18.993
113.85,-242.368,-18.947
113.88,-240.999,-19.108
113.92,-239.349,-18.947
113.95,-237.349,-18.879
113.98,-235.208,-18.913
114.01,-233.173,-18.661
114.05,-231.277,-18.615
114.08,-229.453,-18.535
114.11,-227.347,-18.214
114.14,-225.557,-18.237
114.18,-223.732,-18.065
114.21,-221.486,-17.813
114.24,-219.205,-17.859
114.27,-217.064,-17.687
114.31,-215.028,-17.63
114.34,-213.168,-17.676
114.37,-211.098,-17.378
114.4,-208.887,-17.241
114.44,-207.027,-17.321
114.47,-204.991,-17.103
114.5,-202.394,-16.966
114.53,-200.148,-17.115
114.57,-198.112,-16.84
114.6,-195.937,-16.622
114.63,-194.147,-16.84
114.67,-192.111,-16.519
114.7,-189.655,-16.313
114.73,-187.444,-16.588
114.76,-185.338,-16.404
114.8,-182.951,-16.106
114.83,-180.775,-16.095
114.86,-178.529,-15.809
114.89,-176.073,-15.58
114.93,-173.721,-15.648
114.96,-171.265,-15.362
114.99,-168.633,-15.075
115.02,-166.176,-15.018
115.06,-163.719,-14.629
115.09,-161.052,-14.216
115.12,-158.385,-14.182
115.15,-155.788,-13.953
115.19,-152.98,-13.575
115.22,-150.278,-13.483
115.25,-147.54,-13.162
115.28,-144.803,-12.91
115.32,-142.03,-12.75
115.35,-139.188,-12.452
115.38,-136.31,-12.223
115.41,-133.432,-11.971
115.45,-130.519,-11.73
115.48,-127.641,-11.536
115.51,-124.728,-11.204
115.54,-121.64,-10.791
115.58,-118.376,-10.425
115.61,-114.972,-9.943
115.64,-111.568,-9.52
115.67,-108.409,-9.199
115.71,-105.11,-8.786
115.74,-101.636,-8.477
115.77,-98.267,-8.156
115.8,-94.687,-7.675
115.84,-91.002,-7.24
115.87,-87.563,-6.999
115.9,-84.404,-6.575
115.93,-81.105,-6.232
115.97,-77.736,-6.06
116.0,-74.542,-5.831
116.03,-71.103,-5.51
116.07,-67.558,-5.35
116.1,-64.189,-5.063
116.13,-60.89,-4.685
116.16,-57.416,-4.456
116.2,-53.906,-4.319
116.23,-50.291,-3.941
116.26,-46.747,-3.631
116.29,-43.167,-3.196
116.33,-39.307,-2.852
116.36,-36.464,-2.005
116.39,-39.272,-0.733
116.42,-41.061,0.584
116.46,-31.831,1.478
116.49,-23.619,0.596
116.52,-21.584,0.149
116.55,-19.653,0.515
116.59,-12.74,1.226
116.62,-2.702,1.214
116.65,4.633,0.687
