Trigger_Date,2023/06/19
Trigger_Time,T 11:10:44.833 PDT
Samples_Per_Cycle,512
Microseconds_Per_Sample,32.542
Time (ms),Voltage (V),Current (A)
-16.66,16.46,0.871
-16.63,20.847,0.344
-16.6,17.828,0.321
-16.56,13.547,2.303
-16.53,18.6,3.173
-16.5,23.865,2.039
-16.47,26.567,1.203
-16.43,27.655,1.02
-16.4,29.48,1.673
-16.37,33.025,2.818
-16.34,38.219,3.677
-16.3,42.816,3.883
-16.27,45.975,3.998
-16.24,48.186,4.525
-16.21,50.958,5.35
-16.17,54.152,6.026
-16.14,57.521,6.575
-16.11,60.89,7.102
-16.08,64.259,7.526
-16.04,67.348,7.95
-16.01,70.541,8.489
-15.98,74.086,9.027
-15.95,77.35,9.497
-15.91,80.333,10.001
-15.88,83.597,10.654
-15.85,87.001,11.192
-15.82,90.195,11.559
-15.78,93.037,12.109
-15.75,95.95,12.681
-15.72,99.039,13.082
-15.69,102.127,13.598
-15.65,105.321,14.09
-15.62,108.304,14.423
-15.59,111.357,15.03
-15.56,114.656,15.602
-15.52,117.709,15.98
-15.49,120.622,16.588
-15.46,123.921,17.241
-15.43,126.939,17.63
-15.39,129.852,18.317
-15.36,133.151,18.959
-15.33,136.766,19.635
-15.29,140.065,20.15
-15.26,142.873,20.654
-15.23,145.61,21.239
-15.2,148.593,21.788
-15.16,151.822,22.327
-15.13,154.594,22.533
-15.1,157.297,23.06
-15.07,160.385,23.724
-15.03,163.368,24.011
-15.0,165.93,24.366
-14.97,168.808,25.007
-14.94,171.651,25.328
-14.9,174.178,25.649
-14.87,177.09,26.336
-14.84,180.109,26.703
-14.81,182.6,26.863
-14.77,185.162,27.631
-14.74,187.9,28.02
-14.71,190.076,28.123
-14.68,192.392,28.776
-14.64,195.059,29.017
-14.61,196.954,28.914
-14.58,198.99,29.555
-14.55,201.482,29.819
-14.51,203.412,29.704
-14.48,205.202,30.117
-14.45,207.202,30.323
-14.42,208.817,30.231
-14.38,210.641,30.586
-14.35,212.712,30.838
-14.32,214.502,30.93
-14.29,216.222,31.331
-14.25,217.976,31.755
-14.22,219.766,31.95
-14.19,221.346,32.236
-14.16,223.206,32.545
-14.12,225.066,32.774
-14.09,226.68,33.095
-14.06,228.575,33.485
-14.03,230.4,33.748
-13.99,231.944,34.034
-13.96,233.453,34.344
-13.93,234.962,34.722
-13.9,236.717,35.169
-13.86,238.472,35.272
-13.83,239.806,35.581
-13.8,241.42,36.154
-13.77,243.034,36.314
-13.73,244.719,36.566
-13.7,246.298,37.036
-13.67,247.491,37.139
-13.64,248.544,37.402
-13.6,250.51,37.987
-13.57,252.194,38.193
-13.54,253.423,38.502
-13.51,255.037,39.075
-13.47,256.721,39.43
-13.44,258.16,39.613
-13.41,259.248,39.831
-13.37,260.406,40.026
-13.34,261.424,40.289
-13.31,262.863,40.644
-13.28,264.407,40.805
-13.24,265.565,40.896
-13.21,266.583,41.24
-13.18,267.847,41.492
-13.15,268.97,41.698
-13.11,269.847,42.076
-13.08,271.005,42.42
-13.05,272.198,42.615
-13.02,273.286,42.89
-12.98,274.55,43.176
-12.95,275.603,43.279
-12.92,276.164,43.451
-12.89,276.866,43.703
-12.85,277.463,43.772
-12.82,278.059,43.737
-12.79,278.691,43.921
-12.76,279.639,44.15
-12.72,280.481,44.138
-12.69,280.902,44.195
-12.66,281.148,44.344
-12.63,281.744,44.505
-12.59,282.236,44.505
-12.56,282.166,44.39
-12.53,282.376,44.619
-12.5,283.569,44.757
-12.46,283.99,44.7
-12.43,283.569,44.608
-12.4,283.499,44.642
-12.37,283.499,44.505
-12.33,283.253,44.425
-12.3,283.078,44.161
-12.27,282.727,44.058
-12.24,282.622,44.081
-12.2,282.516,43.921
-12.17,281.815,43.726
-12.14,280.972,43.6
-12.11,280.551,43.382
-12.07,279.919,43.038
-12.04,278.691,42.741
-12.01,277.638,42.66
-11.98,277.042,42.58
-11.94,275.989,42.351
-11.91,274.69,42.179
-11.88,273.602,41.847
-11.85,272.514,41.355
-11.81,270.97,40.931
-11.78,269.426,40.541
-11.75,267.917,40.232
-11.72,266.478,40.094
-11.68,265.355,39.9
-11.65,263.986,39.59
-11.62,262.442,39.304
-11.59,260.898,39.063
-11.55,259.283,38.72
-11.52,257.423,38.422
-11.49,256.055,38.41
-11.45,254.616,38.227
-11.42,252.44,37.849
-11.39,250.931,37.883
-11.36,250.089,37.7
-11.32,247.842,36.944
-11.29,245.386,36.875
-11.26,244.263,37.013
-11.23,242.473,36.303
-11.19,240.086,36.119
-11.16,238.823,36.486
-11.13,237.735,36.016
-11.1,235.524,35.627
-11.06,233.453,35.695
-11.03,231.804,35.455
-11.0,229.874,35.191
-10.97,227.803,35.065
-10.93,226.013,34.745
-10.9,224.258,34.435
-10.87,222.363,34.344
-10.84,220.363,34.115
-10.8,218.433,33.954
-10.77,216.432,33.794
-10.74,214.502,33.485
-10.71,212.852,33.381
-10.67,210.817,33.152
-10.64,208.501,32.786
-10.61,206.606,32.877
-10.58,204.816,32.694
-10.54,202.324,32.041
-10.51,200.323,31.995
-10.48,198.709,31.72
-10.45,196.252,31.01
-10.41,193.936,31.125
-10.38,192.287,31.102
-10.35,190.111,30.506
-10.32,188.005,30.46
-10.28,186.04,30.231
-10.25,183.478,29.647
-10.22,180.951,29.532
-10.19,178.67,29.326
-10.15,176.424,28.891
-10.12,174.353,28.662
-10.09,171.931,28.204
-10.06,169.229,27.677
-10.02,166.702,27.447
-9.99,164.211,27.001
-9.96,161.438,26.416
-9.93,158.736,26.153
-9.89,155.963,25.5
-9.86,153.191,25.007
-9.83,150.734,24.755
-9.8,148.207,24.183
-9.76,145.119,23.747
-9.73,142.03,23.209
-9.7,139.117,22.774
-9.67,136.31,22.315
-9.63,133.502,21.788
-9.6,130.484,21.193
-9.57,127.396,20.689
-9.53,124.272,20.196
-9.5,121.149,19.589
-9.47,117.85,18.993
-9.44,114.445,18.352
-9.4,111.076,17.756
-9.37,107.883,17.252
-9.34,104.9,16.622
-9.31,101.566,15.854
-9.27,97.845,15.19
-9.24,93.915,14.606
-9.21,90.23,14.01
-9.18,86.65,13.357
-9.14,83.246,12.761
-9.11,79.807,12.086
-9.08,76.262,11.341
-9.05,72.682,10.86
-9.01,69.348,10.47
-8.98,65.733,9.943
-8.95,62.259,9.497
-8.92,58.925,9.073
-8.88,55.556,8.42
-8.85,52.116,7.95
-8.82,48.888,7.561
-8.79,45.483,7.034
-8.75,42.255,6.541
-8.72,38.815,6.255
-8.69,36.674,5.51
-8.66,39.026,3.826
-8.62,43.658,0.172
-8.59,35.938,-1.81
-8.56,27.76,-0.412
-8.53,27.444,-0.321
-8.49,22.707,-1.02
-8.46,14.143,-1.386
-8.43,4.352,-1.226
-8.4,-2.843,-0.928
-8.36,-8.563,-0.779
-8.33,-13.617,-0.928
-8.3,-19.724,-0.619
-8.27,-18.109,-0.458
-8.23,-14.6,-2.062
-8.2,-19.092,-2.864
-8.17,-24.391,-2.337
-8.14,-27.69,-1.512
-8.1,-28.883,-1.214
-8.07,-30.603,-1.867
-8.04,-33.832,-3.013
-8.01,-38.464,-3.826
-7.97,-42.57,-4.216
-7.94,-45.518,-4.513
-7.91,-47.835,-4.926
-7.88,-50.888,-5.625
-7.84,-54.573,-6.106
-7.81,-58.118,-6.289
-7.78,-61.031,-6.667
-7.75,-64.084,-7.32
-7.71,-67.523,-7.927
-7.68,-71.068,-8.408
-7.65,-74.367,-8.878
-7.61,-77.385,-9.451
-7.58,-80.368,-10.058
-7.55,-83.632,-10.677
-7.52,-87.247,-11.238
-7.48,-90.546,-11.547
-7.45,-93.423,-11.96
-7.42,-96.547,-12.521
-7.39,-99.53,-12.853
-7.35,-102.373,-13.323
-7.32,-105.426,-13.907
-7.29,-108.514,-14.274
-7.26,-111.462,-14.743
-7.22,-114.586,-15.408
-7.19,-117.639,-15.843
-7.16,-120.552,-16.37
-7.13,-123.676,-17.046
-7.09,-126.694,-17.493
-7.06,-129.642,-17.974
-7.03,-132.8,-18.73
-7.0,-136.169,-19.119
-6.96,-139.398,-19.704
-6.93,-142.381,-20.242
-6.9,-145.119,-20.609
-6.87,-148.032,-21.284
-6.83,-151.295,-21.926
-6.8,-154.419,-22.315
-6.77,-157.051,-22.682
-6.74,-159.964,-23.472
-6.7,-163.228,-24.045
-6.67,-166.141,-24.354
-6.64,-168.878,-24.881
-6.61,-171.756,-25.397
-6.57,-174.423,-25.695
-6.54,-177.196,-26.256
-6.51,-180.249,-26.852
-6.48,-183.127,-27.173
-6.44,-185.654,-27.619
-6.41,-188.075,-28.215
-6.38,-190.427,-28.536
-6.35,-192.953,-28.811
-6.31,-195.551,-29.086
-6.28,-197.867,-29.235
-6.25,-199.973,-29.59
-6.22,-202.289,-30.14
-6.18,-204.535,-30.346
-6.15,-206.325,-30.437
-6.12,-208.255,-30.701
-6.09,-210.115,-30.77
-6.05,-211.694,-30.781
-6.02,-213.344,-31.01
-5.99,-215.028,-31.205
-5.96,-216.783,-31.377
-5.92,-218.503,-31.64
-5.89,-220.047,-31.846
-5.86,-221.626,-32.03
-5.83,-223.451,-32.27
-5.79,-225.206,-32.534
-5.76,-226.575,-32.797
-5.73,-228.049,-33.221
-5.69,-229.979,-33.553
-5.66,-231.839,-33.817
-5.63,-233.488,-34.115
-5.6,-234.892,-34.378
-5.56,-236.261,-34.699
-5.53,-237.875,-35.134
-5.5,-239.56,-35.352
-5.47,-240.858,-35.569
-5.43,-242.368,-36.096
-5.4,-244.157,-36.406
-5.37,-245.421,-36.623
-5.34,-246.825,-37.139
-5.3,-248.65,-37.368
-5.27,-250.053,-37.563
-5.24,-251.422,-38.124
-5.21,-253.036,-38.536
-5.17,-254.826,-38.823
-5.14,-256.335,-39.224
-5.11,-257.529,-39.533
-5.08,-258.687,-39.785
-5.04,-259.985,-40.083
-5.01,-261.108,-40.289
-4.98,-262.337,-40.587
-4.95,-263.916,-40.805
-4.91,-265.004,-40.885
-4.88,-265.846,-41.171
-4.85,-267.11,-41.492
-4.82,-268.303,-41.767
-4.78,-269.461,-42.076
-4.75,-270.514,-42.317
-4.72,-271.672,-42.592
-4.69,-272.76,-42.867
-4.65,-273.883,-43.073
-4.62,-274.69,-43.348
-4.59,-275.743,-43.531
-4.56,-276.48,-43.657
-4.52,-277.077,-43.898
-4.49,-277.884,-43.978
-4.46,-278.481,-44.138
-4.43,-279.358,-44.413
-4.39,-280.165,-44.425
-4.36,-280.586,-44.39
-4.33,-281.218,-44.482
-4.3,-282.095,-44.574
-4.26,-282.06,-44.264
-4.23,-281.604,-44.425
-4.2,-282.025,-44.562
-4.17,-282.587,-44.562
-4.13,-283.008,-44.734
-4.1,-283.078,-44.711
-4.07,-283.078,-44.528
-4.04,-283.078,-44.459
-4.0,-282.727,-44.39
-3.97,-282.166,-44.207
-3.94,-281.92,-44.195
-3.91,-282.025,-44.218
-3.87,-281.85,-44.012
-3.84,-280.902,-43.817
-3.81,-280.06,-43.565
-3.77,-279.323,-43.187
-3.74,-278.27,-42.878
-3.71,-277.287,-42.615
-3.68,-276.34,-42.546
-3.64,-275.919,-42.489
-3.61,-275.392,-42.26
-3.58,-274.199,-42.156
-3.55,-273.181,-42.042
-3.51,-272.304,-41.755
-3.48,-271.146,-41.538
-3.45,-270.058,-41.309
-3.42,-268.9,-41.068
-3.38,-267.461,-40.908
-3.35,-266.232,-40.713
-3.32,-265.285,-40.404
-3.29,-263.705,-40.003
-3.25,-261.88,-39.671
-3.22,-260.336,-39.396
-3.19,-258.546,-39.109
-3.16,-256.932,-38.914
-3.12,-255.634,-38.674
-3.09,-253.914,-38.262
-3.06,-251.878,-37.929
-3.03,-249.983,-37.78
-2.99,-248.123,-37.288
-2.96,-246.193,-36.956
-2.93,-244.614,-36.841
-2.9,-242.754,-36.497
-2.86,-240.683,-36.314
-2.83,-239.069,-36.142
-2.8,-237.209,-35.821
-2.77,-234.962,-35.592
-2.73,-232.892,-35.478
-2.7,-231.383,-35.249
-2.67,-229.733,-34.997
-2.64,-227.838,-34.836
-2.6,-225.838,-34.619
-2.57,-223.872,-34.493
-2.54,-222.118,-34.355
-2.51,-220.222,-34.069
-2.47,-218.011,-33.84
-2.44,-215.66,-33.576
-2.41,-213.835,-33.485
-2.38,-212.431,-33.301
-2.34,-210.641,-32.992
-2.31,-208.395,-32.728
-2.28,-206.255,-32.591
-2.25,-204.535,-32.362
-2.21,-202.57,-32.03
-2.18,-199.973,-31.697
-2.15,-197.797,-31.503
-2.12,-196.288,-31.262
-2.08,-194.182,-30.861
-2.05,-191.83,-30.632
-2.02,-189.83,-30.598
-1.99,-187.935,-30.243
-1.95,-185.478,-29.853
-1.92,-182.881,-29.681
-1.89,-180.67,-29.246
-1.85,-178.459,-28.788
-1.82,-176.213,-28.582
-1.79,-173.756,-28.169
-1.76,-171.23,-27.791
-1.72,-168.703,-27.551
-1.69,-166.071,-27.115
-1.66,-163.438,-26.657
-1.63,-160.982,-26.187
-1.59,-158.525,-25.672
-1.56,-156.209,-25.317
-1.53,-153.577,-24.916
-1.5,-150.629,-24.492
-1.46,-147.786,-24.171
-1.43,-145.084,-23.702
-1.4,-142.276,-23.243
-1.37,-139.188,-22.567
-1.33,-136.24,-22.155
-1.3,-133.607,-21.766
-1.27,-130.87,-21.124
-1.24,-127.676,-20.574
-1.2,-124.623,-20.104
-1.17,-121.465,-19.532
-1.14,-118.025,-18.844
-1.11,-114.551,-18.26
-1.07,-111.357,-17.71
-1.04,-108.128,-17.046
-1.01,-104.794,-16.336
-0.98,-101.285,-15.66
-0.94,-97.459,-14.961
-0.91,-93.669,-14.388
-0.88,-90.265,-13.758
-0.85,-86.826,-12.968
-0.81,-83.141,-12.257
-0.78,-79.666,-11.742
-0.75,-76.262,-11.112
-0.72,-72.647,-10.505
-0.68,-69.208,-10.104
-0.65,-65.628,-9.623
-0.62,-61.978,-9.038
-0.59,-58.574,-8.695
-0.55,-55.38,-8.191
-0.52,-51.906,-7.572
-0.49,-48.466,-7.102
-0.46,-44.922,-6.782
-0.42,-41.518,-6.22
-0.39,-37.868,-5.854
-0.36,-35.271,-5.224
-0.33,-37.341,-3.586
-0.29,-41.623,0.355
-0.26,-31.445,1.959
-0.23,-23.935,0.229
-0.2,-24.216,0.367
-0.16,-19.267,1.031
-0.13,-10.95,1.306
-0.1,-2.0,1.1
-0.07,3.65,0.722
-0.03,8.037,0.687
0.0,12.599,0.882
0.03,17.793,0.55
0.07,17.021,0.344
0.1,12.704,2.005
0.13,17.126,2.956
0.16,22.461,2.039
0.2,25.935,1.398
0.23,27.866,1.272
0.26,30.147,1.764
0.29,33.762,2.795
0.33,38.745,3.643
0.36,43.272,3.964
0.39,46.115,4.25
0.42,48.116,4.869
0.46,50.783,5.739
0.49,54.362,6.392
0.52,57.977,6.747
0.55,61.136,7.068
0.59,64.154,7.48
0.62,67.523,8.042
0.65,71.138,8.592
0.68,74.683,9.061
0.72,77.876,9.565
0.75,80.894,10.184
0.78,83.878,10.757
0.81,87.071,11.341
0.85,90.195,11.822
0.88,93.213,12.246
0.91,96.266,12.67
0.94,99.425,13.036
0.98,102.443,13.46
1.01,105.531,13.976
1.04,108.62,14.48
1.07,111.778,15.007
1.11,115.042,15.534
1.14,118.095,15.992
1.17,120.868,16.462
1.2,123.781,17.103
1.24,126.834,17.664
1.27,129.958,18.191
1.3,133.116,18.638
1.33,136.45,19.337
1.37,139.644,19.875
1.4,142.487,20.322
1.43,145.364,20.941
1.46,148.488,21.468
1.5,151.682,21.914
1.53,154.314,22.178
1.56,156.911,22.797
1.59,159.964,23.369
1.63,163.017,23.656
1.66,165.685,24.068
1.69,168.422,24.584
1.72,171.089,24.962
1.76,173.686,25.512
1.79,176.669,26.096
1.82,179.688,26.485
1.85,182.39,26.966
1.89,185.092,27.516
1.92,187.549,27.894
1.95,190.076,28.341
1.99,192.462,28.662
2.02,194.568,28.868
2.05,196.884,29.177
2.08,199.376,29.372
2.12,201.376,29.418
2.15,203.236,29.75
2.18,205.307,30.002
2.21,207.097,30.082
2.25,208.852,30.323
2.28,210.852,30.506
2.31,212.817,30.644
2.34,214.502,30.964
2.38,216.257,31.308
2.41,218.327,31.686
2.44,220.258,31.95
2.47,221.591,32.064
2.51,223.17,32.454
2.54,225.171,32.855
2.57,226.996,33.049
2.6,228.435,33.301
2.64,230.4,33.702
2.67,232.506,34.0
2.7,234.085,34.172
2.73,235.313,34.584
2.77,236.542,34.836
2.8,238.437,35.329
2.83,240.788,35.741
2.86,242.192,35.73
2.9,243.14,36.085
2.93,244.789,36.692
2.96,246.474,36.784
2.99,247.386,36.944
3.03,248.79,37.391
3.06,250.685,37.62
3.09,252.159,37.952
3.12,253.598,38.388
3.16,255.318,38.674
3.19,256.827,39.041
3.22,258.09,39.35
3.25,259.003,39.499
3.29,260.091,39.774
3.32,261.635,40.049
3.35,262.933,40.243
3.38,264.056,40.495
3.42,265.179,40.713
3.45,266.267,41.034
3.48,267.496,41.355
3.51,268.724,41.652
3.55,269.952,41.893
3.58,271.181,42.134
3.61,272.304,42.351
3.64,273.462,42.603
3.68,274.515,42.878
3.71,275.462,43.13
3.74,276.234,43.291
3.77,276.936,43.417
3.81,277.638,43.462
3.84,278.34,43.474
3.87,279.007,43.646
3.91,279.779,43.921
3.94,280.621,43.921
3.97,280.972,43.932
4.0,281.148,44.092
4.04,281.99,44.218
4.07,282.516,44.115
4.1,282.306,44.001
4.13,282.481,44.31
4.17,283.499,44.505
4.2,283.92,44.47
4.23,283.464,44.402
4.26,283.394,44.459
4.3,283.675,44.287
4.33,283.429,44.173
4.36,282.692,44.058
4.39,282.657,43.966
4.43,282.657,43.921
4.46,282.271,43.829
4.49,281.569,43.68
4.52,280.972,43.52
4.56,280.411,43.302
4.59,279.744,43.004
4.62,278.656,42.683
4.65,277.779,42.512
4.69,277.322,42.294
4.72,276.55,41.916
4.75,275.076,41.584
4.78,273.497,41.355
4.82,272.304,41.091
4.85,271.04,40.713
4.88,269.461,40.312
4.91,268.163,40.072
4.95,266.899,39.785
4.98,265.32,39.556
5.01,263.776,39.35
5.04,262.196,39.098
5.08,260.687,38.846
5.11,259.389,38.536
5.14,257.774,38.227
5.17,255.844,38.067
5.21,254.335,37.883
5.24,252.826,37.631
5.27,251.141,37.425
5.3,249.176,37.127
5.34,247.211,36.921
5.37,245.526,36.841
5.4,244.122,36.6
5.43,242.438,36.291
5.47,240.823,36.211
5.5,239.244,36.142
5.53,237.454,35.936
5.56,235.313,35.764
5.6,233.243,35.604
5.63,231.628,35.421
5.66,230.084,35.1
5.69,228.084,34.676
5.73,225.943,34.493
5.76,224.188,34.412
5.79,222.609,34.16
5.83,220.503,33.863
5.86,217.941,33.576
5.89,216.046,33.576
5.92,214.677,33.496
5.96,212.747,33.152
5.99,210.396,32.958
6.02,208.887,32.981
6.05,207.343,32.706
6.09,204.991,32.247
6.12,202.605,32.156
6.15,200.71,31.938
6.18,198.499,31.434
6.22,196.323,31.342
6.25,194.427,31.182
6.28,192.287,30.804
6.31,190.321,30.712
6.35,188.251,30.414
6.38,185.934,29.979
6.41,183.688,29.819
6.44,181.337,29.406
6.48,178.775,28.96
6.51,176.389,28.891
6.54,174.353,28.57
6.57,171.967,27.997
6.61,169.37,27.631
6.64,166.843,27.173
6.67,164.211,26.691
6.7,161.508,26.29
6.74,158.841,25.867
6.77,156.068,25.259
6.8,153.296,24.904
6.83,150.664,24.538
6.87,147.961,24.091
6.9,145.224,23.759
6.93,142.276,23.106
6.96,139.398,22.693
7.0,136.626,22.178
7.03,133.643,21.628
7.06,130.484,21.101
7.09,127.325,20.563
7.13,124.237,20.059
7.16,121.289,19.509
7.19,118.166,18.81
7.22,114.621,18.226
7.26,111.147,17.745
7.29,107.848,17.241
7.32,104.724,16.611
7.35,101.46,15.912
7.39,97.881,15.179
7.42,94.16,14.526
7.45,90.581,13.873
7.48,86.966,13.151
7.52,83.211,12.544
7.55,79.526,12.051
7.58,76.016,11.467
7.61,72.647,10.894
7.65,69.383,10.379
7.68,65.874,9.852
7.71,62.505,9.325
7.75,58.96,8.924
7.78,55.591,8.489
7.81,52.222,8.065
7.84,49.133,7.618
7.88,45.694,7.137
7.91,42.395,6.656
7.94,38.85,6.301
7.97,36.674,5.636
8.01,38.429,4.009
8.04,43.202,0.493
8.07,36.569,-1.833
8.1,27.374,-0.573
8.14,26.813,-0.241
8.17,22.461,-1.02
8.2,13.582,-1.398
8.23,3.58,-1.226
8.27,-3.615,-0.928
8.3,-9.3,-0.756
8.33,-13.898,-0.848
8.36,-19.443,-0.573
8.4,-17.758,-0.481
8.43,-14.319,-2.142
8.46,-18.846,-2.921
8.49,-24.04,-2.222
8.53,-27.269,-1.443
8.56,-28.743,-1.272
8.59,-30.743,-1.925
8.62,-34.113,-2.921
8.66,-38.745,-3.757
8.69,-42.781,-4.124
8.72,-45.624,-4.33
8.75,-47.729,-4.788
8.79,-50.677,-5.464
8.82,-54.187,-5.888
8.85,-57.732,-6.152
8.88,-60.75,-6.472
8.92,-63.698,-7.011
8.95,-67.172,-7.629
8.98,-70.998,-8.259
9.01,-74.507,-8.741
9.05,-77.596,-9.279
9.08,-80.544,-9.989
9.11,-83.878,-10.665
9.14,-87.317,-11.158
9.18,-90.405,-11.616
9.21,-93.388,-12.109
9.24,-96.371,-12.521
9.27,-99.425,-12.91
9.31,-102.548,-13.38
9.34,-105.672,-13.792
9.37,-108.725,-14.159
9.4,-111.919,-14.709
9.44,-114.972,-15.202
9.47,-117.85,-15.694
9.5,-120.657,-16.336
9.53,-123.676,-16.851
9.57,-126.694,-17.321
9.6,-129.817,-17.813
9.63,-133.081,-18.375
9.67,-136.169,-18.844
9.7,-139.293,-19.623
9.73,-142.381,-20.127
9.76,-145.259,-20.471
9.8,-148.207,-21.193
9.83,-151.366,-21.685
9.86,-154.138,-22.121
9.89,-156.981,-22.682
9.93,-160.315,-23.301
9.96,-163.509,-23.702
9.99,-166.246,-24.125
10.02,-168.738,-24.629
10.06,-171.616,-25.111
10.09,-174.564,-25.557
10.12,-177.371,-25.993
10.15,-180.109,-26.451
10.19,-182.846,-27.001
10.22,-185.654,-27.379
10.25,-188.005,-27.78
10.28,-190.532,-28.261
10.32,-192.778,-28.559
10.35,-195.024,-28.753
10.38,-197.375,-29.097
10.41,-199.727,-29.326
10.45,-201.797,-29.509
10.48,-203.903,-29.865
10.51,-205.974,-30.071
10.54,-207.904,-30.185
10.58,-209.729,-30.369
10.61,-211.273,-30.529
10.64,-213.063,-30.758
10.67,-214.958,-30.999
10.71,-216.678,-31.182
10.74,-218.433,-31.423
10.77,-220.187,-31.675
10.8,-221.907,-31.881
10.84,-223.416,-32.144
10.87,-225.101,-32.511
10.9,-226.82,-32.717
10.93,-228.575,-33.049
10.97,-230.295,-33.393
11.0,-231.909,-33.622
11.03,-233.559,-34.057
11.06,-234.998,-34.286
11.1,-236.612,-34.607
11.13,-238.542,-34.962
11.16,-239.981,-35.169
11.19,-241.139,-35.478
11.23,-242.999,-36.074
11.26,-245.07,-36.337
11.29,-246.053,-36.509
11.32,-247.211,-37.036
11.36,-248.965,-37.391
11.39,-250.545,-37.597
11.42,-251.984,-37.987
11.45,-253.563,-38.33
11.49,-255.002,-38.628
11.52,-256.406,-39.063
11.55,-257.809,-39.35
11.59,-259.003,-39.533
11.62,-260.126,-39.819
11.65,-261.459,-39.98
11.68,-262.617,-40.175
11.72,-263.705,-40.507
11.75,-265.004,-40.667
11.78,-265.987,-40.816
11.81,-267.039,-41.206
11.85,-268.373,-41.492
11.88,-269.637,-41.664
11.91,-270.689,-41.859
11.94,-271.848,-42.168
11.98,-273.076,-42.477
12.01,-273.883,-42.809
12.04,-274.725,-43.13
12.07,-275.813,-43.222
12.11,-276.515,-43.325
12.14,-277.217,-43.474
12.17,-277.849,-43.565
12.2,-278.621,-43.772
12.24,-279.639,-43.875
12.27,-280.235,-43.886
12.3,-280.516,-44.047
12.33,-281.113,-44.241
12.37,-281.85,-44.31
12.4,-281.92,-44.115
12.43,-281.779,-44.207
12.46,-282.481,-44.322
12.5,-282.867,-44.299
12.53,-282.692,-44.367
12.56,-282.903,-44.425
12.59,-283.324,-44.322
12.63,-282.973,-44.276
12.66,-282.516,-44.184
12.69,-282.692,-44.001
12.72,-282.587,-43.852
12.76,-282.341,-43.737
12.79,-281.815,-43.646
12.82,-281.288,-43.611
12.85,-280.902,-43.405
12.89,-280.13,-43.084
12.92,-279.077,-42.855
12.95,-278.375,-42.638
12.98,-277.673,-42.397
13.02,-276.726,-42.271
13.05,-275.848,-42.145
13.08,-274.971,-41.973
13.11,-273.953,-41.675
13.15,-272.69,-41.377
13.18,-271.391,-41.148
13.21,-269.952,-40.873
13.24,-268.9,-40.644
13.28,-267.601,-40.346
13.31,-266.338,-40.232
13.34,-265.916,-40.495
13.37,-265.776,-40.564
13.41,-264.478,-40.461
13.44,-263.144,-40.518
13.47,-262.547,-40.541
13.51,-261.53,-40.369
13.54,-259.88,-40.129
13.57,-258.125,-39.945
13.6,-256.616,-39.636
13.64,-254.932,-39.098
13.67,-253.072,-38.605
13.7,-251.106,-38.09
13.73,-248.825,-37.563
13.77,-246.333,-37.334
13.8,-244.684,-37.093
13.83,-243.14,-36.578
13.86,-240.999,-36.348
13.9,-238.928,-36.211
13.93,-237.244,-35.879
13.96,-235.313,-35.466
13.99,-232.716,-34.985
14.03,-230.225,-34.55
14.06,-228.154,-34.344
14.09,-226.434,-34.092
14.12,-224.294,-33.656
14.16,-221.872,-33.485
14.19,-219.942,-33.37
14.22,-218.152,-33.095
14.25,-216.011,-32.832
14.29,-213.66,-32.568
14.32,-211.519,-32.385
14.35,-209.659,-32.236
14.38,-207.202,-31.778
14.42,-204.535,-31.571
14.45,-202.675,-31.56
14.48,-200.85,-31.033
14.51,-198.499,-30.701
14.55,-196.603,-30.735
14.58,-194.603,-30.392
14.61,-192.111,-30.22
14.64,-190.041,-30.185
14.68,-187.724,-29.635
14.71,-185.233,-29.418
14.74,-183.127,-29.235
14.77,-180.705,-28.639
14.81,-178.284,-28.49
14.84,-176.459,-28.398
14.87,-174.107,-27.791
14.9,-171.124,-27.447
14.94,-168.562,-27.218
14.97,-166.176,-26.737
15.0,-163.614,-26.302
15.03,-160.701,-25.741
15.07,-157.753,-25.317
15.1,-155.612,-25.191
15.13,-153.436,-24.618
15.16,-150.172,-23.919
15.2,-146.838,-23.667
15.23,-144.206,-23.323
15.26,-141.609,-22.785
15.29,-138.556,-22.235
15.33,-135.292,-21.72
15.36,-132.59,-21.433
15.39,-130.203,-20.952
15.43,-127.045,-20.139
15.46,-123.254,-19.578
15.49,-119.85,-19.142
15.52,-116.656,-18.478
15.56,-113.287,-17.71
15.59,-109.813,-17.034
15.62,-106.339,-16.45
15.65,-102.969,-15.854
15.69,-99.495,-15.167
15.72,-95.705,-14.468
15.75,-92.02,-13.873
15.78,-87.422,-12.67
15.82,-81.702,-11.112
15.85,-75.595,-9.875
15.88,-70.857,-8.993
15.91,-68.015,-8.397
15.95,-65.102,-7.251
15.98,-61.487,-6.472
16.01,-57.556,-6.358
16.04,-54.678,-6.61
16.08,-52.046,-6.713
16.11,-49.203,-6.518
16.14,-45.834,-6.438
16.17,-43.027,-6.518
16.21,-40.43,-6.564
16.24,-38.043,-6.472
16.27,-34.99,-6.427
16.3,-33.025,-6.209
16.34,-34.85,-4.972
16.37,-41.974,-1.615
16.4,-39.201,1.787
16.43,-28.708,0.813
16.47,-28.603,-0.046
16.5,-26.357,0.928
16.53,-17.162,1.501
16.56,-6.071,1.443
16.6,3.018,1.077
16.63,9.09,0.836
16.66,15.091,0.916
16.69,19.688,0.63
16.73,21.794,0.137
16.76,18.039,0.401
16.79,15.231,2.142
16.82,19.969,2.623
16.86,24.216,1.776
16.89,27.058,1.363
16.92,29.059,1.466
16.95,31.937,2.177
16.99,36.148,3.127
17.02,41.412,3.849
17.05,45.834,4.135
17.08,48.747,4.468
17.12,50.923,5.235
17.15,53.871,6.232
17.18,57.661,6.976
17.21,61.276,7.435
17.25,64.365,7.767
17.28,67.278,8.225
17.31,70.647,8.775
17.35,74.086,9.13
17.38,77.209,9.416
17.41,80.228,9.921
17.44,83.421,10.47
17.48,86.58,10.883
17.51,89.423,11.284
17.54,92.265,11.73
17.57,95.213,12.166
17.61,98.267,12.567
17.64,101.004,12.945
17.67,103.777,13.495
17.7,107.04,14.148
17.74,110.62,14.629
17.77,113.779,14.995
17.8,116.551,15.534
17.83,119.324,16.244
17.87,122.517,16.84
17.9,125.746,17.401
17.93,128.87,17.871
17.96,131.818,18.386
18.0,134.976,19.051
18.03,138.275,19.669
18.06,141.434,20.185
18.09,144.557,20.792
18.13,147.54,21.376
18.16,150.313,21.811
18.19,153.191,22.373
18.22,156.279,22.888
18.26,159.122,23.243
18.29,161.859,23.759
18.32,164.877,24.309
18.35,167.966,24.664
18.39,170.773,25.099
18.42,173.616,25.638
18.45,176.213,26.038
18.48,178.986,26.68
18.52,182.109,27.31
18.55,184.811,27.562
18.58,187.128,27.952
18.61,189.76,28.501
18.65,192.111,28.627
18.68,194.217,28.891
18.71,196.674,29.395
18.74,198.99,29.452
18.78,201.06,29.567
18.81,203.307,30.002
18.84,205.272,30.094
18.87,206.921,30.197
18.91,208.781,30.54
18.94,210.747,30.701
18.97,212.677,30.941
19.0,214.713,31.297
19.04,216.678,31.468
19.07,218.503,31.869
19.1,220.468,32.27
19.13,222.047,32.431
19.17,223.837,32.797
19.2,225.908,33.164
19.23,227.663,33.37
19.27,229.242,33.702
19.3,231.032,34.069
19.33,232.716,34.344
19.36,234.471,34.687
19.4,236.05,34.871
19.43,237.419,35.123
19.46,239.314,35.592
19.49,241.245,35.81
19.53,242.578,36.005
19.56,244.052,36.555
19.59,245.631,36.898
19.62,246.754,37.024
19.66,248.053,37.402
19.69,249.983,37.62
19.72,251.738,37.643
19.75,253.107,38.01
19.79,254.51,38.422
19.82,255.809,38.685
19.85,257.037,39.086
19.88,258.301,39.384
19.92,259.424,39.625
19.95,260.617,39.751
19.98,261.88,39.842
20.01,263.109,40.083
20.05,264.478,40.346
20.08,265.636,40.541
20.11,266.583,40.782
20.14,267.601,41.125
20.18,268.794,41.389
20.21,269.882,41.572
20.24,270.76,41.916
20.27,271.812,42.282
20.31,273.286,42.592
20.34,274.164,42.741
20.37,274.971,42.947
20.4,275.989,43.107
20.44,276.936,43.302
20.47,277.673,43.474
20.5,277.989,43.394
20.53,278.551,43.714
20.57,279.779,43.932
20.6,280.411,43.852
20.63,280.376,44.058
20.66,281.078,44.207
20.7,281.815,44.161
20.73,282.06,44.092
20.76,282.06,44.047
20.79,282.271,44.207
20.83,282.867,44.333
20.86,283.078,44.253
20.89,283.008,44.264
20.92,282.938,44.207
20.96,282.692,44.069
20.99,282.446,43.921
21.02,282.271,43.76
21.05,282.166,43.726
21.09,282.06,43.795
21.12,281.99,43.714
21.15,281.464,43.611
21.19,281.042,43.531
21.22,280.376,43.279
21.25,279.182,43.084
21.28,278.445,42.981
21.32,278.059,42.775
21.35,277.428,42.489
21.38,276.234,42.282
21.41,275.006,42.076
21.45,273.918,41.733
21.48,272.725,41.32
21.51,271.286,40.885
21.54,269.601,40.45
21.58,268.127,40.209
21.61,266.759,40.003
21.64,265.25,39.762
21.67,263.951,39.51
21.71,262.758,39.189
21.74,261.143,38.788
21.77,259.248,38.525
21.8,257.634,38.502
21.84,256.335,38.296
21.87,254.791,37.975
21.9,253.282,37.952
21.93,251.738,37.723
21.97,249.773,37.345
22.0,248.123,37.391
22.03,246.719,37.196
22.06,244.93,36.807
22.1,243.245,36.921
22.13,241.911,36.692
22.16,239.911,36.257
22.19,238.016,36.394
22.23,236.507,36.142
22.26,234.155,35.535
22.29,232.295,35.398
22.32,230.821,35.191
22.36,228.505,34.745
22.39,226.224,34.687
22.42,224.785,34.699
22.45,223.135,34.321
22.49,220.819,34.012
22.52,218.538,33.759
22.55,216.502,33.507
22.58,214.642,33.347
22.62,212.537,32.9
22.65,210.185,32.602
22.68,208.36,32.591
22.71,206.57,32.19
22.75,204.184,31.766
22.78,201.903,31.824
22.81,200.008,31.526
22.84,197.551,30.987
22.88,195.656,31.216
22.91,194.182,30.941
22.94,192.041,30.586
22.97,190.111,30.724
23.01,188.181,30.414
23.04,185.794,30.094
23.07,183.688,30.094
23.11,181.583,29.567
23.14,179.091,29.166
23.17,176.81,29.051
23.2,174.669,28.57
23.24,172.107,28.135
23.27,169.615,27.917
23.3,167.053,27.367
23.33,164.316,26.772
23.37,161.684,26.485
23.4,159.157,25.912
23.43,156.49,25.42
23.46,153.647,25.053
23.5,150.945,24.675
23.53,148.312,24.297
23.56,145.575,23.805
23.59,142.627,23.209
23.63,139.433,22.602
23.66,136.31,22.04
23.69,133.292,21.445
23.72,130.168,20.861
23.76,126.904,20.334
23.79,123.746,19.83
23.82,120.692,19.314
23.85,117.709,18.684
23.89,114.41,18.031
23.92,111.041,17.504
23.95,107.532,17.046
23.98,104.233,16.519
24.02,100.899,15.98
24.05,97.635,15.328
24.08,93.88,14.606
24.11,90.195,14.01
24.15,86.685,13.346
24.18,83.211,12.704
24.21,79.807,12.131
24.24,76.508,11.513
24.28,72.787,10.906
24.31,69.138,10.425
24.34,65.909,10.104
24.37,62.996,9.68
24.41,59.767,9.142
24.44,56.468,8.683
24.47,53.029,8.248
24.5,49.66,7.824
24.54,46.466,7.572
24.57,43.448,7.125
24.6,39.622,6.575
24.63,37.131,6.014
24.67,38.394,4.594
24.7,43.834,1.134
24.73,38.605,-1.936
24.76,27.269,-0.836
24.8,26.251,-0.149
24.83,22.356,-1.031
24.86,13.091,-1.489
24.89,2.211,-1.352
24.93,-5.475,-0.928
24.96,-10.915,-0.722
24.99,-15.266,-0.825
25.03,-19.969,-0.412
25.06,-17.302,-0.252
25.09,-13.652,-1.913
25.12,-17.863,-2.6
25.16,-22.601,-1.89
25.19,-25.479,-1.214
25.22,-26.848,-1.02
25.25,-29.164,-1.707
25.29,-33.2,-2.864
25.32,-38.71,-3.746
25.35,-43.588,-3.929
25.38,-47.063,-4.216
25.42,-49.449,-4.903
25.45,-52.151,-5.751
25.48,-55.696,-6.553
25.51,-59.592,-7.08
25.55,-62.61,-7.366
25.58,-65.207,-7.79
25.61,-68.015,-8.374
25.64,-71.559,-8.809
25.68,-74.893,-9.107
25.71,-77.666,-9.302
25.74,-80.473,-9.726
25.77,-83.667,-10.333
25.81,-86.966,-10.596
25.84,-90.054,-10.986
25.87,-92.827,-11.524
25.9,-95.705,-11.983
25.94,-98.793,-12.578
25.97,-102.057,-13.162
26.0,-105.11,-13.54
26.03,-108.269,-14.102
26.07,-111.497,-14.743
26.1,-114.621,-15.179
26.13,-117.569,-15.706
26.16,-120.622,-16.313
26.2,-123.43,-16.725
26.23,-126.167,-17.16
26.26,-129.221,-17.916
26.29,-132.625,-18.34
26.33,-135.854,-18.833
26.36,-138.977,-19.474
26.39,-141.96,-19.944
26.42,-144.943,-20.597
26.46,-148.067,-21.25
26.49,-150.945,-21.571
26.52,-153.752,-22.132
26.55,-156.876,-22.842
26.59,-160.069,-23.255
26.62,-162.842,-23.679
26.65,-165.79,-24.297
26.68,-168.668,-24.698
26.72,-171.37,-25.099
26.75,-174.107,-25.683
26.78,-176.915,-26.176
26.81,-179.828,-26.588
26.85,-182.671,-27.161
26.88,-185.338,-27.528
26.91,-187.549,-27.86
26.94,-190.181,-28.433
26.98,-192.813,-28.719
27.01,-194.989,-28.719
27.04,-197.165,-29.12
27.08,-199.551,-29.464
27.11,-201.517,-29.487
27.14,-203.271,-29.773
27.17,-205.272,-30.128
27.21,-207.378,-30.14
27.24,-209.238,-30.266
27.27,-211.028,-30.46
27.3,-212.607,-30.609
27.34,-214.397,-30.976
27.37,-216.502,-31.354
27.4,-218.468,-31.56
27.43,-220.047,-31.835
27.47,-221.802,-32.179
27.5,-223.627,-32.396
27.53,-225.276,-32.728
27.56,-226.926,-33.129
27.6,-228.645,-33.404
27.63,-230.54,-33.805
27.66,-232.401,-34.069
27.69,-233.875,-34.218
27.73,-235.208,-34.619
27.76,-236.928,-34.928
27.79,-238.577,-35.146
27.82,-240.051,-35.512
27.86,-241.56,-35.89
27.89,-242.999,-36.131
27.92,-244.684,-36.612
27.95,-246.298,-36.99
27.99,-247.281,-37.105
28.02,-248.579,-37.62
28.05,-250.72,-38.101
28.08,-252.299,-38.204
28.12,-253.423,-38.685
28.15,-255.247,-39.189
28.18,-256.897,-39.304
28.21,-257.88,-39.476
28.25,-258.897,-39.774
28.28,-260.126,-39.945
28.31,-261.214,-40.175
28.34,-262.547,-40.507
28.38,-264.056,-40.702
28.41,-265.074,-40.839
28.44,-266.057,-41.206
28.47,-267.145,-41.492
28.51,-268.513,-41.698
28.54,-269.531,-41.985
28.57,-270.198,-42.111
28.6,-271.181,-42.317
28.64,-272.409,-42.512
28.67,-273.462,-42.832
28.7,-274.445,-43.13
28.73,-275.146,-43.348
28.77,-276.199,-43.623
28.8,-277.147,-43.646
28.83,-277.463,-43.565
28.86,-277.954,-43.898
28.9,-279.007,-43.943
28.93,-279.674,-44.012
28.96,-279.955,-44.276
29.0,-280.551,-44.39
29.03,-281.253,-44.402
29.06,-281.779,-44.436
29.09,-282.025,-44.47
29.13,-282.271,-44.631
29.16,-282.762,-44.791
29.19,-283.043,-44.803
29.22,-283.324,-44.871
29.26,-283.464,-44.894
29.29,-283.394,-44.745
29.32,-283.043,-44.596
29.35,-282.622,-44.528
29.39,-282.481,-44.539
29.42,-282.446,-44.493
29.45,-282.201,-44.322
29.48,-281.709,-44.115
29.52,-281.148,-43.817
29.55,-280.27,-43.474
29.58,-279.147,-43.222
29.61,-278.481,-43.084
29.65,-277.919,-42.901
29.68,-277.007,-42.683
29.71,-275.954,-42.546
29.74,-275.322,-42.282
29.78,-274.059,-41.824
29.81,-272.514,-41.503
29.84,-271.146,-41.194
29.87,-270.093,-40.976
29.91,-269.461,-40.954
29.94,-268.584,-40.942
29.97,-267.18,-40.816
30.0,-265.671,-40.587
30.04,-264.091,-40.324
30.07,-262.442,-39.923
30.1,-260.722,-39.384
30.13,-258.968,-38.972
30.17,-257.002,-38.617
30.2,-254.897,-38.147
30.23,-253.107,-37.918
30.26,-251.598,-37.769
30.3,-249.527,-37.139
30.33,-247.0,-36.6
30.36,-245.421,-36.497
30.39,-243.666,-36.188
30.43,-241.385,-35.925
30.46,-239.56,-35.959
30.49,-238.016,-35.695
30.52,-236.226,-35.489
30.56,-234.436,-35.295
30.59,-232.12,-34.951
30.62,-229.874,-34.768
30.65,-228.224,-34.699
30.69,-226.399,-34.344
30.72,-224.294,-34.092
30.75,-222.539,-34.023
30.78,-220.784,-33.817
30.82,-218.889,-33.565
30.85,-216.888,-33.404
30.88,-214.607,-33.233
30.92,-212.396,-33.061
30.95,-210.677,-32.935
30.98,-208.817,-32.58
31.01,-206.781,-32.373
31.05,-205.132,-32.35
31.08,-203.061,-31.984
31.11,-200.71,-31.732
31.14,-198.849,-31.846
31.18,-197.095,-31.491
31.21,-194.849,-31.079
31.24,-192.953,-31.148
31.27,-191.269,-30.85
31.31,-188.953,-30.414
31.34,-186.707,-30.403
31.37,-184.706,-30.162
31.4,-182.565,-29.704
31.44,-180.389,-29.578
31.47,-178.284,-29.246
31.5,-176.038,-28.834
31.53,-173.651,-28.753
31.57,-171.44,-28.49
31.6,-169.089,-27.986
31.63,-166.808,-27.757
31.66,-164.281,-27.299
31.7,-161.508,-26.646
31.73,-158.806,-26.233
31.76,-156.174,-25.66
31.79,-153.331,-25.214
31.83,-150.769,-24.87
31.86,-148.102,-24.354
31.89,-145.435,-23.828
31.92,-142.697,-23.369
31.96,-139.468,-22.545
31.99,-135.924,-22.052
32.02,-132.765,-21.628
32.05,-130.133,-20.987
32.09,-127.115,-20.357
32.12,-123.746,-19.807
32.15,-120.341,-19.303
32.18,-117.429,-18.787
32.22,-114.305,-18.111
32.25,-110.866,-17.435
32.28,-107.356,-16.92
32.31,-103.987,-16.313
32.35,-100.688,-15.728
32.38,-97.389,-15.098
32.41,-93.669,-14.354
32.44,-89.879,-13.678
32.48,-86.65,-13.174
32.51,-83.492,-12.498
32.54,-79.526,-11.65
32.57,-75.49,-11.238
32.61,-72.156,-11.009
32.64,-69.138,-10.276
32.67,-65.804,-9.623
32.7,-62.505,-9.256
32.74,-59.03,-8.672
32.77,-55.521,-8.282
32.8,-52.467,-8.214
32.84,-49.625,-7.71
32.87,-46.22,-7.228
32.9,-43.237,-6.954
32.93,-39.763,-6.61
32.97,-37.833,-5.923
33.0,-40.219,-4.376
33.03,-45.799,-0.619
33.06,-39.061,1.959
33.1,-28.954,0.664
33.13,-28.076,0.241
33.16,-23.444,1.123
33.19,-13.477,1.546
33.23,-2.527,1.352
33.26,5.334,0.939
33.29,11.16,0.825
33.32,16.249,0.859
33.36,21.022,0.504
33.39,20.215,0.298
33.42,15.337,1.81
33.45,18.109,3.253
33.49,24.181,2.83
33.52,28.146,1.787
33.55,29.445,1.283
33.58,30.638,1.833
33.62,33.937,3.127
33.65,38.815,4.147
33.68,43.167,4.445
33.71,45.975,4.617
33.75,48.221,5.224
33.78,50.993,5.888
33.81,54.713,6.415
33.84,58.539,6.839
33.88,61.803,7.137
33.91,64.68,7.572
33.94,67.874,8.248
33.97,71.524,8.867
34.01,75.069,9.29
34.04,78.122,9.646
34.07,80.859,10.15
34.1,83.983,10.791
34.14,87.352,11.295
34.17,90.546,11.696
34.2,93.564,12.131
34.23,96.512,12.532
34.27,99.39,12.922
34.3,102.373,13.426
34.33,105.286,13.896
34.36,108.374,14.354
34.4,111.533,14.927
34.43,114.761,15.431
34.46,117.709,15.843
34.49,120.728,16.485
34.53,123.746,16.989
34.56,126.659,17.344
34.59,129.396,17.951
34.62,132.344,18.375
34.66,135.503,18.982
34.69,138.556,19.532
34.72,141.469,20.036
34.76,144.382,20.586
34.79,147.646,21.239
34.82,150.909,21.834
34.85,153.928,22.247
34.89,156.63,22.785
34.92,159.543,23.507
34.95,162.701,24.102
34.98,165.755,24.538
35.02,168.562,25.065
35.05,171.545,25.534
35.08,174.423,25.901
35.11,177.301,26.428
35.15,180.109,26.921
35.18,182.776,27.241
35.21,185.303,27.803
35.24,187.97,28.272
35.28,190.427,28.398
35.31,192.708,28.788
35.34,195.094,29.143
35.37,197.2,29.2
35.41,199.341,29.578
35.44,201.552,29.842
35.47,203.447,29.796
35.5,205.307,30.117
35.54,207.378,30.323
35.57,209.027,30.208
35.6,210.571,30.552
35.63,212.537,30.941
35.67,214.537,30.987
35.7,216.257,31.319
35.73,217.871,31.663
35.76,219.521,31.789
35.8,221.31,32.064
35.83,223.17,32.293
35.86,224.609,32.419
35.89,226.118,32.843
35.93,227.873,33.152
35.96,229.663,33.416
35.99,231.804,34.08
36.02,233.769,34.321
36.06,234.962,34.447
36.09,236.472,35.1
36.12,238.367,35.421
36.15,239.7,35.512
36.19,241.139,36.154
36.22,242.999,36.463
36.25,244.543,36.543
36.28,246.263,37.093
36.32,247.702,37.265
36.35,248.86,37.368
36.38,250.404,37.906
36.41,252.019,38.147
36.45,253.282,38.319
36.48,254.932,38.869
36.51,256.686,39.167
36.54,257.669,39.247
36.58,258.582,39.671
36.61,260.02,40.083
36.64,261.459,40.22
36.68,262.758,40.518
36.71,264.091,40.793
36.74,265.179,40.908
36.77,266.197,41.206
36.81,267.426,41.469
36.84,268.513,41.629
36.87,269.496,41.916
36.9,270.724,42.156
36.94,271.777,42.386
36.97,272.935,42.764
37.0,274.269,43.027
37.03,275.252,43.153
37.07,275.708,43.428
37.1,276.656,43.691
37.13,277.708,43.6
37.16,277.954,43.611
37.2,278.551,43.955
37.23,279.639,44.058
37.26,280.2,44.081
37.29,280.621,44.287
37.33,281.218,44.39
37.36,281.815,44.619
37.39,282.341,44.459
37.42,282.236,44.322
37.46,282.762,44.7
37.49,283.745,44.768
37.52,283.64,44.688
37.55,283.359,44.814
37.59,283.71,44.78
37.62,283.745,44.596
37.65,283.218,44.356
37.68,282.867,44.15
37.72,282.797,44.035
37.75,282.622,43.921
37.78,282.095,43.829
37.81,281.534,43.691
37.85,281.183,43.451
37.88,280.411,43.187
37.91,279.288,43.038
37.94,278.586,42.832
37.98,277.849,42.615
38.01,276.901,42.534
38.04,276.129,42.26
38.07,274.866,41.962
38.11,273.778,41.629
38.14,272.514,41.183
38.17,270.935,40.759
38.2,269.215,40.507
38.24,267.917,40.335
38.27,266.724,40.026
38.3,265.39,39.739
38.33,263.881,39.499
38.37,262.337,39.235
38.4,260.757,38.96
38.43,259.038,38.743
38.46,257.458,38.536
38.5,256.16,38.342
38.53,254.581,38.067
38.56,252.475,37.712
38.6,250.58,37.597
38.63,249.387,37.379
38.66,247.527,36.726
38.69,245.105,36.509
38.73,243.666,36.635
38.76,242.087,36.245
38.79,239.876,35.913
38.82,238.191,36.039
38.86,236.963,35.97
38.89,235.349,35.673
38.92,233.278,35.489
38.95,231.102,35.237
38.99,229.207,35.02
39.02,227.452,34.985
39.05,225.697,34.687
39.08,223.837,34.378
39.12,222.118,34.298
39.15,220.047,33.977
39.18,217.731,33.771
39.21,216.046,33.771
39.25,214.326,33.416
39.28,212.326,33.221
39.31,210.396,33.152
39.34,208.36,32.774
39.38,206.29,32.774
39.41,204.921,32.751
39.44,202.499,31.972
39.47,199.832,31.812
39.51,198.323,31.938
39.54,196.323,31.136
39.57,193.585,30.953
39.6,191.866,31.193
39.64,189.935,30.552
39.67,187.479,30.323
39.7,185.478,30.323
39.73,183.162,29.601
39.77,180.6,29.292
39.8,178.529,29.28
39.83,176.353,28.662
39.86,173.756,28.478
39.9,171.475,28.307
39.93,169.194,27.631
39.96,166.632,27.287
39.99,164.07,26.955
40.03,161.192,26.325
40.06,158.595,26.153
40.09,156.454,25.947
40.12,154.068,25.191
40.16,151.085,24.778
40.19,148.242,24.389
40.22,145.505,24.011
40.25,142.873,23.553
40.29,140.03,22.991
40.32,136.942,22.384
40.35,134.134,22.063
40.38,131.396,21.502
40.42,128.308,20.861
40.45,124.904,20.322
40.48,121.535,19.704
40.52,118.446,19.073
40.55,114.972,18.398
40.58,111.357,17.779
40.61,108.128,17.275
40.65,105.04,16.622
40.68,101.495,15.889
40.71,97.81,15.293
40.74,94.125,14.686
40.78,90.475,13.93
40.81,86.79,13.208
40.84,83.211,12.567
40.87,79.596,11.776
40.91,75.946,11.146
40.94,72.401,10.814
40.97,68.997,10.264
41.0,65.558,9.668
41.04,62.119,9.199
41.07,58.679,8.637
41.1,55.029,8.053
41.13,51.45,7.79
41.17,48.361,7.366
41.2,45.097,6.805
41.23,41.939,6.266
41.26,38.254,5.854
41.3,35.481,5.178
41.33,37.587,3.803
41.36,43.167,0.046
41.39,34.464,-2.016
41.43,25.865,-0.332
41.46,26.672,-0.183
41.49,22.391,-1.077
41.52,13.301,-1.398
41.56,4.106,-1.1
41.59,-2.071,-0.859
41.62,-7.721,-0.825
41.65,-12.81,-0.882
41.69,-18.074,-0.55
41.72,-17.548,-0.332
41.75,-13.441,-1.936
41.78,-17.723,-2.933
41.82,-23.268,-2.211
41.85,-26.778,-1.512
41.88,-28.603,-1.294
41.91,-30.919,-1.879
41.95,-34.499,-2.956
41.98,-39.342,-3.838
42.01,-43.553,-4.17
42.04,-46.396,-4.513
42.08,-48.502,-5.144
42.11,-51.204,-5.945
42.14,-54.749,-6.507
42.17,-58.434,-6.747
42.21,-61.487,-6.954
42.24,-64.4,-7.366
42.27,-67.523,-7.87
42.3,-70.963,-8.34
42.34,-74.156,-8.809
42.37,-77.455,-9.325
42.4,-80.508,-9.794
42.44,-83.737,-10.276
42.47,-87.071,-10.86
42.5,-90.16,-11.307
42.53,-93.002,-11.788
42.57,-96.021,-12.383
42.6,-99.179,-12.899
42.63,-102.303,-13.266
42.66,-105.286,-13.758
42.7,-108.199,-14.193
42.73,-111.357,-14.709
42.76,-114.481,-15.236
42.79,-117.674,-15.74
42.83,-120.692,-16.267
42.86,-123.465,-16.828
42.89,-126.343,-17.447
42.92,-129.361,-17.916
42.96,-132.625,-18.443
42.99,-135.924,-18.97
43.02,-138.872,-19.28
43.05,-141.258,-19.635
43.09,-143.75,-20.322
43.12,-146.733,-20.952
43.15,-149.786,-21.342
43.18,-152.699,-21.777
43.22,-155.717,-22.247
43.25,-158.736,-22.865
43.28,-161.789,-23.507
43.31,-164.877,-23.942
43.35,-167.79,-24.549
43.38,-170.738,-25.214
43.41,-173.686,-25.603
43.44,-176.529,-26.073
43.48,-179.688,-26.852
43.51,-182.495,-27.115
43.54,-185.057,-27.585
43.57,-187.83,-28.41
43.61,-190.497,-28.696
43.64,-192.778,-28.983
43.67,-195.059,-29.338
43.7,-197.2,-29.372
43.74,-199.341,-29.624
43.77,-201.727,-30.059
43.8,-203.728,-29.991
43.83,-205.202,-30.162
43.87,-207.343,-30.678
43.9,-209.799,-30.735
43.93,-211.203,-30.598
43.96,-212.466,-31.01
44.0,-214.537,-31.354
44.03,-216.818,-31.583
44.06,-218.748,-31.858
44.09,-220.468,-32.064
44.13,-222.258,-32.35
44.16,-224.048,-32.774
44.19,-225.697,-33.026
44.22,-227.242,-33.37
44.26,-229.137,-33.714
44.29,-230.962,-33.874
44.32,-232.471,-34.103
44.36,-233.769,-34.344
44.39,-235.138,-34.412
44.42,-236.682,-34.917
44.45,-238.472,-35.249
44.49,-239.7,-35.283
44.52,-240.929,-35.707
44.55,-242.648,-36.154
44.58,-244.263,-36.268
44.62,-245.631,-36.623
44.65,-247.035,-37.047
44.68,-248.544,-37.231
44.71,-249.983,-37.574
44.75,-251.598,-38.021
44.78,-253.072,-38.307
44.81,-254.475,-38.685
44.84,-255.914,-39.121
44.88,-257.423,-39.361
44.91,-258.687,-39.602
44.94,-259.845,-39.888
44.97,-261.038,-40.083
45.01,-262.196,-40.427
45.04,-263.495,-40.828
45.07,-264.828,-40.976
45.1,-265.952,-41.091
45.14,-267.11,-41.366
45.17,-268.233,-41.629
45.2,-269.286,-41.939
45.23,-270.303,-42.294
45.27,-271.672,-42.649
45.3,-272.971,-42.912
45.33,-274.094,-43.176
45.36,-275.041,-43.451
45.4,-275.919,-43.6
45.43,-276.585,-43.646
45.46,-277.322,-43.84
45.49,-277.989,-43.932
45.53,-278.726,-44.138
45.56,-279.604,-44.39
45.59,-280.516,-44.459
45.62,-281.007,-44.459
45.66,-281.604,-44.677
45.69,-282.236,-44.654
45.72,-282.271,-44.505
45.75,-282.446,-44.688
45.79,-282.797,-44.734
45.82,-283.148,-44.722
45.85,-283.324,-44.722
45.88,-283.675,-44.665
45.92,-283.499,-44.585
45.95,-283.078,-44.528
45.98,-282.832,-44.379
46.01,-282.657,-44.184
46.05,-282.446,-44.104
46.08,-282.166,-44.047
46.11,-281.674,-43.898
46.14,-281.148,-43.829
46.18,-280.797,-43.623
46.21,-279.99,-43.222
46.24,-278.726,-43.004
46.28,-278.059,-42.89
46.31,-277.463,-42.695
46.34,-276.515,-42.546
46.37,-275.568,-42.431
46.41,-274.831,-42.225
46.44,-273.778,-41.824
46.47,-272.128,-41.446
46.5,-270.584,-41.16
46.54,-269.391,-40.965
46.57,-268.584,-40.816
46.6,-267.601,-40.656
46.63,-266.162,-40.518
46.67,-264.828,-40.427
46.7,-263.67,-40.083
46.73,-262.302,-39.522
46.76,-260.442,-39.155
46.8,-258.441,-38.88
46.83,-256.616,-38.594
46.86,-255.002,-38.365
46.89,-253.107,-38.032
46.93,-251.247,-37.631
46.96,-249.457,-37.437
46.99,-247.386,-37.001
47.02,-245.421,-36.612
47.06,-243.947,-36.6
47.09,-242.438,-36.326
47.12,-240.227,-35.993
47.15,-238.542,-36.119
47.19,-237.279,-36.005
47.22,-235.349,-35.512
47.25,-233.032,-35.443
47.28,-230.856,-35.283
47.32,-229.066,-35.1
47.35,-227.768,-35.043
47.38,-226.224,-34.687
47.41,-223.802,-34.332
47.45,-221.837,-34.378
47.48,-220.117,-34.138
47.51,-217.871,-33.725
47.54,-215.765,-33.553
47.58,-213.905,-33.29
47.61,-211.835,-32.992
47.64,-209.764,-32.923
47.67,-208.044,-32.706
47.71,-206.184,-32.465
47.74,-204.289,-32.293
47.77,-202.043,-31.881
47.8,-199.762,-31.697
47.84,-198.077,-31.652
47.87,-196.217,-31.193
47.9,-194.041,-30.896
47.93,-192.111,-30.884
47.97,-189.83,-30.609
48.0,-187.584,-30.414
48.03,-185.724,-30.243
48.06,-183.478,-29.681
48.1,-180.916,-29.212
48.13,-178.564,-28.983
48.16,-176.353,-28.593
48.2,-173.932,-28.249
48.23,-171.581,-27.963
48.26,-169.159,-27.436
48.29,-166.386,-27.047
48.33,-163.754,-26.68
48.36,-161.122,-26.119
48.39,-158.63,-25.706
48.42,-156.525,-25.431
48.46,-153.682,-24.755
48.49,-150.418,-24.309
48.52,-147.575,-24.08
48.55,-145.049,-23.598
48.59,-142.451,-23.232
48.62,-139.363,-22.533
48.65,-136.45,-22.098
48.68,-133.958,-21.834
48.72,-131.326,-21.273
48.75,-128.133,-20.735
48.78,-124.799,-20.322
48.81,-121.78,-19.784
48.85,-118.657,-19.062
48.88,-115.253,-18.386
48.91,-111.743,-17.733
48.94,-108.304,-17.092
48.98,-104.9,-16.427
49.01,-101.425,-15.751
49.04,-97.951,-15.007
49.07,-94.196,-14.285
49.11,-90.3,-13.644
49.14,-86.755,-13.025
49.17,-83.246,-12.257
49.2,-79.526,-11.536
49.24,-75.981,-10.917
49.27,-72.437,-10.356
49.3,-68.962,-9.875
49.33,-65.628,-9.542
49.37,-62.329,-9.027
49.4,-58.925,-8.649
49.43,-55.801,-8.363
49.46,-52.538,-7.904
49.5,-49.168,-7.446
49.53,-45.624,-7.068
49.56,-42.43,-6.518
49.59,-38.64,-6.026
49.63,-36.148,-5.441
49.66,-37.798,-3.861
49.69,-42.535,-0.218
49.72,-34.393,1.993
49.76,-25.198,0.424
49.79,-25.409,0.286
49.82,-19.969,1.203
49.85,-10.283,1.432
49.89,-0.772,1.123
49.92,5.229,0.813
49.95,10.95,0.871
49.98,16.284,0.848
50.02,20.39,0.355
50.05,17.723,0.275
50.08,13.687,2.073
50.12,17.934,3.082
50.15,23.444,2.245
50.18,26.462,1.214
50.21,27.55,0.962
50.25,29.41,1.627
50.28,33.025,2.807
50.31,38.219,3.654
50.34,43.097,3.941
50.38,46.431,4.181
50.41,48.817,4.651
50.44,51.309,5.396
50.47,54.643,6.197
50.51,58.293,6.667
50.54,61.557,6.999
50.57,64.575,7.469
50.6,67.628,8.042
50.64,70.963,8.58
50.67,74.332,9.084
50.7,77.631,9.611
50.73,80.754,10.15
50.77,84.088,10.619
50.8,87.457,11.112
50.83,90.546,11.559
50.86,93.248,11.937
50.9,95.95,12.498
50.93,98.828,13.105
50.96,102.092,13.552
50.99,105.426,13.976
51.03,108.62,14.388
51.06,111.743,14.835
51.09,114.902,15.419
51.12,118.166,15.946
51.16,121.043,16.416
51.19,123.921,17.103
51.22,127.15,17.779
51.25,130.589,18.306
51.29,133.783,18.787
51.32,137.047,19.452
51.35,139.925,19.875
51.38,142.662,20.368
51.42,145.294,20.883
51.45,148.102,21.227
51.48,151.085,21.823
51.51,154.243,22.235
51.55,157.051,22.556
51.58,159.753,23.117
51.61,162.842,23.805
51.64,165.79,24.194
51.68,168.562,24.595
51.71,171.159,25.099
51.74,173.792,25.523
51.77,176.634,26.05
51.81,179.652,26.531
51.84,182.249,26.829
51.87,184.741,27.276
51.9,187.128,27.7
51.94,189.339,27.94
51.97,191.479,28.158
52.0,194.287,28.742
52.04,197.2,28.96
52.07,199.025,28.902
52.1,200.85,29.475
52.13,203.377,30.025
52.17,205.518,29.91
52.2,206.57,29.899
52.23,208.009,30.277
52.26,210.887,30.804
52.3,213.484,30.896
52.33,214.853,30.976
52.36,216.397,31.537
52.39,218.819,31.984
52.43,220.819,32.121
52.46,222.293,32.442
52.49,224.013,32.843
52.52,225.803,33.038
52.56,227.382,33.301
52.59,229.172,33.622
52.62,231.313,33.943
52.65,232.857,34.034
52.69,233.875,34.183
52.72,235.278,34.619
52.75,237.173,34.894
52.78,238.683,35.02
52.82,240.051,35.329
52.85,241.525,35.638
52.88,243.175,35.948
52.91,245.07,36.417
52.95,246.474,36.635
52.98,247.351,36.818
53.01,248.86,37.322
53.04,250.861,37.712
53.08,252.405,37.964
53.11,253.809,38.365
53.14,255.388,38.777
53.17,256.862,39.109
53.21,258.055,39.384
53.24,259.178,39.522
53.27,260.301,39.705
53.3,261.565,39.945
53.34,262.933,40.152
53.37,264.267,40.266
53.4,265.109,40.53
53.43,266.127,40.965
53.47,267.461,41.206
53.5,268.724,41.389
53.53,269.847,41.675
53.56,270.9,42.03
53.6,272.058,42.328
53.63,273.392,42.626
53.66,274.62,42.855
53.69,275.533,43.016
53.73,276.305,43.21
53.76,277.077,43.382
53.79,277.708,43.417
53.82,278.34,43.497
53.86,279.112,43.669
53.89,280.06,43.898
53.92,280.656,44.035
53.96,281.042,44.092
53.99,281.393,44.161
54.02,281.99,44.173
54.05,282.201,44.058
54.09,282.166,43.989
54.12,282.306,44.092
54.15,282.903,44.173
54.18,283.289,44.161
54.22,283.464,44.31
54.25,283.499,44.379
54.28,283.499,44.413
54.31,283.745,44.516
54.35,283.569,44.264
54.38,283.183,44.195
54.41,283.569,44.528
54.44,283.499,44.322
54.48,282.376,43.863
54.51,281.534,43.76
54.54,281.393,43.68
54.57,280.621,43.279
54.61,278.831,42.603
54.64,277.673,42.42
54.67,277.708,42.317
54.7,276.971,41.801
54.74,274.901,41.355
54.77,273.251,41.286
54.8,272.198,40.919
54.83,270.9,40.438
54.87,269.18,40.014
54.9,267.706,39.739
54.93,266.443,39.43
54.96,265.144,39.132
55.0,263.39,38.903
55.03,261.635,38.777
55.06,260.161,38.628
55.09,258.897,38.433
55.13,257.423,38.17
55.16,255.879,37.987
55.19,254.37,37.838
55.22,252.756,37.643
55.26,251.141,37.448
55.29,249.457,37.288
55.32,247.737,37.001
55.35,245.912,36.772
55.39,244.333,36.738
55.42,242.719,36.486
55.45,240.753,36.234
55.48,238.998,36.142
55.52,237.209,35.81
55.55,235.138,35.455
55.58,233.032,35.272
55.61,231.137,35.088
55.65,229.453,34.985
55.68,227.838,34.79
55.71,226.013,34.447
55.74,224.294,34.401
55.78,222.749,34.344
55.81,220.714,34.023
55.84,218.433,33.874
55.88,216.748,33.771
55.91,215.063,33.404
55.94,212.817,33.152
55.97,210.712,33.049
56.01,208.817,32.843
56.04,206.886,32.648
56.07,204.745,32.35
56.1,202.64,31.995
56.14,200.639,31.812
56.17,198.499,31.445
56.2,196.288,31.148
56.23,194.463,31.148
56.27,192.567,30.804
56.3,190.251,30.426
56.33,188.075,30.346
56.36,185.864,29.945
56.4,183.372,29.498
56.43,181.091,29.303
56.46,178.74,28.879
56.49,176.248,28.593
56.53,173.967,28.513
56.56,171.651,28.1
56.59,169.229,27.642
56.62,166.983,27.276
56.66,164.211,26.657
56.69,161.263,26.164
56.72,158.736,25.89
56.75,156.314,25.477
56.79,153.682,25.019
56.82,150.699,24.595
56.85,147.926,24.091
56.88,145.224,23.724
56.92,141.96,22.911
56.95,138.802,22.487
56.98,136.24,22.235
57.01,133.713,21.559
57.05,130.659,21.009
57.08,127.571,20.54
57.11,124.588,20.185
57.14,121.5,19.738
57.18,118.376,19.131
57.21,114.902,18.466
57.24,111.462,17.882
57.27,108.058,17.275
57.31,104.794,16.53
57.34,101.25,15.786
57.37,97.424,15.202
57.4,93.81,14.606
57.44,90.265,13.907
57.47,86.79,13.208
57.5,83.211,12.452
57.53,79.491,11.811
57.57,75.981,11.261
57.6,72.507,10.745
57.63,69.138,10.23
57.66,65.733,9.783
57.7,62.259,9.279
57.73,58.749,8.855
57.76,55.591,8.408
57.8,52.151,7.87
57.83,48.677,7.4
57.86,45.203,7.057
57.89,41.939,6.621
57.93,38.605,6.209
57.96,36.955,5.418
57.99,39.938,3.437
58.02,43.413,-0.321
58.06,33.972,-1.787
58.09,27.094,-0.218
58.12,27.199,-0.389
58.15,21.443,-1.18
58.19,11.897,-1.42
58.22,2.597,-1.088
58.25,-3.58,-0.848
58.28,-9.125,-0.813
58.32,-14.319,-0.905
58.35,-19.197,-0.401
58.38,-16.039,-0.561
58.41,-14.143,-2.165
58.45,-19.092,-2.509
58.48,-23.444,-1.81
58.51,-26.286,-1.26
58.54,-27.795,-1.26
58.58,-30.147,-1.902
58.61,-33.832,-2.875
58.64,-38.745,-3.574
58.67,-42.851,-3.838
58.71,-45.694,-4.09
58.74,-47.835,-4.594
58.77,-50.572,-5.327
58.8,-53.941,-5.923
58.84,-57.486,-6.209
58.87,-60.469,-6.507
58.9,-63.382,-7.034
58.93,-66.786,-7.595
58.97,-70.436,-8.076
59.0,-73.875,-8.546
59.03,-76.999,-9.107
59.06,-80.157,-9.737
59.1,-83.421,-10.39
59.13,-86.826,-11.02
59.16,-90.265,-11.456
59.19,-93.283,-11.845
59.23,-96.021,-12.441
59.26,-99.074,-12.968
59.29,-102.408,-13.403
59.32,-105.707,-13.838
59.36,-108.585,-14.182
59.39,-111.322,-14.778
59.42,-114.551,-15.488
59.45,-117.885,-15.912
59.49,-121.008,-16.336
59.52,-123.921,-16.931
59.55,-126.939,-17.527
59.58,-130.133,-18.031
59.62,-133.432,-18.615
59.65,-136.485,-19.119
59.68,-139.503,-19.681
59.72,-142.381,-20.139
59.75,-145.47,-20.78
59.78,-148.909,-21.479
59.81,-151.822,-21.685
59.85,-154.103,-22.075
59.88,-157.051,-22.808
59.91,-160.596,-23.427
59.94,-163.684,-23.621
59.98,-166.211,-24.057
60.01,-169.194,-24.847
60.04,-172.318,-25.385
60.07,-174.809,-25.489
60.11,-177.301,-26.107
60.14,-180.319,-26.806
60.17,-183.408,-27.127
60.2,-186.04,-27.367
60.24,-188.531,-27.883
60.27,-191.058,-28.261
60.3,-193.445,-28.524
60.33,-195.445,-28.753
60.37,-197.586,-29.028
60.4,-199.937,-29.361
60.43,-202.289,-29.475
60.46,-204.114,-29.544
60.5,-205.763,-29.796
60.53,-207.413,-30.025
60.56,-209.238,-30.151
60.59,-211.063,-30.346
60.63,-213.028,-30.54
60.66,-214.888,-30.724
60.69,-216.713,-31.01
60.72,-218.503,-31.411
60.76,-220.258,-31.675
60.79,-221.872,-31.938
60.82,-223.521,-32.259
60.85,-225.452,-32.545
60.89,-227.277,-32.82
60.92,-228.786,-33.141
60.95,-230.47,-33.53
60.98,-232.295,-33.908
61.02,-233.945,-34.16
61.05,-235.419,-34.424
61.08,-236.893,-34.802
61.11,-238.823,-35.18
61.15,-240.648,-35.421
61.18,-241.911,-35.638
61.21,-243.069,-36.016
61.24,-244.649,-36.291
61.28,-246.123,-36.555
61.31,-247.491,-36.887
61.34,-248.93,-37.219
61.37,-250.475,-37.494
61.41,-252.089,-37.895
61.44,-253.598,-38.25
61.47,-255.107,-38.559
61.5,-256.616,-38.892
61.54,-257.88,-39.212
61.57,-258.932,-39.487
61.6,-260.196,-39.762
61.64,-261.6,-39.957
61.67,-262.828,-40.175
61.7,-263.951,-40.461
61.73,-265.144,-40.644
61.77,-266.232,-40.816
61.8,-267.32,-41.114
61.83,-268.513,-41.4
61.86,-269.672,-41.618
61.9,-270.795,-41.778
61.93,-271.637,-42.168
61.96,-272.83,-42.592
61.99,-274.094,-42.786
62.03,-274.901,-43.004
62.06,-275.603,-43.222
62.09,-276.585,-43.302
62.12,-277.287,-43.359
62.16,-277.814,-43.485
62.19,-278.691,-43.691
62.22,-279.604,-43.817
62.25,-280.025,-43.989
62.29,-280.516,-44.195
62.32,-281.253,-44.333
62.35,-281.815,-44.402
62.38,-282.341,-44.413
62.42,-282.657,-44.436
62.45,-282.832,-44.631
62.48,-283.043,-44.425
62.51,-283.078,-44.402
62.55,-283.394,-44.459
62.58,-283.324,-44.173
62.61,-282.622,-44.218
62.64,-282.516,-43.943
62.68,-282.446,-43.749
62.71,-282.341,-43.852
62.74,-282.341,-43.795
62.77,-281.709,-43.623
62.81,-281.113,-43.623
62.84,-280.832,-43.462
62.87,-280.305,-43.119
62.9,-279.393,-42.832
62.94,-278.375,-42.66
62.97,-277.603,-42.58
63.0,-277.217,-42.477
63.03,-276.48,-42.191
63.07,-275.111,-41.904
63.1,-273.708,-41.595
63.13,-272.444,-41.229
63.16,-271.111,-40.873
63.2,-269.707,-40.587
63.23,-268.373,-40.472
63.26,-267.355,-40.289
63.29,-266.092,-39.98
63.33,-264.618,-39.728
63.36,-262.968,-39.407
63.39,-261.143,-39.109
63.42,-259.634,-38.846
63.46,-258.125,-38.491
63.49,-256.335,-38.204
63.52,-254.826,-38.021
63.56,-253.107,-37.643
63.59,-251.106,-37.391
63.62,-249.352,-37.322
63.65,-247.281,-36.864
63.69,-245.526,-36.646
63.72,-244.508,-36.612
63.75,-242.719,-36.131
63.78,-240.437,-36.005
63.82,-239.139,-36.131
63.85,-237.735,-35.856
63.88,-235.629,-35.615
63.91,-233.559,-35.638
63.95,-231.909,-35.432
63.98,-230.119,-34.985
64.01,-228.049,-34.802
64.04,-226.154,-34.619
64.08,-224.399,-34.355
64.11,-222.574,-34.229
64.14,-220.714,-33.886
64.17,-218.327,-33.462
64.21,-215.871,-33.37
64.24,-214.291,-33.118
64.27,-212.361,-32.74
64.3,-210.115,-32.66
64.34,-208.29,-32.58
64.37,-206.676,-32.339
64.4,-204.675,-32.076
64.43,-202.324,-31.778
64.47,-199.973,-31.549
64.5,-198.148,-31.423
64.53,-196.288,-31.148
64.56,-194.077,-30.85
64.6,-191.971,-30.758
64.63,-190.146,-30.518
64.66,-187.865,-30.117
64.69,-185.443,-29.876
64.73,-183.197,-29.624
64.76,-180.811,-29.177
64.79,-178.424,-28.914
64.82,-176.494,-28.605
64.86,-174.142,-28.112
64.89,-171.44,-27.757
64.92,-168.913,-27.402
64.95,-166.386,-26.955
64.99,-163.719,-26.531
65.02,-160.982,-26.05
65.05,-158.49,-25.603
65.08,-156.174,-25.248
65.12,-153.682,-24.824
65.15,-150.734,-24.389
65.18,-147.856,-24.102
65.21,-145.049,-23.553
65.25,-141.82,-22.991
65.28,-138.837,-22.625
65.31,-136.275,-22.189
65.34,-133.713,-21.697
65.38,-130.94,-20.998
65.41,-127.747,-20.448
65.44,-124.553,-20.024
65.48,-121.605,-19.452
65.51,-118.201,-18.638
65.54,-114.27,-17.974
65.57,-110.655,-17.412
65.61,-107.181,-16.805
65.64,-103.882,-16.164
65.67,-100.793,-15.419
65.7,-97.249,-14.583
65.74,-93.388,-13.907
65.77,-89.563,-13.403
65.8,-85.948,-12.842
65.83,-82.614,-12.212
65.87,-79.21,-11.696
65.9,-75.806,-11.043
65.93,-72.296,-10.436
65.96,-69.067,-10.127
66.0,-65.839,-9.726
66.03,-62.54,-9.13
66.06,-59.065,-8.763
66.09,-55.731,-8.282
66.13,-52.116,-7.732
66.16,-49.133,-7.595
66.19,-46.852,-7.732
66.22,-44.606,-7.297
66.26,-41.132,-7.022
66.29,-39.201,-6.679
66.32,-41.798,-4.995
66.35,-48.572,-1.168
66.39,-42.746,2.154
66.42,-30.849,0.802
66.45,-29.936,0.218
66.48,-24.707,1.249
66.52,-13.722,1.673
66.55,-1.193,1.546
66.58,7.967,1.077
66.61,14.565,0.871
66.65,19.513,0.756
66.68,23.444,0.401
66.71,22.426,0.344
66.74,16.389,2.234
66.78,19.829,3.746
66.81,26.111,2.933
66.84,29.691,1.821
66.87,30.357,1.466
66.91,31.41,2.188
66.94,34.99,3.677
66.97,40.746,4.96
67.0,45.764,5.315
67.04,48.572,5.43
67.07,50.327,6.014
67.1,53.31,6.839
67.13,57.381,7.332
67.17,61.136,7.389
67.2,63.873,7.526
67.23,66.505,7.973
67.26,69.664,8.477
67.3,72.963,8.912
67.33,76.297,9.325
67.36,79.736,9.829
67.4,83.035,10.161
67.43,85.703,10.516
67.46,88.51,11.192
67.49,91.985,11.834
67.53,95.248,12.086
67.56,97.916,12.395
67.59,100.723,12.956
67.62,103.847,13.506
67.66,107.111,14.056
67.69,110.445,14.56
67.72,113.498,14.984
67.75,116.586,15.648
67.79,119.85,16.198
67.82,122.658,16.519
67.85,125.325,17.149
67.88,128.484,17.905
67.92,131.747,18.329
67.95,134.801,18.833
67.98,137.854,19.509
68.01,141.223,20.059
68.05,144.382,20.563
68.08,147.119,21.113
68.11,149.786,21.64
68.14,152.91,22.361
68.18,156.349,22.9
68.21,159.402,23.14
68.24,161.964,23.53
68.27,164.807,24.125
68.31,167.86,24.538
68.34,170.387,24.859
68.37,172.914,25.351
68.4,175.967,25.912
68.44,179.091,26.371
68.47,181.934,26.817
68.5,184.741,27.367
68.53,187.479,27.814
68.57,189.83,28.284
68.6,192.181,28.799
68.63,194.427,28.971
68.66,196.849,29.303
68.7,199.516,29.67
68.73,201.762,29.555
68.76,203.342,29.693
68.79,205.482,30.243
68.83,207.588,30.277
68.86,209.203,30.357
68.89,209.518,29.956
68.92,207.483,28.307
68.96,205.377,27.425
68.99,206.079,27.367
69.02,207.518,26.268
69.05,207.307,25.397
69.09,207.307,25.615
69.12,208.746,25.89
69.15,210.817,26.554
69.18,212.993,27.688
69.22,215.52,28.765
69.25,218.538,29.888
69.28,221.626,31.148
69.32,224.329,32.202
69.35,226.68,33.29
69.38,228.891,34.229
69.41,231.102,34.951
69.45,233.524,35.741
69.48,236.156,36.394
69.51,238.367,36.704
69.54,240.578,37.574
69.58,243.28,38.296
69.61,245.14,38.422
69.64,246.965,39.018
69.67,249.387,39.545
69.71,251.001,39.51
69.74,252.264,39.923
69.77,253.984,40.392
69.8,255.598,40.404
69.84,256.792,40.576
69.87,258.406,40.816
69.9,259.81,40.713
69.93,260.793,40.724
69.97,261.951,41.045
70.0,263.495,41.286
70.03,264.793,41.366
70.06,265.846,41.584
70.1,267.145,41.836
70.13,268.443,41.939
70.16,269.426,42.134
70.19,270.514,42.443
70.23,271.532,42.649
70.26,272.76,42.855
70.29,273.883,43.13
70.32,275.006,43.336
70.36,276.129,43.417
70.39,276.796,43.508
70.42,277.393,43.6
70.45,278.094,43.646
70.49,278.621,43.669
70.52,279.253,43.737
70.55,280.06,43.84
70.58,280.551,43.921
70.62,280.656,44.001
70.65,280.902,44.127
70.68,281.464,44.069
70.71,281.779,43.829
70.75,281.674,43.737
70.78,281.85,43.772
70.81,282.13,43.68
70.84,282.166,43.565
70.88,282.025,43.497
70.91,281.604,43.508
70.94,281.569,43.474
70.97,281.429,43.336
71.01,280.937,43.199
71.04,280.692,43.291
71.07,280.762,43.313
71.1,280.551,43.268
71.14,280.235,43.256
71.17,279.849,43.165
71.2,279.182,43.016
71.24,278.726,42.89
71.27,278.2,42.764
71.3,277.498,42.706
71.33,276.936,42.638
71.37,276.129,42.466
71.4,275.076,42.225
71.43,273.743,41.939
71.46,272.585,41.572
71.5,271.181,41.183
71.53,269.847,40.873
71.56,268.759,40.667
71.59,267.32,40.472
71.63,265.916,40.255
71.66,264.828,40.014
71.69,263.741,39.659
71.72,262.056,39.224
71.76,260.161,38.972
71.79,258.687,38.846
71.82,257.283,38.605
71.85,255.669,38.33
71.89,254.054,38.239
71.92,252.51,37.906
71.95,250.475,37.62
71.98,248.895,37.586
72.02,247.456,37.231
72.05,245.526,36.864
72.08,243.947,36.875
72.11,242.403,36.658
72.15,240.402,36.28
72.18,238.683,36.28
72.21,237.068,36.085
72.24,234.927,35.638
72.28,232.892,35.386
72.31,231.313,35.26
72.34,229.488,34.939
72.37,227.417,34.813
72.41,225.557,34.722
72.44,223.697,34.435
72.47,221.591,34.138
72.5,219.345,33.702
72.54,217.169,33.381
72.57,215.204,33.267
72.6,212.923,32.912
72.63,210.641,32.648
72.67,209.097,32.763
72.7,207.343,32.35
72.73,204.781,31.789
72.76,202.815,31.95
72.8,201.201,31.606
72.83,198.639,31.01
72.86,196.498,31.297
72.89,194.603,30.953
72.93,192.216,30.403
72.96,190.672,30.838
72.99,189.233,30.414
73.02,186.075,29.704
73.06,183.372,29.876
73.09,181.758,29.704
73.12,179.547,28.937
73.16,176.95,28.776
73.19,174.529,28.421
73.22,172.107,27.906
73.25,169.72,27.78
73.29,167.299,27.31
73.32,164.491,26.726
73.35,161.859,26.474
73.38,159.262,25.981
73.42,156.63,25.512
73.45,154.279,25.214
73.48,151.717,24.687
73.51,148.909,24.228
73.55,146.031,23.839
73.58,142.838,23.266
73.61,139.819,22.797
73.64,137.012,22.224
73.68,134.099,21.582
73.71,131.186,21.044
73.74,128.098,20.414
73.77,124.658,19.852
73.81,121.254,19.44
73.84,117.99,18.867
73.87,114.621,18.249
73.9,111.462,17.745
73.94,108.409,17.057
73.97,104.97,16.37
74.0,101.355,15.9
74.03,97.986,15.293
74.07,94.371,14.549
74.1,90.756,13.953
74.13,87.071,13.3
74.16,83.386,12.59
74.2,79.982,12.154
74.23,76.788,11.639
74.26,73.349,10.906
74.29,69.839,10.447
74.33,66.541,10.081
74.36,62.996,9.462
74.39,59.381,9.05
74.42,56.293,8.706
74.46,53.204,8.076
74.49,49.695,7.538
74.52,46.08,7.263
74.55,42.921,6.77
74.59,39.482,6.369
74.62,37.692,5.785
74.65,40.395,4.021
74.68,45.097,0.206
74.72,37.201,-1.867
74.75,28.673,-0.424
74.78,28.532,-0.298
74.81,23.409,-1.157
74.85,13.547,-1.478
74.88,3.229,-1.249
74.91,-4.141,-0.951
74.94,-10.213,-0.825
74.98,-15.512,-0.928
75.01,-20.952,-0.447
75.04,-17.828,-0.515
75.08,-15.126,-2.291
75.11,-20.004,-2.83
75.14,-24.742,-2.131
75.17,-27.55,-1.398
75.21,-28.497,-1.214
75.24,-30.287,-1.913
75.27,-33.691,-2.978
75.3,-38.289,-3.677
75.34,-42.184,-3.861
75.37,-45.062,-4.067
75.4,-47.273,-4.594
75.43,-50.151,-5.178
75.47,-53.766,-5.67
75.5,-57.346,-6.049
75.53,-60.434,-6.369
75.56,-63.417,-6.85
75.6,-66.786,-7.561
75.63,-70.612,-8.214
75.66,-74.086,-8.683
75.69,-77.28,-9.222
75.73,-80.298,-9.943
75.76,-83.562,-10.631
75.79,-86.896,-11.146
75.82,-90.195,-11.696
75.86,-93.494,-12.143
75.89,-96.442,-12.452
75.92,-99.074,-12.979
75.95,-102.197,-13.563
75.99,-105.531,-13.861
76.02,-108.76,-14.262
76.05,-111.813,-14.789
76.08,-114.656,-15.236
76.12,-117.569,-15.751
76.15,-120.798,-16.393
76.18,-123.956,-16.851
76.21,-126.729,-17.321
76.25,-129.607,-18.02
76.28,-132.59,-18.535
76.31,-135.854,-19.073
76.34,-139.188,-19.658
76.38,-142.101,-19.91
76.41,-144.838,-20.437
76.44,-148.067,-21.193
76.47,-151.19,-21.594
76.51,-153.998,-22.029
76.54,-156.876,-22.728
76.57,-160.104,-23.323
76.6,-163.052,-23.633
76.64,-165.72,-24.114
76.67,-168.422,-24.641
76.7,-171.054,-25.076
76.73,-174.037,-25.683
76.77,-177.301,-26.176
76.8,-180.038,-26.497
76.83,-182.811,-27.184
76.86,-185.548,-27.7
76.9,-188.075,-27.837
76.93,-190.392,-28.364
76.96,-192.848,-28.742
77.0,-194.849,-28.627
77.03,-196.989,-29.177
77.06,-199.832,-29.59
77.09,-202.078,-29.395
77.13,-203.798,-29.67
77.16,-205.693,-30.014
77.19,-207.307,-29.945
77.22,-208.852,-30.22
77.26,-210.852,-30.552
77.29,-212.712,-30.632
77.32,-214.537,-31.01
77.35,-216.678,-31.388
77.39,-218.643,-31.48
77.42,-220.117,-31.801
77.45,-222.012,-32.328
77.48,-223.697,-32.431
77.52,-225.171,-32.694
77.55,-227.136,-33.141
77.58,-229.382,-33.37
77.61,-231.032,-33.794
77.65,-232.576,-34.218
77.68,-234.261,-34.504
77.71,-235.699,-34.768
77.74,-237.349,-35.146
77.78,-239.209,-35.455
77.81,-240.753,-35.787
77.84,-242.017,-36.039
77.87,-243.28,-36.348
77.91,-245.035,-36.91
77.94,-246.719,-37.036
77.97,-247.667,-37.116
78.0,-249.211,-37.586
78.04,-251.001,-37.803
78.07,-252.194,-38.01
78.1,-253.563,-38.525
78.13,-255.283,-38.903
78.17,-256.721,-39.132
78.2,-257.95,-39.453
78.23,-258.897,-39.693
78.26,-260.231,-39.888
78.3,-261.53,-40.026
78.33,-262.758,-40.266
78.36,-264.021,-40.472
78.39,-264.934,-40.713
78.43,-265.846,-41.068
78.46,-267.004,-41.412
78.49,-268.408,-41.687
78.52,-269.566,-41.893
78.56,-270.549,-42.145
78.59,-271.742,-42.454
78.62,-272.795,-42.775
78.65,-273.778,-43.107
78.69,-274.796,-43.268
78.72,-275.708,-43.417
78.75,-276.691,-43.554
78.78,-277.463,-43.554
78.82,-277.884,-43.691
78.85,-278.656,-43.989
78.88,-279.463,-44.138
78.91,-280.025,-44.241
78.95,-280.621,-44.241
78.98,-281.113,-44.241
79.01,-281.464,-44.39
79.05,-281.393,-44.184
79.08,-281.148,-44.207
79.11,-281.709,-44.436
79.14,-282.306,-44.39
79.18,-282.236,-44.356
79.21,-282.446,-44.482
79.24,-282.727,-44.482
79.27,-282.481,-44.448
79.31,-282.166,-44.379
79.34,-282.201,-44.276
79.37,-282.166,-44.184
79.4,-281.885,-44.081
79.44,-281.429,-44.001
79.47,-281.078,-43.909
79.5,-280.551,-43.669
79.53,-279.428,-43.531
79.57,-278.621,-43.394
79.6,-278.13,-43.199
79.63,-277.463,-43.073
79.66,-276.971,-42.809
79.7,-276.234,-42.408
79.73,-274.901,-42.145
79.76,-273.322,-41.985
79.79,-272.304,-41.733
79.83,-271.251,-41.366
79.86,-269.847,-41.068
79.89,-268.549,-40.828
79.92,-267.32,-40.564
79.96,-265.846,-40.301
79.99,-264.442,-40.083
80.02,-263.074,-39.728
80.05,-261.424,-39.338
80.09,-259.74,-38.983
80.12,-258.231,-38.811
80.15,-256.651,-38.64
80.18,-254.861,-38.33
80.22,-253.247,-38.273
80.25,-252.124,-38.17
80.28,-249.983,-37.597
80.31,-247.562,-37.46
80.35,-246.614,-37.609
80.38,-245.245,-37.013
80.41,-242.964,-36.83
80.44,-241.455,-37.116
80.48,-240.227,-36.738
80.51,-238.261,-36.337
80.54,-236.436,-36.28
80.57,-234.401,-35.776
80.61,-231.839,-35.34
80.64,-230.119,-35.478
80.67,-228.961,-35.169
80.7,-226.926,-34.676
80.74,-224.75,-34.584
80.77,-222.82,-34.378
80.8,-220.854,-34.034
80.83,-218.678,-33.759
80.87,-216.397,-33.404
80.9,-214.256,-33.221
80.93,-212.326,-33.049
80.97,-210.115,-32.694
81.0,-208.15,-32.66
81.03,-206.606,-32.602
81.06,-204.359,-32.007
81.1,-201.973,-31.824
81.13,-200.043,-31.766
81.16,-197.937,-31.216
81.19,-195.726,-31.125
81.23,-194.041,-31.045
81.26,-192.006,-30.563
81.29,-189.584,-30.529
81.32,-187.584,-30.414
81.36,-185.408,-29.91
81.39,-182.951,-29.693
81.42,-180.46,-29.395
81.45,-178.003,-28.925
81.49,-176.003,-28.742
81.52,-174.002,-28.33
81.55,-171.265,-27.768
81.58,-168.562,-27.528
81.62,-166.246,-27.218
81.65,-163.579,-26.691
81.68,-160.876,-26.325
81.71,-158.42,-25.924
81.75,-156.209,-25.592
81.78,-153.296,-24.904
81.81,-149.997,-24.481
81.84,-147.26,-24.206
81.88,-144.908,-23.61
81.91,-141.96,-23.014
81.94,-138.521,-22.373
81.97,-135.503,-22.075
82.01,-133.081,-21.64
82.04,-130.519,-21.009
82.07,-127.431,-20.402
82.1,-124.097,-19.887
82.14,-120.728,-19.383
82.17,-117.534,-18.856
82.2,-114.481,-18.272
82.23,-111.322,-17.642
82.27,-107.918,-17.057
82.3,-104.654,-16.393
82.33,-101.18,-15.786
82.36,-97.495,-15.202
82.4,-93.88,-14.537
82.43,-90.23,-13.838
82.46,-86.615,-13.197
82.49,-83.176,-12.544
82.53,-79.666,-11.879
82.56,-76.122,-11.295
82.59,-72.682,-10.825
82.62,-69.138,-10.264
82.66,-65.523,-9.794
82.69,-62.259,-9.313
82.72,-59.206,-8.855
82.75,-56.012,-8.328
82.79,-52.783,-8.03
82.82,-49.59,-7.629
82.85,-46.115,-7.297
82.89,-42.957,-6.931
82.92,-39.201,-6.484
82.95,-36.534,-5.67
82.98,-38.71,-4.009
83.02,-43.764,-0.034
83.05,-34.358,2.142
83.08,-24.707,0.435
83.11,-24.672,0.298
83.15,-19.127,1.226
83.18,-9.055,1.512
83.21,1.334,1.214
83.24,7.791,0.813
83.28,12.704,0.71
83.31,17.091,0.825
83.34,21.443,0.309
83.37,17.758,0.424
83.41,13.406,2.417
83.44,18.671,3.059
83.47,23.584,1.925
83.5,26.076,1.02
83.54,26.918,0.848
83.57,28.954,1.627
83.6,32.814,2.807
83.63,38.184,3.551
83.67,43.027,3.643
83.7,46.431,3.735
83.73,48.572,4.273
83.76,51.309,5.155
83.8,54.573,5.934
83.83,58.012,6.61
83.86,61.241,7.125
83.89,64.575,7.572
83.93,67.804,8.122
83.96,71.278,8.66
83.99,74.718,9.142
84.02,77.911,9.657
84.06,81.14,10.264
84.09,84.299,10.86
84.12,87.457,11.352
84.15,90.686,11.788
84.19,93.95,12.235
84.22,96.758,12.59
84.25,99.39,12.991
84.28,102.408,13.586
84.32,105.777,14.079
84.35,108.9,14.377
84.38,111.813,14.938
84.41,114.902,15.591
84.45,118.13,16.118
84.48,121.219,16.679
84.51,124.237,17.195
84.54,127.185,17.745
84.58,130.379,18.386
84.61,133.467,18.776
84.64,136.45,19.36
84.67,139.468,19.898
84.71,142.697,20.494
84.74,145.996,21.021
84.77,148.839,21.353
84.81,151.331,21.811
84.84,153.928,22.315
84.87,157.051,22.9
84.9,159.964,23.266
84.94,162.491,23.621
84.97,165.263,24.217
85.0,168.352,24.733
85.03,171.335,25.053
85.07,173.827,25.512
85.1,176.389,26.107
85.13,179.337,26.588
85.16,182.39,27.024
85.2,185.057,27.447
85.23,187.444,27.848
85.26,189.83,28.352
85.29,192.322,28.65
85.33,194.427,28.857
85.36,196.498,29.189
85.39,198.814,29.406
85.42,200.99,29.406
85.46,202.534,29.521
85.49,203.763,29.429
85.52,204.71,29.212
85.55,205.904,29.235
85.59,207.799,29.349
85.62,209.729,29.372
85.65,211.343,29.624
85.68,213.203,30.151
85.72,215.45,30.838
85.75,217.52,31.308
85.78,219.521,31.835
85.81,221.872,32.511
85.85,224.258,33.129
85.88,226.645,33.656
85.91,228.891,34.275
85.94,231.067,34.848
85.98,233.313,35.409
86.01,235.278,35.741
86.04,236.717,35.913
86.07,238.297,36.188
86.11,240.192,36.497
86.14,241.841,36.589
86.17,243.105,36.761
86.2,244.473,37.116
86.24,245.877,37.231
86.27,247.07,37.345
86.3,248.369,37.597
86.33,249.738,37.757
86.37,251.141,37.895
86.4,252.545,38.147
86.43,253.949,38.376
86.46,255.283,38.651
86.5,256.581,39.041
86.53,258.02,39.293
86.56,259.038,39.522
86.59,260.161,39.911
86.63,261.74,40.198
86.66,263.179,40.392
86.69,264.372,40.553
86.73,265.355,40.759
86.76,266.618,41.08
86.79,267.847,41.332
86.82,268.97,41.698
86.86,270.058,42.065
86.89,271.251,42.374
86.92,272.479,42.592
86.95,273.637,42.832
86.99,274.76,43.061
87.02,275.603,43.233
87.05,276.41,43.405
87.08,277.182,43.531
87.12,277.708,43.703
87.15,278.445,43.886
87.18,279.358,43.943
87.21,280.095,44.15
87.25,280.621,44.356
87.28,281.148,44.425
87.31,281.885,44.448
87.34,282.446,44.505
87.38,282.832,44.528
87.41,283.078,44.574
87.44,283.429,44.78
87.47,284.377,45.078
87.51,284.306,44.78
87.54,283.534,44.596
87.57,283.64,44.677
87.6,284.061,44.402
87.64,283.64,44.241
87.67,283.113,44.092
87.7,283.043,44.024
87.73,283.148,43.978
87.77,282.727,43.909
87.8,282.166,43.852
87.83,281.779,43.76
87.86,281.218,43.531
87.9,280.341,43.302
87.93,279.498,43.084
87.96,279.042,42.844
87.99,278.13,42.569
88.03,276.761,42.282
88.06,275.392,41.996
88.09,274.129,41.675
88.12,272.76,41.32
88.16,271.216,40.942
88.19,269.847,40.472
88.22,268.443,40.129
88.25,267.004,39.9
88.29,265.53,39.579
88.32,263.811,39.281
88.35,262.056,39.086
88.38,260.652,38.811
88.42,259.073,38.376
88.45,257.143,38.17
88.48,255.528,38.055
88.51,253.949,37.769
88.55,252.264,37.597
88.58,250.58,37.483
88.61,248.86,37.127
88.65,247.105,36.921
88.68,245.526,36.772
88.71,243.912,36.452
88.74,241.876,36.303
88.78,240.157,36.245
88.81,238.612,36.039
88.84,236.823,35.799
88.87,234.717,35.512
88.91,232.541,35.18
88.94,230.856,35.226
88.97,229.453,35.008
89.0,227.347,34.607
89.04,225.136,34.596
89.07,223.697,34.642
89.1,222.398,34.401
89.13,220.609,34.183
89.17,218.538,34.034
89.2,216.573,33.931
89.23,214.818,33.851
89.26,212.888,33.702
89.3,211.098,33.496
89.33,209.413,33.29
89.36,207.413,32.958
89.39,204.991,32.694
89.43,202.815,32.568
89.46,200.85,32.213
89.49,198.779,31.812
89.52,196.814,31.663
89.56,194.743,31.251
89.59,192.497,31.033
89.62,190.392,30.907
89.65,188.04,30.369
89.69,185.689,30.071
89.72,183.618,29.807
89.75,181.267,29.212
89.78,178.705,29.005
89.82,176.74,28.879
89.85,174.423,28.352
89.88,171.616,27.997
89.91,168.983,27.745
89.95,166.632,27.253
89.98,164.0,26.795
90.01,161.263,26.371
90.04,158.701,25.935
90.08,156.139,25.569
90.11,153.331,25.088
90.14,150.348,24.423
90.17,147.681,23.942
90.21,144.662,23.461
90.24,141.364,22.797
90.27,138.24,22.522
90.3,135.854,22.109
90.34,133.292,21.64
90.37,130.379,21.09
90.4,127.185,20.448
90.43,123.886,20.013
90.47,120.657,19.612
90.5,117.534,19.028
90.53,114.27,18.398
90.57,111.041,17.836
90.6,107.707,17.252
90.63,104.198,16.645
90.66,100.723,16.084
90.7,97.424,15.419
90.73,93.88,14.778
90.76,90.335,14.09
90.79,86.79,13.334
90.83,83.141,12.704
90.86,79.666,12.074
90.89,76.262,11.387
90.92,72.647,10.86
90.96,69.278,10.447
90.99,65.944,9.898
91.02,62.645,9.336
91.05,59.03,8.844
91.09,55.521,8.489
91.12,52.257,8.202
91.15,49.379,7.71
91.18,45.869,7.171
91.22,42.43,6.747
91.25,38.745,6.472
91.28,36.71,5.877
91.31,38.956,4.239
91.35,44.185,0.596
91.38,37.517,-1.89
91.41,27.936,-0.607
91.44,27.409,-0.229
91.48,23.022,-1.054
91.51,13.477,-1.535
91.54,2.492,-1.283
91.57,-4.703,-0.905
91.61,-10.634,-0.836
91.64,-15.933,-0.905
91.67,-21.233,-0.458
91.7,-18.495,-0.355
91.74,-15.056,-1.993
91.77,-19.337,-2.669
91.8,-23.9,-2.039
91.83,-26.743,-1.317
91.87,-27.901,-1.1
91.9,-29.761,-1.684
91.93,-33.2,-2.772
91.96,-38.078,-3.551
92.0,-42.325,-3.757
92.03,-45.378,-3.987
92.06,-47.694,-4.571
92.09,-50.642,-5.258
92.13,-54.117,-5.819
92.16,-57.837,-6.266
92.19,-60.995,-6.656
92.22,-63.979,-7.16
92.26,-67.207,-7.836
92.29,-70.857,-8.523
92.32,-74.402,-8.993
92.35,-77.596,-9.474
92.39,-80.649,-10.104
92.42,-83.983,-10.688
92.45,-87.352,-11.146
92.49,-90.475,-11.639
92.52,-93.494,-12.086
92.55,-96.301,-12.509
92.58,-99.214,-13.025
92.62,-102.373,-13.552
92.65,-105.566,-13.907
92.68,-108.655,-14.308
92.71,-111.708,-14.846
92.75,-114.656,-15.305
92.78,-117.709,-15.809
92.81,-120.763,-16.439
92.84,-123.886,-16.908
92.88,-126.799,-17.435
92.91,-129.887,-18.02
92.94,-133.011,-18.569
92.97,-136.205,-19.119
93.01,-139.609,-19.898
93.04,-142.802,-20.185
93.07,-145.505,-20.586
93.1,-148.418,-21.422
93.14,-151.682,-21.983
93.17,-154.7,-22.419
93.2,-157.542,-22.98
93.23,-160.561,-23.541
93.27,-163.579,-24.034
93.3,-166.527,-24.469
93.33,-169.124,-24.87
93.36,-171.721,-25.351
93.4,-174.879,-25.89
93.43,-177.827,-26.187
93.46,-180.74,-26.669
93.49,-183.583,-27.241
93.53,-185.829,-27.47
93.56,-187.724,-27.86
93.59,-190.532,-28.593
93.62,-193.34,-28.776
93.66,-195.2,-28.616
93.69,-197.025,-29.074
93.72,-199.657,-29.532
93.75,-201.903,-29.59
93.79,-203.412,-29.704
93.82,-205.132,-30.014
93.85,-207.378,-30.334
93.88,-209.764,-30.472
93.92,-211.133,-30.334
93.95,-212.361,-30.724
93.98,-214.572,-31.262
94.01,-216.959,-31.4
94.05,-218.433,-31.457
94.08,-220.117,-31.904
94.11,-222.083,-32.247
94.14,-223.662,-32.339
94.18,-224.89,-32.694
94.21,-226.75,-33.164
94.24,-228.786,-33.336
94.27,-230.4,-33.588
94.31,-232.085,-34.08
94.34,-233.91,-34.412
94.37,-235.313,-34.607
94.41,-236.717,-34.974
94.44,-238.472,-35.421
94.47,-240.262,-35.65
94.5,-241.595,-35.856
94.54,-243.034,-36.326
94.57,-244.649,-36.669
94.6,-246.123,-36.852
94.63,-247.562,-37.093
94.67,-248.965,-37.46
94.7,-250.545,-37.78
94.73,-252.054,-38.101
94.76,-253.563,-38.502
94.8,-255.247,-38.846
94.83,-256.476,-39.109
94.86,-257.458,-39.419
94.89,-258.757,-39.716
94.93,-260.02,-39.945
94.96,-261.319,-40.129
94.99,-262.582,-40.358
95.02,-263.811,-40.621
95.06,-264.899,-40.839
95.09,-265.952,-41.08
95.12,-267.004,-41.435
95.15,-268.233,-41.733
95.19,-269.391,-41.973
95.22,-270.514,-42.225
95.25,-271.777,-42.512
95.28,-273.006,-42.764
95.32,-273.883,-43.107
95.35,-274.831,-43.382
95.38,-275.638,-43.531
95.41,-276.445,-43.669
95.45,-277.252,-43.691
95.48,-277.779,-43.772
95.51,-278.445,-44.035
95.54,-279.498,-44.173
95.58,-280.165,-44.161
95.61,-280.341,-44.344
95.64,-280.797,-44.608
95.67,-281.253,-44.516
95.71,-281.709,-44.356
95.74,-282.236,-44.436
95.77,-282.516,-44.482
95.8,-282.727,-44.528
95.84,-282.938,-44.574
95.87,-283.183,-44.642
95.9,-283.394,-44.528
95.93,-282.938,-44.505
95.97,-282.622,-44.493
96.0,-282.692,-44.344
96.03,-282.376,-44.23
96.06,-282.13,-44.207
96.1,-282.095,-43.955
96.13,-281.499,-43.68
96.16,-280.446,-43.577
96.19,-279.709,-43.417
96.23,-278.972,-43.187
96.26,-278.41,-42.958
96.29,-277.603,-42.775
96.33,-276.691,-42.626
96.36,-275.603,-42.534
96.39,-274.936,-42.34
96.42,-273.883,-41.927
96.46,-272.269,-41.572
96.49,-270.9,-41.274
96.52,-269.707,-40.954
96.55,-268.513,-40.69
96.59,-267.18,-40.484
96.62,-265.706,-40.209
96.65,-264.091,-39.991
96.68,-262.863,-39.705
96.72,-261.389,-39.235
96.75,-259.459,-38.88
96.78,-257.915,-38.731
96.81,-256.651,-38.514
96.85,-254.826,-38.193
96.88,-253.212,-38.078
96.91,-251.703,-37.941
96.94,-249.702,-37.528
96.98,-247.597,-37.208
97.01,-246.123,-37.185
97.04,-244.438,-36.91
97.07,-242.754,-36.692
97.11,-241.104,-36.543
97.14,-239.034,-36.2
97.17,-237.349,-36.154
97.2,-235.91,-36.005
97.24,-233.804,-35.547
97.27,-231.628,-35.34
97.3,-229.979,-35.226
97.33,-227.873,-34.813
97.37,-225.592,-34.573
97.4,-224.188,-34.573
97.43,-222.679,-34.241
97.46,-220.047,-33.943
97.5,-217.801,-33.84
97.53,-216.151,-33.622
97.56,-214.326,-33.336
97.59,-212.256,-33.049
97.63,-209.94,-32.809
97.66,-208.08,-32.786
97.69,-206.465,-32.591
97.72,-204.289,-32.179
97.76,-202.008,-31.961
97.79,-199.973,-31.755
97.82,-197.972,-31.388
97.85,-195.866,-31.274
97.89,-194.147,-31.113
97.92,-192.322,-30.712
97.95,-190.041,-30.529
97.98,-187.724,-30.254
98.02,-185.303,-29.888
98.05,-182.951,-29.635
98.08,-180.6,-29.246
98.11,-178.389,-28.845
98.15,-176.353,-28.547
98.18,-173.967,-28.146
98.21,-171.265,-27.757
98.25,-168.668,-27.47
98.28,-166.316,-27.138
98.31,-163.965,-26.646
98.34,-161.192,-26.119
98.38,-158.665,-25.718
98.41,-156.279,-25.454
98.44,-153.331,-24.79
98.47,-150.172,-24.343
98.51,-147.47,-24.057
98.54,-145.049,-23.484
98.57,-142.206,-22.923
98.6,-138.872,-22.281
98.64,-135.783,-21.995
98.67,-133.151,-21.605
98.7,-130.589,-20.964
98.73,-127.501,-20.391
98.77,-124.062,-19.91
98.8,-120.833,-19.417
98.83,-117.815,-18.821
98.86,-114.586,-18.203
98.9,-111.322,-17.561
98.93,-107.883,-16.943
98.96,-104.478,-16.313
98.99,-101.074,-15.694
99.03,-97.495,-15.075
99.06,-93.81,-14.423
99.09,-90.195,-13.724
99.12,-86.755,-13.082
99.16,-83.351,-12.429
99.19,-79.771,-11.73
99.22,-76.227,-11.158
99.25,-72.682,-10.745
99.29,-69.138,-10.173
99.32,-65.523,-9.703
99.35,-62.505,-9.302
99.38,-59.206,-8.695
99.42,-55.696,-8.111
99.45,-52.046,-7.836
99.48,-48.747,-7.377
99.51,-45.483,-6.965
99.55,-42.5,-6.587
99.58,-38.85,-6.049
99.61,-35.867,-5.315
99.64,-37.271,-4.021
99.68,-43.027,-0.424
99.71,-35.271,2.131
99.74,-24.883,0.515
99.77,-25.233,0.149
99.81,-20.952,1.123
99.84,-11.301,1.489
99.87,-0.842,1.26
99.9,6.142,0.871
99.94,11.336,0.733
99.97,16.284,0.939
100.0,21.584,0.447
100.03,19.127,0.286
100.07,13.898,2.211
100.1,18.636,3.208
100.13,24.04,2.211
100.17,27.023,1.226
100.2,27.831,0.916
100.23,29.48,1.569
100.26,32.99,2.761
100.3,38.113,3.608
100.33,42.711,3.78
100.36,45.834,3.895
100.39,48.045,4.525
100.43,50.853,5.338
100.46,54.398,6.003
100.49,58.153,6.495
100.52,61.382,6.885
100.56,64.365,7.4
100.59,67.593,8.053
100.62,71.243,8.649
100.65,74.648,9.119
100.69,77.596,9.6
100.72,80.754,10.207
100.75,83.983,10.825
100.78,87.317,11.249
100.82,90.475,11.662
100.85,93.529,12.166
100.88,96.407,12.544
100.91,99.249,12.968
100.95,102.338,13.518
100.98,105.637,13.918
101.01,108.62,14.297
101.04,111.603,14.892
101.08,114.691,15.431
101.11,117.709,15.923
101.14,120.798,16.519
101.17,123.816,16.989
101.21,126.659,17.435
101.24,129.607,18.065
101.27,132.906,18.512
101.3,136.345,19.188
101.34,139.468,19.715
101.37,142.381,20.219
101.4,145.294,20.883
101.43,148.558,21.525
101.47,151.611,21.949
101.5,154.068,22.27
101.53,156.981,22.991
101.56,160.28,23.392
101.6,163.087,23.621
101.63,165.614,24.148
101.66,168.457,24.71
101.69,171.405,25.053
101.73,174.178,25.477
101.76,176.88,26.05
101.79,179.793,26.554
101.82,182.6,27.024
101.86,185.373,27.551
101.89,187.935,27.974
101.92,190.321,28.295
101.95,192.743,28.605
101.99,195.024,28.822
102.02,197.13,28.96
102.05,199.236,29.315
102.09,201.306,29.578
102.12,203.377,29.658
102.15,205.096,29.784
102.18,206.606,29.842
102.22,208.115,29.945
102.25,210.115,30.243
102.28,212.326,30.472
102.31,214.256,30.598
102.35,216.187,31.056
102.38,218.398,31.686
102.41,220.503,31.984
102.44,222.153,32.373
102.48,223.978,32.855
102.51,225.873,33.244
102.54,227.838,33.553
102.57,229.382,33.759
102.61,230.997,34.057
102.64,232.997,34.435
102.67,234.647,34.527
102.7,235.84,34.573
102.74,237.384,35.02
102.77,239.034,35.272
102.8,240.367,35.398
102.83,241.946,35.925
102.87,243.806,36.222
102.9,245.28,36.348
102.93,246.544,36.818
102.96,247.913,37.001
103.0,249.106,37.127
103.03,250.685,37.631
103.06,252.475,37.826
103.09,253.773,37.952
103.13,255.107,38.479
103.16,256.616,38.88
103.19,257.669,39.075
103.22,258.897,39.441
103.26,260.406,39.739
103.29,261.705,39.842
103.32,262.688,40.198
103.35,264.127,40.633
103.39,265.39,40.724
103.42,266.583,40.976
103.45,268.057,41.194
103.48,269.18,41.355
103.52,270.058,41.721
103.55,271.146,42.134
103.58,272.304,42.386
103.61,273.392,42.649
103.65,274.515,42.97
103.68,275.603,43.153
103.71,276.515,43.187
103.74,277.217,43.302
103.78,277.673,43.405
103.81,278.094,43.474
103.84,278.937,43.611
103.87,279.849,43.646
103.91,280.376,43.737
103.94,280.797,43.921
103.97,281.148,44.058
104.01,281.499,44.127
104.04,281.99,44.047
104.07,282.411,43.921
104.1,282.481,44.001
104.14,282.727,44.264
104.17,283.043,44.31
104.2,283.359,44.299
104.23,283.464,44.218
104.27,283.218,44.069
104.3,283.148,44.115
104.33,283.043,44.104
104.36,282.727,43.989
104.4,282.867,44.024
104.43,282.727,44.035
104.46,281.92,43.76
104.49,280.937,43.577
104.53,280.341,43.348
104.56,279.919,43.13
104.59,278.902,42.683
104.62,277.779,42.397
104.66,276.971,42.202
104.69,276.234,41.881
104.72,275.076,41.538
104.75,273.708,41.229
104.79,272.374,40.908
104.82,270.865,40.656
104.85,269.461,40.392
104.88,268.233,40.094
104.92,266.899,39.774
104.95,265.355,39.567
104.98,263.705,39.35
105.01,262.337,39.075
105.05,261.003,38.834
105.08,259.529,38.571
105.11,257.774,38.307
105.14,256.195,38.227
105.18,254.861,38.055
105.21,252.966,37.769
105.24,251.212,37.746
105.27,250.053,37.54
105.31,248.334,37.024
105.34,246.263,36.841
105.37,244.754,36.784
105.4,242.824,36.394
105.44,240.578,36.28
105.47,239.384,36.371
105.5,237.91,35.97
105.53,235.349,35.581
105.57,233.173,35.466
105.6,231.944,35.352
105.63,230.4,34.997
105.66,228.294,34.79
105.7,226.469,34.676
105.73,225.031,34.584
105.76,223.311,34.435
105.79,220.995,34.138
105.83,218.889,33.966
105.86,217.31,33.771
105.89,215.099,33.324
105.93,212.993,33.118
105.96,211.343,32.992
105.99,209.203,32.602
106.02,206.851,32.488
106.06,204.956,32.362
106.09,202.605,31.732
106.12,200.148,31.503
106.15,198.393,31.457
106.19,196.217,30.861
106.22,193.866,30.758
106.25,192.181,30.907
106.28,190.111,30.277
106.32,187.584,30.059
106.35,185.619,30.059
106.38,183.337,29.406
106.41,180.635,29.12
106.45,178.424,29.086
106.48,176.353,28.547
106.51,173.967,28.261
106.54,171.651,28.02
106.58,169.089,27.459
106.61,166.597,27.207
106.64,164.175,26.783
106.67,161.157,26.05
106.71,158.315,25.855
106.74,155.998,25.523
106.77,153.542,24.87
106.8,150.594,24.377
106.84,147.716,23.954
106.87,144.803,23.495
106.9,141.75,22.9
106.93,138.731,22.43
106.97,135.854,21.937
107.0,133.046,21.514
107.03,130.133,20.964
107.06,127.15,20.517
107.1,124.202,20.093
107.13,121.149,19.555
107.16,117.85,19.039
107.19,114.516,18.478
107.23,111.076,17.836
107.26,107.848,17.321
107.29,104.619,16.656
107.32,100.864,15.9
107.36,97.284,15.339
107.39,93.985,14.778
107.42,90.511,13.953
107.45,86.685,13.266
107.49,83.141,12.784
107.52,79.666,12.051
107.55,76.157,11.364
107.58,72.787,10.997
107.62,69.629,10.425
107.65,66.119,9.783
107.68,62.68,9.451
107.71,59.311,8.993
107.75,55.942,8.454
107.78,52.678,8.133
107.81,49.554,7.652
107.85,45.799,7.068
107.88,42.36,6.724
107.91,38.815,6.392
107.94,36.324,5.625
107.98,37.622,4.147
108.01,42.921,0.71
108.04,36.604,-1.947
108.07,26.427,-0.619
108.11,26.462,-0.103
108.14,22.882,-0.997
108.17,13.757,-1.466
108.2,3.51,-1.214
108.24,-3.404,-0.882
108.27,-9.125,-0.813
108.3,-14.459,-0.951
108.33,-20.39,-0.527
108.37,-18.25,-0.424
108.4,-14.6,-2.222
108.43,-19.373,-3.047
108.46,-24.672,-2.291
108.5,-27.585,-1.34
108.53,-28.392,-1.054
108.56,-30.042,-1.776
108.59,-33.551,-2.944
108.63,-38.394,-3.723
108.66,-42.851,-3.952
108.69,-45.764,-4.17
108.72,-48.045,-4.731
108.76,-51.064,-5.522
108.79,-54.854,-6.152
108.82,-58.574,-6.495
108.85,-61.592,-6.885
108.89,-64.645,-7.515
108.92,-67.944,-8.156
108.95,-71.489,-8.66
108.98,-74.788,-9.13
109.02,-78.017,-9.646
109.05,-81.245,-10.081
109.08,-84.439,-10.505
109.11,-87.633,-11.043
109.15,-90.651,-11.478
109.18,-93.564,-11.891
109.21,-96.582,-12.452
109.24,-99.565,-12.853
109.28,-102.513,-13.22
109.31,-105.672,-13.666
109.34,-108.725,-14.056
109.37,-111.568,-14.491
109.41,-114.832,-15.121
109.44,-118.095,-15.58
109.47,-120.798,-16.038
109.5,-123.64,-16.748
109.54,-126.729,-17.298
109.57,-129.887,-17.756
109.6,-133.257,-18.421
109.63,-136.45,-18.89
109.67,-139.433,-19.566
109.7,-142.276,-20.196
109.73,-145.189,-20.712
109.77,-148.172,-21.261
109.8,-151.401,-21.834
109.83,-154.559,-22.304
109.86,-157.402,-22.636
109.9,-160.35,-23.323
109.93,-163.579,-23.931
109.96,-166.527,-24.16
109.99,-169.054,-24.584
110.03,-171.756,-25.248
110.06,-174.458,-25.523
110.09,-177.196,-25.958
110.12,-180.354,-26.703
110.16,-183.267,-26.943
110.19,-185.583,-27.241
110.22,-188.216,-27.986
110.25,-190.778,-28.158
110.29,-192.848,-28.284
110.32,-195.164,-28.857
110.35,-197.375,-28.948
110.38,-199.2,-29.097
110.42,-201.587,-29.704
110.45,-204.044,-29.67
110.48,-205.482,-29.613
110.51,-207.237,-30.059
110.55,-209.238,-30.128
110.58,-210.887,-30.174
110.61,-212.747,-30.609
110.64,-214.642,-30.861
110.68,-216.573,-31.113
110.71,-218.608,-31.491
110.74,-220.258,-31.663
110.77,-221.696,-31.95
110.81,-223.521,-32.396
110.84,-225.417,-32.625
110.87,-227.171,-32.889
110.9,-228.821,-33.164
110.94,-230.576,-33.553
110.97,-232.506,-34.103
111.0,-234.401,-34.309
111.03,-235.594,-34.378
111.07,-237.068,-34.928
111.1,-238.998,-35.249
111.13,-240.227,-35.18
111.16,-241.631,-35.638
111.2,-243.561,-36.2
111.23,-244.93,-36.245
111.26,-246.017,-36.669
111.29,-247.807,-37.219
111.33,-249.352,-37.276
111.36,-250.51,-37.62
111.39,-252.159,-38.181
111.42,-253.984,-38.353
111.46,-255.423,-38.628
111.49,-256.757,-39.098
111.52,-258.02,-39.27
111.55,-259.108,-39.476
111.59,-260.266,-39.797
111.62,-261.424,-39.957
111.65,-262.617,-40.243
111.69,-264.197,-40.495
111.72,-265.425,-40.507
111.75,-266.197,-40.816
111.78,-267.285,-41.251
111.82,-268.724,-41.446
111.85,-269.672,-41.641
111.88,-270.724,-41.95
111.91,-271.812,-42.225
111.95,-272.935,-42.523
111.98,-274.094,-42.729
112.01,-274.971,-42.924
112.04,-275.708,-43.153
112.08,-276.55,-43.302
112.11,-277.357,-43.336
112.14,-277.919,-43.394
112.17,-278.656,-43.657
112.21,-279.709,-43.806
112.24,-280.2,-43.875
112.27,-280.516,-44.035
112.3,-281.042,-44.207
112.34,-281.393,-44.15
112.37,-281.604,-44.081
112.4,-282.166,-44.276
112.43,-282.692,-44.299
112.47,-282.867,-44.333
112.5,-283.043,-44.448
112.53,-283.218,-44.516
112.56,-283.078,-44.505
112.6,-283.148,-44.459
112.63,-283.113,-44.207
112.66,-282.797,-44.012
112.69,-282.587,-43.932
112.73,-282.481,-43.795
112.76,-282.095,-43.543
112.79,-281.288,-43.451
112.82,-280.411,-43.371
112.86,-279.709,-43.222
112.89,-279.253,-42.981
112.92,-278.445,-42.683
112.95,-277.498,-42.512
112.99,-276.901,-42.351
113.02,-275.989,-42.122
113.05,-274.936,-41.87
113.08,-273.743,-41.561
113.12,-272.304,-41.194
113.15,-270.795,-40.885
113.18,-269.707,-40.644
113.21,-268.584,-40.324
113.25,-266.899,-40.037
113.28,-265.39,-39.9
113.31,-264.372,-39.716
113.34,-262.968,-39.35
113.38,-261.108,-39.018
113.41,-259.494,-38.811
113.44,-257.88,-38.491
113.47,-256.16,-38.239
113.51,-254.861,-38.227
113.54,-253.633,-37.838
113.57,-251.247,-37.322
113.61,-249.316,-37.471
113.64,-248.053,-37.208
113.67,-245.877,-36.497
113.7,-243.877,-36.612
113.74,-243.105,-36.589
113.77,-241.139,-35.936
113.8,-238.612,-35.993
113.83,-237.489,-36.222
113.87,-236.05,-35.707
113.9,-233.664,-35.478
113.93,-231.909,-35.432
113.96,-230.33,-35.008
114.0,-228.224,-34.722
114.03,-226.048,-34.47
114.06,-224.153,-34.286
114.09,-222.539,-34.149
114.13,-220.328,-33.725
114.16,-217.696,-33.359
114.19,-215.871,-33.393
114.22,-214.291,-33.084
114.26,-211.975,-32.625
114.29,-210.045,-32.717
114.32,-208.466,-32.476
114.35,-206.29,-32.007
114.39,-204.079,-32.098
114.42,-202.008,-31.835
114.45,-199.516,-31.354
114.48,-197.797,-31.537
114.52,-196.323,-31.148
114.55,-193.831,-30.552
114.58,-191.795,-30.793
114.61,-190.005,-30.598
114.65,-187.584,-30.059
114.68,-185.373,-30.036
114.71,-183.267,-29.578
114.74,-180.495,-28.937
114.78,-178.038,-28.937
114.81,-176.178,-28.57
114.84,-174.037,-28.009
114.87,-171.44,-27.803
114.91,-168.913,-27.344
114.94,-166.176,-26.955
114.97,-163.789,-26.703
115.0,-161.192,-26.05
115.04,-158.42,-25.626
115.07,-156.104,-25.489
115.1,-153.261,-24.733
115.13,-150.102,-24.286
115.17,-147.505,-24.045
115.2,-145.084,-23.392
115.23,-142.241,-22.957
115.26,-138.977,-22.396
115.3,-135.959,-22.029
115.33,-133.537,-21.594
115.36,-130.73,-20.918
115.39,-127.361,-20.334
115.43,-124.237,-19.898
115.46,-121.114,-19.36
115.49,-117.639,-18.741
115.53,-114.305,-18.249
115.56,-111.041,-17.687
115.59,-107.777,-17.023
115.62,-104.549,-16.324
115.66,-101.074,-15.625
115.69,-97.389,-14.949
115.72,-93.634,-14.377
115.75,-90.16,-13.747
115.79,-86.755,-12.991
115.82,-82.93,-12.28
115.85,-79.245,-11.776
115.88,-76.016,-11.226
115.92,-72.787,-10.608
115.95,-69.313,-10.069
115.98,-65.628,-9.634
116.01,-62.224,-9.13
116.05,-58.925,-8.718
116.08,-55.661,-8.225
116.11,-52.011,-7.675
116.14,-48.712,-7.24
116.18,-45.413,-6.896
116.21,-42.255,-6.255
116.24,-38.254,-5.854
116.27,-35.271,-5.476
116.31,-36.604,-4.33
116.34,-42.781,-0.653
116.37,-35.622,2.154
116.4,-24.812,0.607
116.44,-24.777,0.172
116.47,-20.566,1.065
116.5,-11.617,1.42
116.53,-1.509,1.249
116.57,5.51,0.871
116.6,10.704,0.745
