Trigger_Date,2023/06/19
Trigger_Time,T 13:58:25.089 PDT
Samples_Per_Cycle,512
Microseconds_Per_Sample,32.558
Time (ms),Voltage (V),Current (A)
-16.67,13.617,0.447
-16.64,16.425,0.401
-16.6,20.004,0.619
-16.57,14.389,1.799
-16.54,14.74,1.661
-16.51,20.636,2.36
-16.47,24.812,1.902
-16.44,27.374,0.802
-16.41,28.603,0.962
-16.38,30.673,1.306
-16.34,33.867,1.97
-16.31,38.359,2.6
-16.28,42.992,2.761
-16.25,47.028,2.658
-16.21,50.362,2.646
-16.18,53.204,2.612
-16.15,56.012,2.784
-16.12,59.241,3.139
-16.08,62.715,3.402
-16.05,66.26,3.597
-16.02,69.804,3.769
-15.99,73.279,3.918
-15.95,76.543,4.09
-15.92,79.701,4.193
-15.89,82.79,4.365
-15.86,85.878,4.628
-15.82,89.107,4.823
-15.79,91.949,4.96
-15.76,94.547,5.258
-15.73,97.284,5.499
-15.69,99.986,5.785
-15.66,103.004,6.14
-15.63,106.163,6.381
-15.6,109.251,6.679
-15.56,112.41,7.057
-15.53,115.569,7.412
-15.5,118.517,7.675
-15.47,121.64,8.053
-15.43,124.728,8.237
-15.4,127.501,8.477
-15.37,130.309,8.867
-15.33,133.257,9.187
-15.3,136.555,9.68
-15.27,139.925,10.001
-15.24,142.978,10.195
-15.2,145.68,10.47
-15.17,148.347,10.814
-15.14,151.331,11.112
-15.11,154.279,11.41
-15.07,157.332,11.662
-15.04,160.28,11.983
-15.01,163.158,12.303
-14.98,166.0,12.59
-14.94,168.913,12.968
-14.91,171.861,13.197
-14.88,174.669,13.518
-14.85,177.617,13.896
-14.81,180.46,14.067
-14.78,183.092,14.285
-14.75,185.794,14.606
-14.72,188.356,14.686
-14.68,190.742,14.892
-14.65,192.989,15.041
-14.62,195.2,15.167
-14.59,197.621,15.362
-14.55,200.043,15.35
-14.52,202.219,15.465
-14.49,204.149,15.568
-14.46,206.149,15.591
-14.42,208.08,15.728
-14.39,209.975,15.763
-14.36,211.94,15.854
-14.33,213.905,16.026
-14.29,215.836,16.026
-14.26,217.59,16.141
-14.23,219.31,16.301
-14.2,221.065,16.416
-14.16,222.82,16.473
-14.13,224.504,16.622
-14.1,226.118,16.748
-14.07,227.768,16.897
-14.03,229.453,17.08
-14.0,231.067,17.298
-13.97,232.962,17.573
-13.93,234.752,17.768
-13.9,236.226,17.871
-13.87,237.7,18.134
-13.84,239.349,18.375
-13.8,240.788,18.386
-13.77,242.087,18.604
-13.74,243.701,18.89
-13.71,245.386,18.982
-13.67,246.649,19.085
-13.64,247.878,19.314
-13.61,249.141,19.509
-13.58,250.51,19.772
-13.54,252.124,20.059
-13.51,253.668,20.196
-13.48,255.037,20.471
-13.45,256.335,20.666
-13.41,257.494,20.746
-13.38,258.546,20.918
-13.35,259.81,21.032
-13.32,261.073,21.216
-13.28,262.267,21.399
-13.25,263.39,21.491
-13.22,264.513,21.72
-13.19,265.776,21.926
-13.15,266.934,22.166
-13.12,267.987,22.441
-13.09,269.005,22.545
-13.06,269.917,22.682
-13.02,271.04,22.945
-12.99,272.269,22.968
-12.96,273.286,23.152
-12.93,274.234,23.495
-12.89,275.076,23.564
-12.86,275.883,23.793
-12.83,276.761,23.816
-12.8,277.463,23.805
-12.76,278.305,24.011
-12.73,279.077,24.034
-12.7,279.709,24.091
-12.67,280.13,24.251
-12.63,280.656,24.263
-12.6,281.393,24.389
-12.57,281.744,24.332
-12.53,281.99,24.251
-12.5,282.587,24.492
-12.47,283.289,24.618
-12.44,283.464,24.515
-12.4,283.359,24.549
-12.37,283.499,24.733
-12.34,283.604,24.572
-12.31,283.218,24.412
-12.27,282.797,24.366
-12.24,282.797,24.194
-12.21,283.008,24.206
-12.18,282.727,23.919
-12.14,281.885,23.667
-12.11,281.078,23.644
-12.08,280.481,23.507
-12.05,279.814,23.358
-12.01,279.182,23.175
-11.98,278.516,22.957
-11.95,277.498,22.831
-11.92,276.445,22.671
-11.88,275.462,22.43
-11.85,274.409,22.075
-11.82,273.041,21.834
-11.79,271.532,21.674
-11.75,270.128,21.365
-11.72,268.794,21.25
-11.69,267.601,21.055
-11.66,266.092,20.735
-11.62,264.478,20.54
-11.59,262.863,20.425
-11.56,261.389,20.299
-11.53,259.81,20.173
-11.49,258.16,20.013
-11.46,256.511,19.841
-11.43,254.791,19.669
-11.4,252.966,19.555
-11.36,251.212,19.463
-11.33,249.422,19.303
-11.3,247.456,19.131
-11.27,245.596,18.993
-11.23,243.947,18.959
-11.2,242.262,18.844
-11.17,240.262,18.684
-11.13,238.507,18.753
-11.1,236.998,18.787
-11.07,235.278,18.592
-11.04,232.927,18.466
-11.0,230.576,18.547
-10.97,228.786,18.466
-10.94,227.136,18.329
-10.91,225.276,18.134
-10.87,223.381,17.974
-10.84,221.626,18.02
-10.81,219.696,17.951
-10.78,217.45,17.848
-10.74,215.344,17.962
-10.71,213.625,18.008
-10.68,211.835,17.882
-10.65,210.01,17.859
-10.61,207.939,17.768
-10.58,205.763,17.664
-10.55,203.903,17.733
-10.52,201.973,17.481
-10.48,199.797,17.286
-10.45,197.797,17.458
-10.42,195.761,17.252
-10.39,193.375,17.057
-10.35,191.269,17.137
-10.32,189.409,17.0
-10.29,187.198,16.794
-10.26,184.741,16.679
-10.22,182.425,16.416
-10.19,180.038,16.221
-10.16,177.722,16.198
-10.13,175.441,15.946
-10.09,173.055,15.832
-10.06,170.808,15.648
-10.03,168.422,15.293
-10.0,165.755,15.087
-9.96,163.087,15.041
-9.93,160.42,14.743
-9.9,157.858,14.56
-9.87,155.507,14.434
-9.83,153.156,13.976
-9.8,150.348,13.632
-9.77,147.54,13.666
-9.73,144.768,13.403
-9.7,142.03,13.162
-9.67,139.293,12.945
-9.64,136.485,12.429
-9.6,133.607,12.315
-9.57,130.975,12.051
-9.54,128.027,11.627
-9.51,124.623,11.364
-9.47,121.254,11.043
-9.44,118.13,10.596
-9.41,114.902,10.173
-9.38,111.568,9.691
-9.34,108.269,9.29
-9.31,104.865,8.878
-9.28,101.39,8.523
-9.25,97.845,8.145
-9.21,94.301,7.698
-9.18,90.721,7.217
-9.15,87.001,6.759
-9.12,83.386,6.404
-9.08,79.842,6.037
-9.05,76.262,5.636
-9.02,72.787,5.35
-8.99,69.348,5.075
-8.95,65.839,4.766
-8.92,62.224,4.456
-8.89,58.609,4.135
-8.86,54.959,3.861
-8.82,51.66,3.631
-8.79,48.291,3.322
-8.76,44.852,3.093
-8.73,41.202,3.001
-8.69,37.657,2.875
-8.66,35.832,2.509
-8.63,40.009,1.1
-8.6,42.009,-0.71
-8.56,33.235,-1.409
-8.53,25.655,-0.63
-8.5,23.689,-0.183
-8.47,21.794,-0.584
-8.43,14.214,-1.398
-8.4,3.053,-1.398
-8.37,-5.65,-0.928
-8.33,-9.862,-0.412
-8.3,-13.441,-0.745
-8.27,-17.477,-0.389
-8.24,-12.073,-1.409
-8.2,-13.687,-2.726
-8.17,-20.461,-1.718
-8.14,-24.321,-1.546
-8.11,-26.778,-0.985
-8.07,-28.252,-0.779
-8.04,-30.568,-1.317
-8.01,-34.148,-2.108
-7.98,-38.78,-2.555
-7.94,-43.237,-2.681
-7.91,-47.168,-2.612
-7.88,-50.362,-2.589
-7.85,-53.099,-2.6
-7.81,-55.872,-2.761
-7.78,-58.96,-3.059
-7.75,-62.259,-3.311
-7.72,-65.698,-3.494
-7.68,-69.102,-3.677
-7.65,-72.507,-3.815
-7.62,-75.7,-3.987
-7.59,-78.929,-4.158
-7.55,-82.193,-4.353
-7.52,-85.457,-4.536
-7.49,-88.826,-4.788
-7.46,-92.02,-4.983
-7.42,-95.038,-5.109
-7.39,-97.705,-5.327
-7.36,-100.197,-5.567
-7.33,-102.829,-5.865
-7.29,-105.672,-6.266
-7.26,-108.83,-6.621
-7.23,-111.884,-6.885
-7.2,-114.972,-7.148
-7.16,-118.06,-7.469
-7.13,-121.254,-7.847
-7.1,-124.272,-8.145
-7.07,-127.255,-8.5
-7.03,-130.168,-8.821
-7.0,-133.292,-9.187
-6.97,-136.485,-9.657
-6.93,-139.574,-9.898
-6.9,-142.487,-10.138
-6.87,-145.259,-10.528
-6.84,-148.102,-10.848
-6.8,-151.155,-11.181
-6.77,-154.314,-11.559
-6.74,-157.437,-11.845
-6.71,-160.455,-12.166
-6.67,-163.368,-12.441
-6.64,-166.106,-12.716
-6.61,-168.878,-12.945
-6.58,-171.756,-13.162
-6.54,-174.493,-13.437
-6.51,-177.231,-13.678
-6.48,-180.144,-14.022
-6.45,-183.092,-14.297
-6.41,-185.654,-14.445
-6.38,-188.145,-14.755
-6.35,-190.567,-14.972
-6.32,-192.848,-15.11
-6.28,-195.2,-15.27
-6.25,-197.516,-15.373
-6.22,-199.692,-15.442
-6.19,-202.078,-15.602
-6.15,-204.395,-15.637
-6.12,-206.325,-15.66
-6.09,-208.115,-15.889
-6.06,-210.045,-15.946
-6.02,-212.045,-15.98
-5.99,-214.011,-16.095
-5.96,-215.976,-16.278
-5.93,-217.976,-16.404
-5.89,-219.801,-16.565
-5.86,-221.626,-16.668
-5.83,-223.17,-16.805
-5.8,-224.925,-17.023
-5.76,-226.68,-17.092
-5.73,-228.365,-17.183
-5.7,-230.154,-17.344
-5.67,-231.874,-17.584
-5.63,-233.488,-17.745
-5.6,-235.138,-17.905
-5.57,-236.542,-17.962
-5.53,-237.981,-18.18
-5.5,-239.665,-18.421
-5.47,-241.069,-18.524
-5.44,-242.543,-18.867
-5.4,-244.122,-19.028
-5.37,-245.526,-19.165
-5.34,-246.965,-19.371
-5.31,-248.404,-19.394
-5.27,-249.702,-19.612
-5.24,-251.071,-19.898
-5.21,-252.686,-20.059
-5.18,-254.124,-20.23
-5.14,-255.388,-20.46
-5.11,-256.651,-20.654
-5.08,-257.669,-20.757
-5.05,-258.617,-20.895
-5.01,-259.74,-21.078
-4.98,-261.108,-21.227
-4.95,-262.337,-21.261
-4.92,-263.319,-21.468
-4.88,-264.513,-21.685
-4.85,-265.811,-21.914
-4.82,-266.899,-22.109
-4.79,-267.741,-22.235
-4.75,-268.794,-22.43
-4.72,-270.023,-22.522
-4.69,-271.111,-22.739
-4.66,-272.163,-23.014
-4.62,-273.146,-23.266
-4.59,-274.129,-23.45
-4.56,-274.901,-23.45
-4.53,-275.673,-23.644
-4.49,-276.48,-23.747
-4.46,-277.217,-23.816
-4.43,-277.919,-23.942
-4.4,-278.867,-24.137
-4.36,-279.674,-24.16
-4.33,-280.025,-24.114
-4.3,-280.376,-24.263
-4.27,-280.727,-24.16
-4.23,-281.253,-24.274
-4.2,-281.744,-24.377
-4.17,-281.955,-24.24
-4.13,-282.166,-24.4
-4.1,-282.657,-24.549
-4.07,-282.973,-24.481
-4.04,-283.008,-24.481
-4.0,-282.727,-24.492
-3.97,-282.552,-24.366
-3.94,-282.306,-24.206
-3.91,-282.236,-24.114
-3.87,-282.271,-23.976
-3.84,-281.99,-23.885
-3.81,-281.323,-23.702
-3.78,-280.692,-23.598
-3.74,-280.165,-23.472
-3.71,-279.428,-23.209
-3.68,-278.586,-23.209
-3.65,-277.779,-23.106
-3.61,-277.042,-22.911
-3.58,-276.375,-22.751
-3.55,-275.357,-22.441
-3.52,-274.023,-22.292
-3.48,-272.62,-22.166
-3.45,-271.251,-21.823
-3.42,-270.128,-21.708
-3.39,-269.145,-21.628
-3.35,-268.022,-21.433
-3.32,-266.653,-21.342
-3.29,-265.25,-21.25
-3.26,-263.776,-20.952
-3.22,-262.126,-20.735
-3.19,-260.477,-20.528
-3.16,-258.757,-20.288
-3.13,-257.072,-20.093
-3.09,-255.493,-19.841
-3.06,-253.809,-19.726
-3.03,-251.843,-19.555
-3.0,-249.738,-19.314
-2.96,-247.772,-19.234
-2.93,-245.912,-19.165
-2.9,-244.263,-18.947
-2.87,-242.613,-18.856
-2.83,-240.788,-18.695
-2.8,-238.963,-18.695
-2.77,-237.279,-18.741
-2.73,-235.384,-18.512
-2.7,-233.102,-18.478
-2.67,-230.962,-18.443
-2.64,-229.137,-18.329
-2.6,-227.417,-18.283
-2.57,-225.592,-18.123
-2.54,-223.521,-17.997
-2.51,-221.696,-18.146
-2.47,-219.836,-17.951
-2.44,-217.696,-17.745
-2.41,-215.555,-17.779
-2.38,-213.449,-17.699
-2.34,-211.273,-17.607
-2.31,-209.448,-17.687
-2.28,-207.904,-17.584
-2.25,-205.904,-17.527
-2.21,-203.728,-17.538
-2.18,-201.447,-17.424
-2.15,-199.236,-17.412
-2.12,-197.446,-17.367
-2.08,-195.656,-17.069
-2.05,-193.655,-17.069
-2.02,-191.585,-17.057
-1.99,-189.268,-16.92
-1.95,-187.022,-16.885
-1.92,-185.057,-16.737
-1.89,-182.6,-16.519
-1.86,-180.144,-16.244
-1.82,-177.757,-16.072
-1.79,-175.441,-15.912
-1.76,-173.055,-15.671
-1.73,-170.668,-15.488
-1.69,-168.106,-15.259
-1.66,-165.579,-15.007
-1.63,-163.087,-14.789
-1.6,-160.315,-14.514
-1.56,-157.542,-14.342
-1.53,-155.121,-14.102
-1.5,-152.664,-13.838
-1.47,-149.892,-13.575
-1.43,-146.979,-13.277
-1.4,-144.136,-13.014
-1.37,-141.399,-12.819
-1.33,-138.802,-12.521
-1.3,-136.169,-12.361
-1.27,-133.327,-12.257
-1.24,-130.273,-11.856
-1.2,-127.115,-11.547
-1.17,-124.097,-11.261
-1.14,-121.114,-10.917
-1.11,-117.955,-10.459
-1.07,-114.621,-10.012
-1.04,-111.322,-9.634
-1.01,-107.988,-9.336
-0.98,-104.549,-8.958
-0.94,-101.144,-8.546
-0.91,-97.775,-8.225
-0.88,-94.266,-7.732
-0.85,-90.721,-7.343
-0.81,-87.247,-6.976
-0.78,-83.667,-6.484
-0.75,-80.122,-6.094
-0.72,-76.613,-5.774
-0.68,-73.314,-5.43
-0.65,-69.734,-5.052
-0.62,-66.225,-4.788
-0.59,-62.68,-4.513
-0.55,-59.241,-4.273
-0.52,-55.907,-4.113
-0.49,-52.713,-3.941
-0.46,-49.309,-3.574
-0.42,-45.624,-3.425
-0.39,-41.939,-3.265
-0.36,-38.429,-2.875
-0.33,-36.885,-2.348
-0.29,-41.307,-1.386
-0.26,-42.921,0.802
-0.23,-33.2,1.398
-0.2,-25.444,0.596
-0.16,-23.058,0.172
-0.13,-20.355,0.687
-0.1,-11.617,1.432
-0.07,0.175,1.455
-0.03,9.09,0.756
0.0,12.74,0.458
0.03,16.776,0.458
0.07,18.951,0.962
0.1,13.231,1.409
0.13,15.688,2.073
0.16,21.127,2.291
0.2,24.426,0.997
0.23,26.146,0.687
0.26,27.409,0.813
0.29,29.655,1.226
0.33,33.305,1.959
0.36,37.903,2.44
0.39,42.606,2.486
0.42,46.606,2.52
0.46,50.011,2.474
0.49,52.994,2.509
0.52,55.977,2.749
0.55,59.206,3.059
0.59,62.61,3.242
0.62,66.014,3.482
0.65,69.489,3.7
0.68,72.858,3.838
0.72,76.122,3.987
0.75,79.385,4.158
0.78,82.579,4.376
0.81,85.773,4.582
0.85,88.896,4.777
0.88,91.879,5.029
0.91,94.827,5.281
0.94,97.389,5.441
0.98,100.092,5.728
1.01,102.934,6.117
1.04,105.917,6.449
1.07,109.146,6.805
1.11,112.48,7.137
1.14,115.744,7.354
1.17,118.762,7.71
1.2,121.745,8.111
1.24,124.763,8.534
1.27,128.027,8.924
1.3,131.256,9.245
1.33,134.309,9.565
1.37,137.433,10.047
1.4,140.451,10.287
1.43,143.399,10.459
1.47,146.277,10.677
1.5,149.12,10.917
1.53,152.243,11.295
1.56,155.261,11.547
1.6,157.999,11.753
1.63,160.736,12.063
1.66,163.684,12.429
1.69,166.422,12.532
1.73,169.054,12.773
1.76,171.686,13.105
1.79,174.423,13.277
1.82,177.196,13.552
1.86,180.038,13.861
1.89,182.776,14.09
1.92,185.513,14.331
1.95,187.935,14.526
1.99,190.146,14.64
2.02,192.392,14.858
2.05,194.708,14.972
2.08,197.025,15.041
2.12,199.341,15.247
2.15,201.482,15.293
2.18,203.552,15.396
2.21,205.623,15.511
2.25,207.623,15.625
2.28,209.624,15.717
2.31,211.414,15.866
2.34,213.449,16.095
2.38,215.555,16.21
2.41,217.696,16.404
2.44,219.661,16.611
2.47,221.275,16.702
2.51,222.855,16.92
2.54,224.644,17.103
2.57,226.645,17.218
2.6,228.47,17.344
2.64,230.119,17.527
2.67,231.769,17.664
2.7,233.453,17.882
2.73,234.927,17.974
2.77,236.226,18.042
2.8,237.875,18.306
2.83,239.525,18.272
2.87,240.999,18.478
2.9,242.543,18.776
2.93,244.017,18.821
2.96,245.21,19.085
3.0,246.649,19.348
3.03,248.018,19.337
3.06,249.316,19.486
3.09,250.861,19.841
3.13,252.44,19.978
3.16,253.984,20.185
3.19,255.388,20.437
3.22,256.686,20.666
3.26,257.669,20.757
3.29,258.687,20.872
3.32,259.915,21.055
3.35,261.249,21.181
3.39,262.372,21.296
3.42,263.354,21.502
3.45,264.372,21.72
3.48,265.636,22.006
3.52,266.934,22.109
3.55,268.057,22.292
3.58,269.145,22.476
3.61,270.303,22.625
3.65,271.356,22.888
3.68,272.479,23.071
3.71,273.567,23.301
3.74,274.515,23.495
3.78,275.357,23.518
3.81,276.129,23.69
3.84,276.936,23.702
3.87,277.638,23.759
3.91,278.516,24.022
3.94,279.463,24.091
3.97,280.165,24.148
4.0,280.586,24.286
4.04,280.832,24.366
4.07,281.288,24.492
4.1,281.85,24.469
4.13,282.236,24.32
4.17,282.411,24.332
4.2,282.938,24.343
4.23,283.394,24.286
4.27,283.499,24.228
4.3,283.499,24.343
4.33,283.569,24.389
4.36,283.675,24.251
4.4,283.499,24.309
4.43,283.534,24.366
4.46,283.745,24.332
4.49,283.289,24.148
4.53,282.411,23.988
4.56,281.815,23.816
4.59,281.499,23.656
4.62,280.692,23.335
4.66,279.393,22.877
4.69,278.2,22.888
4.72,277.638,22.865
4.75,276.901,22.533
4.79,275.497,22.189
4.82,273.953,21.949
4.85,272.655,21.708
4.88,271.321,21.456
4.92,269.952,21.181
4.95,268.584,21.021
4.98,267.285,20.861
5.01,265.811,20.631
5.05,264.267,20.505
5.08,262.758,20.425
5.11,261.249,20.173
5.14,259.669,19.944
5.18,258.125,19.933
5.21,256.511,19.818
5.24,254.861,19.738
5.27,253.177,19.681
5.31,251.668,19.555
5.34,250.053,19.452
5.37,248.158,19.28
5.4,246.228,19.142
5.44,244.508,19.199
5.47,242.789,19.073
5.5,240.718,18.787
5.53,238.753,18.787
5.57,236.998,18.718
5.6,235.173,18.569
5.63,233.243,18.501
5.67,231.313,18.432
5.7,229.417,18.34
5.73,227.522,18.317
5.76,225.697,18.168
5.8,223.837,18.157
5.83,221.942,18.203
5.86,219.872,18.02
5.89,217.801,18.065
5.93,216.046,18.042
5.96,214.046,17.825
5.99,212.186,17.894
6.02,210.431,17.894
6.06,208.36,17.687
6.09,206.255,17.813
6.12,204.359,17.642
6.15,202.043,17.344
6.19,199.937,17.527
6.22,198.042,17.309
6.25,195.796,17.046
6.28,193.761,17.16
6.32,191.936,17.034
6.35,189.865,16.817
6.38,187.549,16.748
6.41,185.233,16.576
6.45,182.671,16.313
6.48,180.284,16.278
6.51,178.073,16.106
6.54,175.827,15.763
6.58,173.546,15.706
6.61,171.089,15.476
6.64,168.246,15.144
6.67,165.685,15.075
6.71,163.298,14.812
6.74,160.806,14.342
6.77,158.069,14.193
6.8,155.331,14.079
6.84,152.559,13.77
6.87,149.857,13.575
6.9,147.014,13.311
6.93,144.276,12.887
6.97,141.469,12.67
7.0,138.556,12.429
7.03,135.608,12.177
7.07,132.906,12.017
7.1,130.273,11.673
7.13,127.325,11.421
7.16,124.062,11.158
7.2,120.903,10.791
7.23,117.674,10.505
7.26,114.621,10.138
7.29,111.497,9.703
7.33,108.304,9.416
7.36,104.935,9.038
7.39,101.425,8.672
7.42,97.916,8.363
7.46,94.511,7.939
7.49,90.932,7.492
7.52,87.387,7.102
7.55,84.018,6.793
7.59,80.544,6.369
7.62,76.999,6.026
7.65,73.524,5.67
7.68,69.98,5.373
7.72,66.576,5.109
7.75,63.242,4.823
7.78,59.662,4.445
7.81,55.977,4.135
7.85,52.608,3.918
7.88,49.239,3.608
7.91,45.659,3.322
7.94,41.974,3.116
7.98,38.464,2.83
8.01,36.99,2.692
8.04,40.956,1.546
8.07,42.746,-0.722
8.11,34.042,-1.398
8.14,26.216,-0.687
8.17,23.549,-0.263
8.2,20.882,-0.699
8.24,12.704,-1.398
8.27,1.685,-1.409
8.3,-7.054,-0.882
8.33,-10.985,-0.481
8.37,-15.091,-0.653
8.4,-17.442,-0.493
8.43,-12.599,-1.294
8.47,-15.547,-2.509
8.5,-21.654,-2.051
8.53,-25.233,-1.294
8.56,-27.129,-1.008
8.6,-28.708,-0.962
8.63,-30.814,-1.398
8.66,-34.253,-2.062
8.69,-38.499,-2.486
8.73,-42.816,-2.589
8.76,-46.501,-2.497
8.79,-49.449,-2.406
8.82,-52.081,-2.394
8.86,-54.889,-2.555
8.89,-57.907,-2.818
8.92,-61.136,-3.07
8.95,-64.645,-3.334
8.99,-68.19,-3.551
9.02,-71.7,-3.677
9.05,-75.104,-3.838
9.08,-78.473,-4.078
9.12,-81.912,-4.307
9.15,-85.352,-4.502
9.18,-88.791,-4.731
9.21,-92.055,-4.914
9.25,-95.038,-5.052
9.28,-97.81,-5.315
9.31,-100.478,-5.522
9.34,-103.215,-5.854
9.38,-105.917,-6.186
9.41,-108.795,-6.449
9.44,-111.884,-6.816
9.47,-115.007,-7.137
9.51,-118.13,-7.515
9.54,-121.219,-7.824
9.57,-124.342,-8.214
9.6,-127.396,-8.66
9.64,-130.589,-8.912
9.67,-134.064,-9.428
9.7,-137.328,-9.794
9.73,-140.346,-9.966
9.77,-143.224,-10.47
9.8,-146.136,-10.825
9.83,-149.155,-11.043
9.87,-152.068,-11.387
9.9,-154.98,-11.582
9.93,-157.823,-11.719
9.96,-160.806,-12.074
10.0,-163.86,-12.372
10.03,-166.737,-12.544
10.06,-169.475,-12.887
10.09,-172.212,-13.082
10.13,-174.879,-13.254
10.16,-177.617,-13.666
10.19,-180.565,-13.999
10.22,-183.513,-14.171
10.26,-186.145,-14.48
10.29,-188.742,-14.732
10.32,-191.093,-14.904
10.35,-193.375,-15.144
10.39,-195.901,-15.27
10.42,-198.288,-15.328
10.45,-200.569,-15.408
10.48,-202.78,-15.648
10.52,-204.956,-15.614
10.55,-206.886,-15.591
10.58,-208.676,-15.797
10.61,-210.466,-15.694
10.65,-212.291,-15.866
10.68,-214.326,-16.003
10.71,-216.327,-15.98
10.74,-218.152,-16.118
10.78,-219.872,-16.336
10.81,-221.696,-16.496
10.84,-223.732,-16.645
10.87,-225.662,-16.84
10.91,-227.101,-16.828
10.94,-228.47,-17.057
10.97,-230.26,-17.321
11.0,-232.225,-17.527
11.04,-233.945,-17.768
11.07,-235.489,-17.871
11.1,-236.858,-18.008
11.13,-238.402,-18.157
11.17,-239.946,-18.203
11.2,-241.35,-18.352
11.23,-242.683,-18.535
11.27,-244.193,-18.707
11.3,-245.807,-18.89
11.33,-247.246,-19.016
11.36,-248.404,-19.188
11.4,-249.527,-19.474
11.43,-251.001,-19.646
11.46,-252.615,-19.795
11.49,-253.949,-19.978
11.53,-255.107,-20.23
11.56,-256.441,-20.494
11.59,-257.704,-20.505
11.62,-258.687,-20.631
11.66,-259.775,-20.929
11.69,-261.038,-21.147
11.72,-262.337,-21.227
11.75,-263.495,-21.433
11.79,-264.513,-21.571
11.82,-265.565,-21.72
11.85,-266.794,-21.972
11.88,-267.917,-22.086
11.92,-269.04,-22.224
11.95,-270.058,-22.476
11.98,-271.146,-22.751
12.01,-272.198,-22.945
12.05,-273.146,-23.175
12.08,-274.164,-23.404
12.11,-275.111,-23.438
12.14,-275.954,-23.484
12.18,-276.691,-23.621
12.21,-277.393,-23.828
12.24,-278.27,-24.011
12.27,-279.182,-24.045
12.31,-279.884,-24.137
12.34,-280.446,-24.263
12.37,-280.972,-24.286
12.4,-281.464,-24.32
12.44,-281.92,-24.389
12.47,-282.236,-24.366
12.5,-282.692,-24.412
12.53,-283.183,-24.412
12.57,-283.359,-24.377
12.6,-283.183,-24.377
12.63,-283.183,-24.332
12.67,-283.253,-24.354
12.7,-283.008,-24.068
12.73,-282.622,-23.85
12.76,-282.516,-24.091
12.8,-282.446,-23.908
12.83,-281.815,-23.621
12.86,-281.007,-23.564
12.89,-280.446,-23.301
12.93,-279.849,-23.117
12.96,-279.007,-22.831
12.99,-277.989,-22.762
13.02,-277.357,-22.819
13.06,-276.831,-22.567
13.09,-276.094,-22.43
13.12,-275.076,-22.247
13.15,-273.813,-22.006
13.19,-272.409,-21.823
13.22,-271.04,-21.674
13.25,-270.058,-21.582
13.28,-269.075,-21.422
13.32,-267.776,-21.284
13.35,-266.408,-21.227
13.38,-265.179,-21.101
13.41,-263.705,-20.838
13.45,-261.88,-20.586
13.48,-260.056,-20.391
13.51,-258.476,-20.162
13.54,-257.002,-19.99
13.58,-255.563,-19.83
13.61,-253.703,-19.623
13.64,-251.738,-19.6
13.67,-250.124,-19.52
13.71,-248.264,-19.348
13.74,-246.439,-19.165
13.77,-244.859,-19.108
13.8,-242.999,-18.947
13.84,-240.894,-18.65
13.87,-239.104,-18.776
13.9,-237.56,-18.753
13.93,-235.524,-18.547
13.97,-233.278,-18.638
14.0,-231.172,-18.478
14.03,-229.312,-18.409
14.07,-227.908,-18.524
14.1,-226.259,-18.18
14.13,-224.188,-18.077
14.16,-222.223,-18.146
14.2,-220.187,-17.905
14.23,-217.906,-17.779
14.26,-215.941,-17.779
14.29,-214.081,-17.676
14.33,-212.01,-17.584
14.36,-210.15,-17.596
14.39,-208.15,-17.39
14.42,-205.833,-17.355
14.46,-203.798,-17.47
14.49,-201.692,-17.241
14.52,-199.341,-17.172
14.55,-197.375,-17.218
14.59,-195.551,-17.011
14.62,-193.69,-17.0
14.65,-191.69,-16.977
14.68,-189.444,-16.714
14.72,-186.952,-16.599
14.75,-184.671,-16.53
14.78,-182.565,-16.244
14.81,-180.354,-16.118
14.85,-178.003,-16.015
14.88,-175.581,-15.774
14.91,-173.265,-15.683
14.94,-170.914,-15.476
14.98,-168.246,-15.224
15.01,-165.579,-15.075
15.04,-163.052,-14.789
15.07,-160.526,-14.514
15.11,-158.069,-14.251
15.14,-155.472,-14.022
15.17,-152.734,-13.77
15.2,-149.857,-13.506
15.24,-147.049,-13.311
15.27,-144.136,-13.036
15.3,-141.188,-12.67
15.33,-138.17,-12.315
15.37,-135.327,-12.12
15.4,-132.87,-11.971
15.43,-130.273,-11.593
15.47,-127.361,-11.261
15.5,-124.237,-11.032
15.53,-121.008,-10.757
15.56,-117.569,-10.402
15.6,-114.305,-10.081
15.63,-111.182,-9.703
15.66,-108.058,-9.302
15.69,-104.619,-8.775
15.73,-101.004,-8.305
15.76,-97.354,-7.939
15.79,-93.88,-7.526
15.82,-90.335,-7.206
15.86,-86.826,-6.793
15.89,-83.281,-6.323
15.92,-79.701,-6.06
15.95,-76.122,-5.659
15.99,-72.542,-5.258
16.02,-69.243,-5.086
16.05,-65.804,-4.846
16.08,-62.294,-4.605
16.12,-58.855,-4.376
16.15,-55.591,-4.044
16.18,-52.011,-3.757
16.21,-48.923,-3.803
16.25,-46.22,-3.895
16.28,-43.553,-3.769
16.31,-40.219,-3.597
16.34,-38.535,-3.551
16.38,-42.606,-2.142
16.41,-48.537,0.057
16.44,-42.114,1.489
16.47,-31.586,0.962
16.51,-27.199,0.367
16.54,-23.795,0.596
16.57,-15.863,1.443
16.6,-2.106,1.799
16.64,10.529,1.306
16.67,17.583,0.55
16.7,20.882,0.493
16.73,23.619,0.16
16.77,17.548,1.283
16.8,17.618,2.589
16.83,23.444,2.154
16.87,27.164,1.879
16.9,29.305,1.1
16.93,30.077,0.951
16.96,31.621,1.398
17.0,34.779,2.188
17.03,39.412,2.91
17.06,44.36,3.185
17.09,48.747,3.013
17.13,52.116,2.91
17.16,55.135,2.933
17.19,58.047,3.093
17.22,61.171,3.311
17.26,64.47,3.608
17.29,67.944,3.849
17.32,71.419,3.929
17.35,74.577,4.044
17.39,77.666,4.158
17.42,80.789,4.353
17.45,83.842,4.525
17.48,86.896,4.639
17.52,90.054,4.926
17.55,93.388,5.201
17.58,96.301,5.258
17.61,98.933,5.602
17.65,101.741,6.003
17.68,104.829,6.312
17.71,108.128,6.679
17.74,111.322,6.999
17.78,114.305,7.217
17.81,117.358,7.629
17.84,120.657,7.985
17.87,123.711,8.099
17.91,126.624,8.534
17.94,129.782,8.947
17.97,132.8,9.13
18.0,135.854,9.52
18.04,139.012,9.932
18.07,142.241,10.195
18.1,145.189,10.505
18.13,148.067,10.825
18.17,150.839,11.009
18.2,153.928,11.398
18.23,157.191,11.753
18.27,160.175,11.902
18.3,162.912,12.223
18.33,165.79,12.578
18.36,168.492,12.739
18.4,171.089,13.071
18.43,173.862,13.3
18.46,176.669,13.495
18.49,179.547,13.792
18.53,182.46,14.022
18.56,185.092,14.193
18.59,187.514,14.457
18.62,190.076,14.743
18.66,192.603,14.812
18.69,194.849,14.869
18.72,197.165,15.144
18.75,199.551,15.247
18.79,201.727,15.247
18.82,203.728,15.396
18.85,205.939,15.568
18.88,207.974,15.602
18.92,209.764,15.625
18.95,210.431,15.144
18.98,209.343,14.056
19.01,208.255,13.357
19.05,208.957,13.266
19.08,210.466,12.544
19.11,211.168,11.914
19.14,211.449,11.902
19.18,212.537,12.086
19.21,214.467,12.544
19.24,216.783,13.22
19.27,218.819,13.781
19.31,220.714,14.468
19.34,222.784,15.27
19.37,224.89,15.98
19.4,227.066,16.611
19.44,229.242,17.206
19.47,231.348,17.756
19.5,233.453,18.295
19.53,235.699,18.764
19.57,238.016,19.222
19.6,240.402,19.738
19.63,242.508,20.082
19.67,244.193,20.437
19.7,245.877,20.883
19.73,247.878,21.193
19.76,249.808,21.239
19.8,251.492,21.479
19.83,253.072,21.697
19.86,254.546,21.766
19.89,256.09,21.983
19.93,257.634,22.029
19.96,258.792,21.937
19.99,260.02,22.098
20.02,261.565,22.258
20.06,262.863,22.235
20.09,263.986,22.499
20.12,265.32,22.693
20.15,266.653,22.751
20.19,267.917,22.865
20.22,269.04,22.98
20.25,270.093,23.106
20.28,271.216,23.209
20.32,272.269,23.472
20.35,273.427,23.679
20.38,274.585,23.759
20.41,275.497,23.828
20.45,276.445,23.908
20.48,277.252,23.862
20.51,277.744,23.885
20.54,278.516,24.011
20.58,279.323,23.942
20.61,280.025,23.999
20.64,280.586,24.091
20.67,281.007,24.045
20.71,281.429,24.102
20.74,281.955,24.068
20.77,281.955,23.908
20.8,281.92,24.022
20.84,282.166,23.999
20.87,282.587,23.919
20.9,282.692,23.828
20.93,282.516,23.839
20.97,282.481,23.793
21.0,282.411,23.69
21.03,282.236,23.553
21.07,281.744,23.323
21.1,281.393,23.404
21.13,281.464,23.427
21.16,281.393,23.243
21.2,281.007,23.117
21.23,280.165,22.991
21.26,279.358,23.003
21.29,278.796,22.968
21.33,278.516,22.854
21.36,277.954,22.797
21.39,277.077,22.613
21.42,276.094,22.499
21.46,275.252,22.373
21.49,274.374,22.178
21.52,273.146,21.995
21.55,271.707,21.766
21.59,270.303,21.582
21.62,269.215,21.468
21.65,268.022,21.158
21.68,266.443,21.055
21.72,264.969,20.883
21.75,263.425,20.574
21.78,261.705,20.471
21.81,260.266,20.299
21.85,258.862,20.116
21.88,257.353,19.91
21.91,255.669,19.784
21.94,254.019,19.784
21.98,252.299,19.566
22.01,250.545,19.417
22.04,248.86,19.417
22.07,247.035,19.177
22.11,245.28,19.096
22.14,243.736,19.199
22.17,242.157,19.096
22.2,240.402,18.925
22.24,238.542,18.982
22.27,236.752,18.89
22.3,234.717,18.741
22.33,232.822,18.684
22.37,231.102,18.661
22.4,229.312,18.478
22.43,227.277,18.352
22.47,225.241,18.352
22.5,223.241,18.272
22.53,221.24,18.134
22.56,219.135,17.836
22.6,216.924,17.722
22.63,215.063,17.687
22.66,212.993,17.47
22.69,210.782,17.458
22.73,208.817,17.573
22.76,206.676,17.344
22.79,204.5,17.218
22.82,202.359,17.115
22.86,200.253,16.908
22.89,198.077,16.989
22.92,196.147,16.897
22.95,194.006,16.542
22.99,191.83,16.679
23.02,190.216,16.851
23.05,188.286,16.45
23.08,185.583,16.37
23.12,183.092,16.519
23.15,180.951,16.244
23.18,178.845,16.026
23.21,176.389,15.832
23.25,173.932,15.706
23.28,171.44,15.625
23.31,169.229,15.614
23.34,166.772,15.305
23.38,164.035,14.801
23.41,161.298,14.56
23.44,158.701,14.193
23.47,156.104,13.838
23.51,153.401,13.621
23.54,150.418,13.38
23.57,147.54,13.151
23.6,144.662,13.036
23.64,141.785,12.681
23.67,138.907,12.28
23.7,136.029,11.983
23.73,133.011,11.627
23.77,129.993,11.444
23.8,127.22,11.226
23.83,124.307,10.871
23.87,121.324,10.619
23.9,117.92,10.333
23.93,114.41,9.955
23.96,111.217,9.772
24.0,108.128,9.451
24.03,104.829,9.038
24.06,101.495,8.718
24.09,98.161,8.191
24.13,94.722,7.698
24.16,91.142,7.24
24.19,87.457,6.793
24.22,83.878,6.507
24.26,80.473,6.335
24.29,77.069,6.026
24.32,73.489,5.636
24.35,69.945,5.373
24.39,66.576,5.109
24.42,62.996,4.651
24.45,59.276,4.365
24.48,56.012,4.158
24.52,52.748,3.883
24.55,49.203,3.597
24.58,45.624,3.482
24.61,42.114,3.173
24.65,38.605,3.047
24.68,37.131,2.337
24.71,40.71,0.962
24.74,43.097,-0.561
24.78,34.99,-1.398
24.81,27.269,-0.664
24.84,24.532,-0.298
24.87,22.005,-0.619
24.91,14.565,-1.352
24.94,2.948,-1.558
24.97,-6.773,-0.951
25.0,-11.23,-0.515
25.04,-14.88,-0.493
25.07,-17.793,-0.962
25.1,-12.985,-1.684
25.13,-14.775,-1.753
25.17,-20.39,-1.97
25.2,-23.865,-1.26
25.23,-25.725,-0.722
25.27,-27.234,-0.848
25.3,-29.515,-1.306
25.33,-33.095,-1.879
25.36,-37.552,-2.406
25.4,-42.22,-2.497
25.43,-46.255,-2.486
25.46,-49.554,-2.429
25.49,-52.432,-2.429
25.53,-55.345,-2.681
25.56,-58.609,-3.024
25.59,-62.048,-3.242
25.62,-65.558,-3.471
25.66,-68.962,-3.666
25.69,-72.472,-3.826
25.72,-75.7,-3.998
25.75,-79.034,-4.158
25.79,-82.298,-4.365
25.82,-85.597,-4.582
25.85,-88.896,-4.731
25.88,-92.055,-4.983
25.92,-95.003,-5.144
25.95,-97.67,-5.361
25.98,-100.337,-5.682
26.01,-103.04,-5.9
26.05,-106.128,-6.209
26.08,-109.286,-6.53
26.11,-112.305,-6.805
26.14,-115.393,-7.206
26.18,-118.411,-7.538
26.21,-121.429,-7.962
26.24,-124.483,-8.282
26.27,-127.606,-8.626
26.31,-130.695,-8.947
26.34,-133.713,-9.222
26.37,-136.977,-9.703
26.4,-140.24,-10.001
26.44,-143.013,-10.127
26.47,-145.715,-10.539
26.5,-148.663,-10.94
26.53,-151.787,-11.135
26.57,-154.7,-11.352
26.6,-157.507,-11.57
26.63,-160.385,-11.879
26.67,-163.298,-12.097
26.7,-166.246,-12.464
26.73,-169.054,-12.727
26.76,-171.651,-12.991
26.8,-174.353,-13.403
26.83,-177.371,-13.689
26.86,-180.424,-13.964
26.89,-183.337,-14.308
26.93,-185.899,-14.423
26.96,-188.216,-14.663
26.99,-190.778,-14.984
27.02,-193.445,-15.041
27.06,-195.726,-15.018
27.09,-197.972,-15.328
27.12,-200.218,-15.488
27.15,-202.324,-15.465
27.19,-204.57,-15.728
27.22,-206.781,-15.854
27.25,-208.501,-15.74
27.28,-210.326,-15.958
27.32,-212.361,-16.061
27.35,-214.397,-16.015
27.38,-216.467,-16.164
27.41,-218.362,-16.278
27.45,-220.012,-16.255
27.48,-221.626,-16.507
27.51,-223.416,-16.679
27.54,-225.276,-16.702
27.58,-227.101,-16.989
27.61,-228.821,-17.092
27.64,-230.47,-17.275
27.67,-232.33,-17.676
27.71,-234.19,-17.779
27.74,-235.77,-17.951
27.77,-237.209,-18.088
27.8,-238.612,-18.272
27.84,-240.157,-18.501
27.87,-241.946,-18.707
27.9,-243.315,-18.776
27.93,-244.508,-18.879
27.97,-246.053,-19.211
28.0,-247.597,-19.268
28.03,-248.86,-19.28
28.07,-250.159,-19.6
28.1,-251.562,-19.646
28.13,-252.826,-19.749
28.16,-254.23,-20.15
28.2,-255.634,-20.242
28.23,-256.757,-20.391
28.26,-257.845,-20.586
28.29,-258.862,-20.654
28.33,-259.985,-20.815
28.36,-261.249,-20.975
28.39,-262.442,-21.124
28.42,-263.565,-21.261
28.46,-264.723,-21.502
28.49,-265.916,-21.777
28.52,-266.969,-21.949
28.55,-267.952,-22.109
28.59,-268.97,-22.258
28.62,-269.917,-22.464
28.65,-271.04,-22.751
28.68,-272.198,-22.968
28.72,-273.286,-23.152
28.75,-274.269,-23.312
28.78,-275.146,-23.392
28.81,-275.954,-23.541
28.85,-276.796,-23.587
28.88,-277.568,-23.564
28.91,-278.41,-23.873
28.94,-279.112,-24.091
28.98,-279.604,-24.148
29.01,-280.235,-24.354
29.04,-280.797,-24.309
29.07,-281.288,-24.332
29.11,-281.779,-24.194
29.14,-282.06,-24.102
29.17,-282.341,-24.263
29.2,-282.516,-24.217
29.24,-282.727,-24.228
29.27,-282.832,-24.206
29.3,-282.762,-24.137
29.33,-282.657,-24.125
29.37,-282.446,-23.919
29.4,-282.166,-23.713
29.43,-281.744,-23.679
29.47,-281.534,-23.667
29.5,-281.323,-23.656
29.53,-280.867,-23.45
29.56,-280.27,-23.301
29.6,-279.533,-23.22
29.63,-278.761,-23.014
29.66,-277.919,-22.98
29.69,-277.393,-22.888
29.73,-276.866,-22.739
29.76,-276.164,-22.602
29.79,-274.936,-22.43
29.82,-273.567,-22.235
29.86,-272.444,-22.063
29.89,-271.426,-21.892
29.92,-270.338,-21.708
29.95,-269.005,-21.456
29.99,-267.706,-21.376
30.02,-266.443,-21.284
30.05,-264.969,-21.044
30.08,-263.249,-20.918
30.12,-261.6,-20.677
30.15,-260.091,-20.379
30.18,-258.792,-20.208
30.21,-257.213,-19.967
30.25,-255.247,-19.749
30.28,-253.493,-19.887
30.31,-252.159,-19.692
30.34,-250.334,-19.394
30.38,-248.228,-19.348
30.41,-246.509,-19.348
30.44,-244.754,-19.096
30.47,-243.069,-18.959
30.51,-241.595,-19.085
30.54,-239.946,-18.902
30.57,-237.875,-18.844
30.6,-235.91,-18.902
30.64,-233.839,-18.661
30.67,-231.839,-18.547
30.7,-230.154,-18.604
30.73,-228.365,-18.34
30.77,-226.154,-18.111
30.8,-224.118,-18.157
30.83,-222.469,-18.077
30.86,-220.433,-17.974
30.9,-218.257,-17.882
30.93,-216.011,-17.768
30.96,-213.976,-17.745
31.0,-212.045,-17.596
31.03,-209.904,-17.344
31.06,-207.834,-17.447
31.09,-205.833,-17.412
31.13,-203.482,-17.046
31.16,-201.271,-17.206
31.19,-199.481,-17.149
31.22,-197.27,-16.679
31.26,-195.34,-16.794
31.29,-193.445,-16.851
31.32,-191.093,-16.645
31.35,-189.093,-16.885
31.39,-187.268,-16.771
31.42,-184.706,-16.278
31.45,-182.144,-16.267
31.48,-179.863,-16.164
31.52,-177.652,-15.763
31.55,-175.546,-15.877
31.58,-173.16,-15.637
31.61,-170.422,-15.362
31.65,-167.79,-15.408
31.68,-165.509,-15.075
31.71,-163.158,-14.732
31.74,-160.561,-14.48
31.78,-157.683,-14.274
31.81,-154.98,-14.09
31.84,-152.454,-13.93
31.87,-149.927,-13.632
31.91,-147.119,-13.357
31.94,-144.241,-13.094
31.97,-141.293,-12.704
32.0,-138.38,-12.372
32.04,-135.783,-12.315
32.07,-132.976,-11.925
32.1,-129.782,-11.536
32.13,-126.624,-11.364
32.17,-123.746,-11.158
32.2,-121.043,-10.837
32.23,-117.955,-10.459
32.26,-114.586,-9.989
32.3,-111.287,-9.726
32.33,-108.163,-9.371
32.36,-104.865,-8.89
32.4,-101.355,-8.592
32.43,-97.845,-8.122
32.46,-94.266,-7.755
32.49,-90.826,-7.412
32.53,-87.352,-7.022
32.56,-83.913,-6.518
32.59,-80.263,-6.129
32.62,-76.683,-5.865
32.66,-72.998,-5.407
32.69,-69.067,-4.995
32.72,-65.593,-4.834
32.75,-62.259,-4.353
32.79,-58.784,-4.032
32.82,-55.135,-3.838
32.85,-51.801,-3.746
32.88,-48.642,-3.62
32.92,-45.554,-3.494
32.95,-42.149,-3.185
32.98,-38.359,-3.036
33.01,-36.604,-2.131
33.05,-40.746,-0.848
33.08,-42.816,0.642
33.11,-33.095,1.512
33.14,-24.567,0.653
33.18,-21.935,0.195
33.21,-19.197,0.687
33.24,-10.178,1.466
33.27,2.036,1.524
33.31,11.511,0.813
33.34,15.302,0.481
33.37,19.092,0.344
33.4,20.25,0.916
33.44,14.143,2.039
33.47,17.513,1.684
33.5,22.707,2.394
33.53,25.935,1.203
33.57,27.023,0.401
33.6,27.971,0.733
33.63,29.936,1.18
33.66,33.446,1.821
33.7,37.938,2.314
33.73,42.43,2.28
33.76,46.185,2.234
33.8,49.484,2.188
33.83,52.432,2.257
33.86,55.38,2.474
33.89,58.679,2.83
33.93,62.329,3.127
33.96,66.049,3.311
33.99,69.629,3.574
34.02,73.138,3.78
34.06,76.543,3.964
34.09,79.771,4.113
34.12,83.105,4.376
34.15,86.475,4.628
34.19,89.528,4.788
34.22,92.511,4.995
34.25,95.389,5.281
34.28,97.986,5.418
34.32,100.548,5.636
34.35,103.18,6.049
34.38,106.023,6.278
34.41,108.971,6.553
34.45,112.199,6.976
34.48,115.358,7.228
34.51,118.411,7.595
34.54,121.535,8.03
34.58,124.693,8.328
34.61,127.782,8.706
34.64,130.94,9.016
34.67,133.958,9.313
34.71,136.977,9.703
34.74,140.17,10.092
34.77,143.329,10.379
34.8,146.312,10.654
34.84,149.365,11.043
34.87,152.348,11.352
34.9,155.226,11.536
34.93,158.209,11.879
34.97,161.192,12.143
35.0,163.895,12.338
35.03,166.667,12.716
35.06,169.44,13.002
35.1,172.002,13.162
35.13,174.739,13.621
35.16,177.757,13.941
35.2,180.495,14.01
35.23,183.057,14.251
35.26,185.864,14.514
35.29,188.496,14.503
35.33,190.778,14.686
35.36,192.989,14.949
35.39,195.059,14.869
35.42,197.305,15.087
35.46,199.832,15.35
35.49,201.833,15.144
35.52,203.201,15.133
35.55,204.465,15.075
35.59,205.904,14.766
35.62,207.307,14.652
35.65,209.062,14.675
35.68,210.887,14.652
35.72,212.747,14.869
35.75,214.818,15.259
35.78,217.029,15.602
35.81,219.17,15.923
35.85,221.205,16.267
35.88,223.241,16.714
35.91,225.452,17.115
35.94,227.628,17.447
35.98,229.663,17.813
36.01,231.593,18.168
36.04,233.524,18.455
36.07,235.278,18.604
36.11,236.787,18.776
36.14,238.437,18.925
36.17,240.086,18.913
36.2,241.631,19.119
36.24,243.175,19.177
36.27,244.543,19.291
36.3,245.982,19.543
36.33,247.456,19.658
36.37,248.86,19.818
36.4,250.229,19.978
36.43,251.738,20.139
36.46,253.142,20.276
36.5,254.475,20.505
36.53,255.914,20.78
36.56,257.283,20.929
36.6,258.406,20.964
36.63,259.529,21.124
36.66,260.582,21.17
36.69,261.67,21.284
36.73,262.793,21.433
36.76,263.916,21.536
36.79,265.074,21.72
36.82,266.232,21.892
36.86,267.355,22.029
36.89,268.373,22.178
36.92,269.391,22.35
36.95,270.444,22.613
36.99,271.497,22.877
37.02,272.62,23.129
37.05,273.743,23.335
37.08,274.62,23.415
37.12,275.392,23.576
37.15,276.34,23.656
37.18,277.182,23.621
37.21,277.744,23.621
37.25,278.41,23.85
37.28,279.323,24.091
37.31,279.99,24.057
37.34,280.305,24.102
37.38,280.692,24.228
37.41,281.323,24.183
37.44,281.639,24.217
37.47,281.99,24.194
37.51,282.516,24.228
37.54,283.043,24.423
37.57,283.359,24.492
37.6,283.429,24.549
37.64,283.569,24.641
37.67,283.64,24.572
37.7,283.604,24.561
37.73,283.675,24.549
37.77,283.569,24.4
37.8,283.324,24.366
37.83,282.938,24.125
37.86,282.341,23.908
37.9,281.709,23.793
37.93,281.042,23.656
37.96,280.2,23.415
38.0,279.358,23.232
38.03,278.691,23.117
38.06,277.989,22.716
38.09,276.866,22.533
38.13,275.568,22.419
38.16,274.409,22.006
38.19,273.146,21.743
38.22,271.812,21.536
38.26,270.338,21.216
38.29,268.759,21.067
38.32,267.355,20.941
38.35,265.952,20.666
38.39,264.267,20.437
38.42,262.617,20.299
38.45,261.038,20.036
38.48,259.354,19.795
38.52,257.634,19.704
38.55,256.125,19.635
38.58,254.405,19.452
38.61,252.545,19.348
38.65,251.036,19.406
38.68,249.281,19.096
38.71,247.246,18.936
38.74,245.421,19.005
38.78,243.701,18.799
38.81,241.631,18.718
38.84,239.595,18.718
38.87,237.946,18.73
38.91,236.472,18.684
38.94,234.682,18.592
38.97,232.576,18.512
39.0,230.54,18.432
39.04,228.716,18.421
39.07,226.891,18.283
39.1,224.995,18.134
39.13,223.135,18.214
39.17,221.275,18.157
39.2,219.17,17.939
39.23,217.099,17.939
39.26,215.309,17.859
39.3,213.554,17.768
39.33,211.554,17.733
39.36,209.448,17.607
39.4,207.448,17.619
39.43,205.693,17.676
39.46,203.728,17.481
39.49,201.517,17.435
39.53,199.446,17.504
39.56,197.34,17.401
39.59,195.551,17.321
39.62,193.796,17.298
39.66,191.55,17.206
39.69,189.339,17.137
39.72,187.198,17.034
39.75,184.882,16.851
39.79,182.565,16.53
39.82,180.109,16.267
39.85,177.687,16.198
39.88,175.406,15.992
39.92,173.23,15.832
39.95,170.914,15.625
39.98,168.211,15.305
40.01,165.544,15.133
40.05,162.982,14.949
40.08,160.385,14.686
40.11,157.893,14.457
40.14,155.472,14.216
40.18,152.805,13.896
40.21,149.927,13.781
40.24,147.295,13.563
40.27,144.733,13.288
40.31,141.995,13.025
40.34,138.872,12.567
40.37,135.573,12.246
40.4,132.66,12.086
40.44,129.958,11.765
40.47,127.15,11.467
40.5,124.026,11.181
40.53,120.763,10.768
40.57,117.604,10.459
40.6,114.41,10.092
40.63,111.147,9.657
40.66,107.848,9.394
40.7,104.443,9.084
40.73,101.074,8.66
40.76,97.775,8.305
40.8,94.336,7.881
40.83,90.616,7.332
40.86,86.72,6.965
40.89,83.456,6.701
40.93,80.193,6.255
40.96,76.859,5.923
40.99,73.349,5.659
41.02,69.734,5.247
41.06,66.049,5.075
41.09,62.75,4.926
41.12,59.557,4.617
41.15,56.187,4.25
41.19,52.678,4.067
41.22,49.203,3.849
41.25,45.764,3.551
41.28,42.5,3.356
41.32,39.272,3.208
41.35,38.113,2.131
41.38,41.869,0.848
41.41,43.518,-0.642
41.45,35.06,-1.386
41.48,27.339,-0.699
41.51,24.391,-0.309
41.54,21.443,-0.722
41.58,12.845,-1.455
41.61,0.842,-1.558
41.64,-8.774,-0.905
41.67,-12.88,-0.527
41.71,-16.6,-0.412
41.74,-17.653,-0.974
41.77,-12.985,-1.707
41.8,-16.074,-1.902
41.84,-21.443,-2.005
41.87,-24.567,-1.168
41.9,-26.251,-0.722
41.93,-27.62,-0.859
41.97,-29.936,-1.375
42.0,-33.621,-2.016
42.03,-38.113,-2.417
42.06,-42.325,-2.314
42.1,-45.799,-2.199
42.13,-48.782,-2.234
42.16,-51.59,-2.337
42.2,-54.608,-2.497
42.23,-57.767,-2.807
42.26,-61.346,-3.104
42.29,-64.926,-3.311
42.33,-68.541,-3.551
42.36,-72.191,-3.792
42.39,-75.7,-3.975
42.42,-79.245,-4.181
42.46,-82.684,-4.399
42.49,-86.159,-4.651
42.52,-89.423,-4.823
42.55,-92.476,-4.995
42.59,-95.248,-5.327
42.62,-97.881,-5.522
42.65,-100.407,-5.751
42.68,-103.04,-6.14
42.72,-106.023,-6.369
42.75,-109.181,-6.69
42.78,-112.41,-7.091
42.81,-115.604,-7.354
42.85,-118.657,-7.641
42.88,-121.675,-8.042
42.91,-124.799,-8.431
42.94,-127.782,-8.741
42.98,-130.8,-9.142
43.01,-133.958,-9.451
43.04,-137.082,-9.703
43.07,-140.17,-10.035
43.11,-143.188,-10.333
43.14,-145.996,-10.665
43.17,-148.804,-10.974
43.2,-151.822,-11.226
43.24,-154.805,-11.536
43.27,-157.718,-11.856
43.3,-160.666,-12.063
43.33,-163.474,-12.349
43.37,-166.386,-12.67
43.4,-169.159,-12.842
43.43,-171.861,-13.105
43.46,-174.704,-13.311
43.5,-177.477,-13.575
43.53,-180.284,-13.953
43.56,-182.986,-14.102
43.6,-185.583,-14.457
43.63,-188.216,-14.743
43.66,-190.742,-14.812
43.69,-193.059,-14.995
43.73,-195.235,-15.19
43.76,-197.516,-15.362
43.79,-199.973,-15.408
43.82,-202.254,-15.476
43.86,-204.324,-15.614
43.89,-206.325,-15.683
43.92,-208.325,-15.809
43.95,-210.396,-15.889
43.99,-212.326,-15.958
44.02,-214.256,-16.152
44.05,-216.081,-16.233
44.08,-217.941,-16.427
44.12,-219.872,-16.645
44.15,-221.767,-16.622
44.18,-223.451,-16.759
44.21,-225.171,-16.954
44.25,-226.961,-17.126
44.28,-228.68,-17.252
44.31,-230.225,-17.355
44.34,-231.523,-17.538
44.38,-233.102,-17.722
44.41,-234.752,-17.836
44.44,-236.401,-17.859
44.47,-237.981,-18.054
44.51,-239.525,-18.306
44.54,-240.929,-18.375
44.57,-242.438,-18.684
44.6,-244.052,-18.936
44.64,-245.386,-18.993
44.67,-246.544,-19.211
44.7,-248.053,-19.394
44.73,-249.527,-19.474
44.77,-251.001,-19.738
44.8,-252.475,-20.024
44.83,-253.773,-20.15
44.86,-254.967,-20.414
44.9,-256.335,-20.723
44.93,-257.599,-20.769
44.96,-258.546,-20.895
45.0,-259.81,-21.135
45.03,-261.108,-21.239
45.06,-262.196,-21.365
45.09,-263.179,-21.594
45.13,-264.442,-21.743
45.16,-265.636,-21.857
45.19,-266.829,-22.086
45.22,-267.952,-22.212
45.26,-268.9,-22.464
45.29,-269.952,-22.774
45.32,-271.146,-22.945
45.35,-272.304,-23.094
45.39,-273.392,-23.301
45.42,-274.234,-23.472
45.45,-274.971,-23.667
45.48,-275.848,-23.782
45.52,-276.62,-23.862
45.55,-277.428,-23.885
45.58,-278.41,-24.08
45.61,-279.253,-24.206
45.65,-279.709,-24.217
45.68,-280.06,-24.458
45.71,-280.727,-24.469
45.74,-281.358,-24.446
45.78,-281.779,-24.458
45.81,-282.236,-24.492
45.84,-282.481,-24.503
45.87,-282.797,-24.526
45.91,-283.253,-24.675
45.94,-283.464,-24.572
45.97,-283.218,-24.481
46.0,-283.148,-24.572
46.04,-283.113,-24.377
46.07,-282.867,-24.137
46.1,-282.481,-24.217
46.13,-282.376,-24.034
46.17,-282.06,-23.747
46.2,-281.464,-23.621
46.23,-280.797,-23.507
46.26,-280.06,-23.358
46.3,-279.218,-23.209
46.33,-278.586,-23.06
46.36,-278.094,-22.831
46.4,-277.322,-22.751
46.43,-276.129,-22.659
46.46,-275.076,-22.522
46.49,-274.094,-22.361
46.53,-273.076,-22.006
46.56,-271.637,-21.788
46.59,-270.338,-21.628
46.62,-269.145,-21.399
46.66,-267.847,-21.273
46.69,-266.513,-21.113
46.72,-265.039,-20.987
46.75,-263.425,-20.849
46.79,-261.81,-20.54
46.82,-260.196,-20.368
46.85,-258.546,-20.253
46.88,-256.862,-20.127
46.92,-255.318,-19.978
46.95,-253.738,-19.726
46.98,-251.949,-19.555
47.01,-250.089,-19.394
47.05,-248.123,-19.165
47.08,-246.228,-19.051
47.11,-244.473,-19.039
47.14,-242.719,-18.993
47.18,-240.894,-18.89
47.21,-239.104,-18.947
47.24,-237.349,-18.867
47.27,-235.489,-18.592
47.31,-233.418,-18.535
47.34,-231.383,-18.34
47.37,-229.417,-18.214
47.4,-227.557,-18.226
47.44,-225.627,-18.157
47.47,-223.837,-18.111
47.5,-222.083,-18.077
47.53,-219.942,-17.962
47.57,-217.625,-17.905
47.6,-215.59,-17.905
47.63,-213.695,-17.71
47.66,-211.694,-17.642
47.7,-209.659,-17.619
47.73,-207.693,-17.493
47.76,-205.763,-17.435
47.8,-203.763,-17.298
47.83,-201.482,-17.183
47.86,-199.165,-17.229
47.89,-197.305,-17.252
47.93,-195.445,-17.103
47.96,-193.375,-16.966
47.99,-191.234,-16.92
48.02,-189.128,-16.863
48.06,-186.707,-16.645
48.09,-184.425,-16.633
48.12,-182.355,-16.507
48.15,-180.144,-16.141
48.19,-177.827,-16.106
48.22,-175.511,-16.015
48.25,-173.16,-15.671
48.28,-170.844,-15.625
48.32,-168.246,-15.396
48.35,-165.579,-15.11
48.38,-163.087,-14.846
48.41,-160.631,-14.514
48.45,-158.104,-14.331
48.48,-155.577,-14.09
48.51,-152.769,-13.873
48.54,-150.067,-13.792
48.58,-147.4,-13.472
48.61,-144.417,-13.197
48.64,-141.328,-12.865
48.67,-138.38,-12.418
48.71,-135.783,-12.326
48.74,-133.186,-11.994
48.77,-130.203,-11.559
48.8,-126.939,-11.364
48.84,-123.886,-11.135
48.87,-120.903,-10.78
48.9,-117.744,-10.356
48.93,-114.445,-10.001
48.97,-111.182,-9.623
49.0,-107.918,-9.164
49.03,-104.514,-8.924
49.06,-101.25,-8.592
49.1,-97.81,-8.088
49.13,-94.336,-7.755
49.16,-90.756,-7.24
49.2,-87.036,-6.747
49.23,-83.421,-6.438
49.26,-79.842,-5.923
49.29,-76.122,-5.522
49.33,-72.472,-5.396
49.36,-69.032,-5.121
49.39,-65.593,-4.788
49.42,-62.224,-4.536
49.46,-58.855,-4.25
49.49,-55.38,-3.918
49.52,-51.976,-3.803
49.55,-48.396,-3.574
49.59,-44.957,-3.402
49.62,-41.658,-3.15
49.65,-38.359,-2.772
49.68,-36.464,-2.108
49.72,-40.465,-1.214
49.75,-41.869,0.768
49.78,-32.498,1.34
49.81,-25.304,0.573
49.85,-22.952,0.195
49.88,-20.039,0.722
49.91,-11.23,1.409
49.94,0.246,1.42
49.98,8.774,0.733
50.01,12.529,0.481
50.04,16.389,0.424
50.07,18.6,0.882
50.11,12.985,1.249
50.14,15.021,1.959
50.17,20.496,2.28
50.2,23.9,0.985
50.24,25.9,0.779
50.27,27.655,0.939
50.3,30.112,1.294
50.33,33.832,1.97
50.37,38.64,2.474
50.4,43.237,2.474
50.43,47.133,2.497
50.46,50.327,2.451
50.5,53.099,2.44
50.53,55.801,2.681
50.56,58.855,2.956
50.6,62.154,3.127
50.63,65.417,3.345
50.66,68.822,3.551
50.69,72.226,3.723
50.73,75.56,3.895
50.76,78.929,4.135
50.79,82.368,4.365
50.82,85.808,4.559
50.86,89.142,4.766
50.89,92.3,4.983
50.92,95.213,5.212
50.95,97.845,5.476
50.99,100.337,5.854
51.02,103.18,6.209
51.05,106.268,6.541
51.08,109.567,6.873
51.12,112.726,7.125
51.15,115.744,7.469
51.18,118.727,7.859
51.21,121.886,8.156
51.25,124.939,8.557
51.28,127.887,8.901
51.31,130.835,9.107
51.34,133.958,9.416
51.38,137.152,9.817
51.41,140.24,10.058
51.44,143.188,10.39
51.47,146.101,10.722
51.51,148.979,11.02
51.54,151.927,11.307
51.57,154.91,11.536
51.6,157.928,11.788
51.64,160.736,11.994
51.67,163.438,12.315
51.7,166.211,12.578
51.73,168.983,12.842
51.77,171.756,13.162
51.8,174.458,13.277
51.83,177.09,13.506
51.86,179.863,13.792
51.9,182.671,14.01
51.93,185.303,14.262
51.96,187.83,14.549
52.0,190.181,14.686
52.03,192.392,14.766
52.06,194.778,14.995
52.09,197.235,15.121
52.13,199.376,15.19
52.16,201.552,15.385
52.19,203.658,15.499
52.22,205.447,15.511
52.26,207.167,15.637
52.29,209.062,15.694
52.32,211.308,15.797
52.35,213.554,15.98
52.39,215.555,16.026
52.42,217.59,16.347
52.45,219.766,16.725
52.48,221.837,16.84
52.52,223.662,17.103
52.55,225.487,17.424
52.58,227.382,17.584
52.61,229.066,17.733
52.65,230.646,17.813
52.68,232.471,17.985
52.71,234.296,18.088
52.74,235.84,18.02
52.78,237.103,18.134
52.81,238.472,18.363
52.84,240.157,18.501
52.87,241.666,18.592
52.91,243.034,18.753
52.94,244.473,18.913
52.97,245.807,18.993
53.0,247.035,19.165
53.04,248.369,19.314
53.07,249.738,19.452
53.1,251.071,19.704
53.13,252.545,19.887
53.17,253.879,20.082
53.2,255.247,20.265
53.23,256.546,20.425
53.26,257.634,20.609
53.3,258.652,20.757
53.33,259.88,20.918
53.36,261.143,21.135
53.4,262.477,21.216
53.43,263.425,21.353
53.46,264.442,21.617
53.49,265.811,21.8
53.53,267.075,22.006
53.56,268.057,22.166
53.59,269.04,22.373
53.62,270.198,22.625
53.66,271.251,22.785
53.69,272.444,23.071
53.72,273.567,23.232
53.75,274.48,23.438
53.79,275.287,23.667
53.82,275.989,23.724
53.85,276.866,23.873
53.88,277.779,23.885
53.92,278.551,23.954
53.95,279.288,24.206
53.98,280.025,24.228
54.01,280.727,24.274
54.05,281.429,24.469
54.08,281.92,24.492
54.11,282.201,24.469
54.14,282.481,24.549
54.18,283.183,24.618
54.21,283.604,24.595
54.24,283.675,24.549
54.27,283.604,24.458
54.31,283.745,24.423
54.34,283.815,24.343
54.37,283.534,24.091
54.4,283.148,24.045
54.44,283.043,24.08
54.47,283.148,24.011
54.5,282.797,23.805
54.53,281.99,23.576
54.57,281.148,23.507
54.6,280.656,23.472
54.63,280.06,23.209
54.66,279.112,22.945
54.7,278.375,23.014
54.73,277.744,22.819
54.76,276.796,22.487
54.8,275.462,22.304
54.83,274.129,22.098
54.86,272.9,21.846
54.89,271.567,21.594
54.93,270.198,21.433
54.96,268.9,21.216
54.99,267.461,20.941
55.02,266.022,20.757
55.06,264.723,20.654
55.09,263.249,20.494
55.12,261.53,20.23
55.15,259.634,19.978
55.19,258.055,19.933
55.22,256.581,19.875
55.25,255.072,19.784
55.28,253.493,19.692
55.32,251.808,19.429
55.35,249.878,19.36
55.38,248.088,19.326
55.41,246.263,19.039
55.45,244.473,19.188
55.48,242.859,19.142
55.51,240.964,18.81
55.54,238.893,18.902
55.58,237.138,18.833
55.61,235.033,18.398
55.64,232.857,18.329
55.67,231.032,18.317
55.71,229.312,18.123
55.74,227.417,18.065
55.77,225.381,18.123
55.8,223.732,18.26
55.84,222.188,18.295
55.87,220.363,18.317
55.9,218.362,18.237
55.93,216.397,18.123
55.97,214.572,18.1
56.0,212.747,18.02
56.03,210.887,17.962
56.06,208.922,17.962
56.1,206.886,17.871
56.13,204.886,17.859
56.16,202.64,17.699
56.2,200.323,17.516
56.23,198.428,17.435
56.26,196.603,17.195
56.29,194.252,17.034
56.33,191.971,16.966
56.36,189.795,16.748
56.39,187.549,16.714
56.42,185.408,16.507
56.46,183.022,16.175
56.49,180.53,16.038
56.52,178.178,15.912
56.55,175.827,15.786
56.59,173.37,15.568
56.62,170.808,15.293
56.65,168.141,15.121
56.68,165.509,14.915
56.72,162.912,14.675
56.75,160.385,14.331
56.78,157.893,14.125
56.81,155.331,13.976
56.85,152.489,13.689
56.88,149.541,13.472
56.91,146.628,13.151
56.94,143.89,12.796
56.98,141.048,12.487
57.01,137.924,12.28
57.04,134.941,12.051
57.07,132.414,11.822
57.11,129.677,11.513
57.14,126.729,11.181
57.17,123.605,10.929
57.2,120.412,10.699
57.24,117.148,10.39
57.27,113.989,9.943
57.3,110.866,9.657
57.33,107.567,9.325
57.37,104.128,8.947
57.4,100.688,8.603
57.43,97.389,8.294
57.46,94.055,7.847
57.5,90.511,7.274
57.53,86.826,6.885
57.56,83.246,6.598
57.6,79.807,6.197
57.63,76.297,5.923
57.66,72.893,5.659
57.69,69.348,5.304
57.73,65.839,5.029
57.76,62.469,4.674
57.79,58.925,4.273
57.82,55.31,4.101
57.86,51.941,3.929
57.89,48.361,3.643
57.92,44.746,3.402
57.95,41.202,3.219
57.99,37.762,3.013
58.02,36.955,2.612
58.05,42.255,1.02
58.08,43.658,-0.825
58.12,34.428,-1.375
58.15,27.339,-0.561
58.18,25.339,-0.241
58.21,22.636,-0.722
58.25,13.792,-1.512
58.28,1.93,-1.466
58.31,-7.23,-0.939
58.34,-11.546,-0.481
58.38,-16.179,-0.779
58.41,-18.987,-0.378
58.44,-12.88,-1.764
58.47,-16.039,-2.543
58.51,-22.11,-1.65
58.54,-25.444,-1.512
58.57,-26.953,-0.733
58.6,-27.901,-0.664
58.64,-29.691,-1.18
58.67,-32.849,-1.879
58.7,-37.236,-2.245
58.73,-41.798,-2.429
58.77,-45.729,-2.394
58.8,-49.063,-2.348
58.83,-52.046,-2.451
58.86,-55.205,-2.738
58.9,-58.609,-2.99
58.93,-62.259,-3.253
58.96,-65.909,-3.505
59.0,-69.489,-3.723
59.03,-72.998,-3.849
59.06,-76.227,-4.021
59.09,-79.42,-4.204
59.13,-82.755,-4.41
59.16,-85.983,-4.594
59.19,-89.107,-4.8
59.22,-92.09,-4.995
59.26,-94.897,-5.166
59.29,-97.565,-5.407
59.32,-100.162,-5.682
59.35,-103.075,-5.945
59.39,-106.058,-6.163
59.42,-109.111,-6.392
59.45,-112.164,-6.782
59.48,-115.182,-7.045
59.52,-118.166,-7.423
59.55,-121.184,-7.847
59.58,-124.167,-8.111
59.61,-127.185,-8.42
59.65,-130.344,-8.832
59.68,-133.643,-9.142
59.71,-136.836,-9.462
59.74,-139.96,-9.932
59.78,-142.978,-10.173
59.81,-145.786,-10.573
59.84,-149.014,-11.009
59.87,-152.278,-11.364
59.91,-155.296,-11.57
59.94,-157.964,-11.891
59.97,-160.876,-12.315
60.0,-164.175,-12.601
60.04,-167.123,-12.716
60.07,-169.685,-12.979
60.1,-172.282,-13.323
60.13,-175.02,-13.506
60.17,-178.038,-13.781
60.2,-181.021,-14.067
60.23,-183.688,-14.182
60.26,-186.25,-14.445
60.3,-188.812,-14.789
60.33,-191.304,-14.869
60.36,-193.62,-14.984
60.4,-196.042,-15.247
60.43,-198.323,-15.213
60.46,-200.569,-15.35
60.49,-202.815,-15.568
60.53,-204.851,-15.499
60.56,-206.641,-15.683
60.59,-208.571,-15.728
60.62,-210.466,-15.694
60.66,-212.326,-15.877
60.69,-214.397,-15.935
60.72,-216.257,-16.049
60.75,-218.152,-16.221
60.79,-220.012,-16.278
60.82,-221.767,-16.439
60.85,-223.451,-16.565
60.88,-225.206,-16.759
60.92,-226.996,-16.92
60.95,-228.751,-17.069
60.98,-230.435,-17.218
61.01,-232.295,-17.47
61.05,-234.225,-17.813
61.08,-235.84,-17.825
61.11,-237.033,-17.905
61.14,-238.507,-18.363
61.18,-240.192,-18.432
61.21,-241.771,-18.466
61.24,-243.42,-18.833
61.27,-245.07,-18.844
61.31,-246.228,-18.947
61.34,-247.456,-19.28
61.37,-248.755,-19.303
61.4,-250.159,-19.474
61.44,-251.703,-19.726
61.47,-253.072,-19.864
61.5,-254.23,-20.082
61.53,-255.669,-20.311
61.57,-257.037,-20.483
61.6,-258.09,-20.631
61.63,-259.248,-20.792
61.66,-260.512,-20.941
61.7,-261.565,-21.021
61.73,-262.512,-21.135
61.76,-263.67,-21.33
61.8,-264.899,-21.491
61.83,-266.162,-21.708
61.86,-267.215,-22.018
61.89,-268.268,-22.166
61.93,-269.215,-22.338
61.96,-270.163,-22.51
61.99,-271.251,-22.705
62.02,-272.479,-22.888
62.06,-273.567,-23.06
62.09,-274.374,-23.289
62.12,-275.217,-23.301
62.15,-275.989,-23.438
62.19,-276.831,-23.564
62.22,-277.533,-23.507
62.25,-278.235,-23.69
62.28,-278.937,-23.885
62.32,-279.604,-23.908
62.35,-280.06,-24.068
62.38,-280.586,-24.114
62.41,-281.113,-24.183
62.45,-281.534,-24.24
62.48,-281.779,-24.206
62.51,-281.99,-24.274
62.54,-282.201,-24.194
62.58,-282.657,-24.354
62.61,-282.903,-24.366
62.64,-283.043,-24.286
62.67,-283.008,-24.343
62.71,-282.762,-24.125
62.74,-282.587,-24.102
62.77,-282.587,-24.183
62.8,-282.446,-23.999
62.84,-281.92,-23.931
62.87,-281.393,-23.782
62.9,-280.797,-23.472
62.93,-280.025,-23.335
62.97,-279.147,-23.049
63.0,-278.516,-22.888
63.03,-278.024,-22.728
63.06,-277.182,-22.522
63.1,-276.059,-22.419
63.13,-274.936,-22.292
63.16,-273.953,-22.166
63.2,-272.9,-21.926
63.23,-271.637,-21.731
63.26,-270.268,-21.605
63.29,-268.9,-21.41
63.33,-267.636,-21.25
63.36,-266.338,-21.055
63.39,-264.864,-20.815
63.42,-263.144,-20.597
63.46,-261.389,-20.402
63.49,-259.915,-20.265
63.52,-258.266,-20.07
63.55,-256.651,-19.864
63.59,-255.037,-19.807
63.62,-253.387,-19.635
63.65,-251.598,-19.555
63.68,-249.948,-19.486
63.72,-248.088,-19.188
63.75,-246.088,-19.142
63.78,-244.333,-19.085
63.81,-242.683,-18.913
63.85,-240.823,-18.753
63.88,-238.998,-18.764
63.91,-237.279,-18.776
63.94,-235.489,-18.627
63.98,-233.594,-18.569
64.01,-231.664,-18.569
64.04,-229.979,-18.501
64.07,-228.119,-18.409
64.11,-226.013,-18.317
64.14,-224.083,-18.249
64.17,-222.398,-18.249
64.2,-220.328,-17.974
64.24,-218.011,-17.813
64.27,-216.081,-17.905
64.3,-214.116,-17.607
64.33,-212.115,-17.527
64.37,-210.01,-17.642
64.4,-207.904,-17.39
64.43,-206.009,-17.39
64.46,-204.044,-17.412
64.5,-201.657,-17.172
64.53,-199.446,-17.172
64.56,-197.586,-17.126
64.6,-195.586,-16.931
64.63,-193.375,-16.92
64.66,-191.479,-16.954
64.69,-189.198,-16.622
64.73,-186.777,-16.519
64.76,-184.671,-16.576
64.79,-182.425,-16.187
64.82,-180.003,-16.129
64.86,-177.827,-16.118
64.89,-175.546,-15.774
64.92,-173.055,-15.74
64.95,-170.808,-15.625
64.99,-168.246,-15.167
65.02,-165.72,-15.007
65.05,-163.087,-14.812
65.08,-160.315,-14.388
65.12,-157.718,-14.274
65.15,-155.261,-13.987
65.18,-152.629,-13.678
65.21,-149.892,-13.563
65.25,-146.873,-13.197
65.28,-143.82,-12.865
65.31,-140.942,-12.601
65.34,-138.17,-12.2
65.38,-135.397,-12.063
65.41,-132.484,-11.834
65.44,-129.361,-11.33
65.47,-126.062,-10.986
65.51,-123.009,-10.768
65.54,-120.026,-10.39
65.57,-116.727,-9.989
65.6,-113.568,-9.749
65.64,-110.445,-9.416
65.67,-107.216,-9.153
65.7,-103.952,-8.798
65.73,-100.618,-8.385
65.77,-97.214,-8.111
65.8,-93.704,-7.629
65.83,-89.984,-7.24
65.86,-86.51,-6.931
65.9,-83.07,-6.484
65.93,-79.526,-6.049
65.96,-75.806,-5.682
66.0,-72.331,-5.361
66.03,-68.822,-5.075
66.06,-65.312,-4.811
66.09,-62.083,-4.605
66.13,-58.855,-4.433
66.16,-55.556,-4.158
66.19,-52.257,-3.918
66.22,-48.782,-3.849
66.26,-45.273,-3.631
66.29,-41.693,-3.276
66.32,-38.148,-3.127
66.35,-36.148,-2.669
66.39,-40.009,-1.306
66.42,-42.781,0.607
66.45,-33.832,1.466
66.48,-24.883,0.745
66.52,-21.654,0.241
66.55,-19.302,0.55
66.58,-11.722,1.34
66.61,-0.316,1.398
66.65,8.528,0.848
66.68,12.248,0.309
66.71,15.056,0.561
66.74,18.46,0.367
66.78,12.88,1.512
66.81,14.214,2.417
66.84,19.969,1.753
66.87,23.654,1.466
66.91,26.076,0.859
66.94,27.515,0.733
66.97,29.726,1.146
67.0,33.165,1.776
67.04,37.622,2.268
67.07,42.255,2.474
67.1,46.326,2.429
67.13,49.59,2.451
67.17,52.713,2.543
67.2,55.872,2.761
67.23,59.206,3.013
67.26,62.645,3.299
67.3,66.26,3.586
67.33,69.91,3.815
67.36,73.454,3.964
67.4,76.859,4.078
67.43,80.052,4.261
67.46,83.176,4.433
67.49,86.264,4.617
67.53,89.177,4.834
67.56,91.844,4.983
67.59,94.511,5.281
67.62,97.319,5.567
67.66,100.197,5.705
67.69,103.004,6.094
67.72,106.058,6.381
67.75,109.357,6.644
67.79,112.48,7.011
67.82,115.604,7.32
67.85,118.587,7.652
67.88,121.535,7.985
67.92,124.518,8.294
67.95,127.571,8.626
67.98,130.73,8.832
68.01,133.958,9.256
68.05,137.292,9.68
68.08,140.276,9.829
68.11,143.329,10.379
68.14,146.417,10.722
68.18,149.19,10.963
68.21,151.892,11.364
68.24,154.945,11.685
68.27,157.893,11.925
68.31,160.666,12.143
68.34,163.474,12.406
68.37,166.176,12.498
68.4,168.983,12.75
68.44,171.967,13.117
68.47,174.739,13.197
68.5,177.266,13.495
68.53,180.074,13.884
68.57,182.881,14.01
68.6,185.478,14.274
68.63,188.075,14.571
68.66,190.497,14.64
68.7,192.743,14.892
68.73,195.235,15.156
68.76,197.586,15.121
68.8,199.692,15.259
68.83,202.043,15.499
68.86,204.289,15.476
68.89,206.114,15.511
68.93,207.974,15.602
68.96,209.975,15.66
68.99,212.08,15.82
69.02,214.081,16.015
69.06,215.976,16.141
69.09,217.906,16.347
69.12,219.977,16.565
69.15,221.977,16.645
69.19,223.662,16.828
69.22,225.522,17.092
69.25,227.382,17.286
69.28,229.207,17.481
69.32,231.032,17.756
69.35,233.032,17.951
69.38,235.033,18.168
69.41,237.103,18.466
69.45,238.858,18.604
69.48,240.437,18.867
69.51,242.262,19.177
69.54,243.982,19.303
69.58,245.702,19.589
69.61,247.456,19.875
69.64,249.176,20.013
69.67,250.79,20.265
69.71,252.58,20.494
69.74,254.16,20.666
69.77,255.844,20.918
69.8,257.564,21.055
69.84,259.003,21.193
69.87,260.301,21.468
69.9,261.67,21.662
69.93,262.898,21.662
69.97,263.951,21.64
70.0,265.144,21.743
70.03,266.689,21.96
70.06,268.127,22.04
70.1,269.286,22.166
70.13,270.444,22.43
70.16,271.461,22.522
70.2,272.304,22.51
70.23,273.076,22.567
70.26,274.059,22.716
70.29,275.146,22.842
70.33,276.024,22.957
70.36,276.971,23.049
70.39,277.849,23.129
70.42,278.445,23.106
70.46,279.042,23.197
70.49,279.568,23.209
70.52,280.235,23.197
70.55,280.937,23.323
70.59,281.569,23.358
70.62,282.095,23.484
70.65,282.481,23.507
70.68,282.727,23.438
70.72,282.973,23.564
70.75,283.218,23.564
70.78,283.534,23.495
70.81,283.815,23.507
70.85,284.061,23.507
70.88,284.166,23.656
70.91,284.341,23.793
70.94,284.412,23.724
70.98,284.306,23.702
71.01,284.341,23.736
71.04,284.026,23.621
71.07,283.78,23.553
71.11,283.885,23.541
71.14,283.815,23.404
71.17,283.183,23.278
71.2,282.236,23.129
71.24,281.499,23.071
71.27,280.832,22.888
71.3,280.13,22.613
71.33,279.288,22.464
71.37,278.375,22.407
71.4,277.498,22.292
71.43,276.585,22.121
71.46,275.322,21.857
71.5,273.953,21.594
71.53,272.585,21.296
71.56,271.04,21.021
71.6,269.496,20.838
71.63,268.198,20.723
71.66,266.969,20.643
71.69,265.671,20.437
71.73,264.091,20.265
71.76,262.442,20.059
71.79,260.477,19.818
71.82,256.862,18.821
71.86,251.071,16.885
71.89,245.737,15.969
71.92,243.385,15.74
71.95,241.42,14.4
71.99,237.349,13.369
72.02,233.243,13.586
72.05,231.348,13.827
72.08,229.944,14.056
72.12,227.873,14.732
72.15,226.189,15.476
72.18,226.048,16.221
72.21,226.82,16.943
72.25,227.101,17.481
72.28,226.083,18.042
72.31,224.364,18.65
72.34,223.311,19.28
72.38,222.855,19.841
72.41,222.293,20.047
72.44,221.1,20.162
72.47,219.942,20.379
72.51,218.959,20.586
72.54,217.836,20.54
72.57,216.257,20.425
72.6,214.537,20.379
72.64,213.063,20.242
72.67,211.378,20.047
72.7,209.589,19.944
72.73,207.729,19.715
72.77,205.798,19.486
72.8,203.868,19.222
72.83,201.833,18.867
72.86,199.832,18.65
72.9,198.288,18.695
72.93,196.954,18.627
72.96,195.305,18.569
73.0,193.48,18.695
73.03,191.62,18.581
73.06,189.304,18.134
73.09,186.812,17.928
73.13,184.46,17.538
73.16,182.004,17.034
73.19,179.442,16.737
73.22,176.915,16.393
73.26,174.529,16.198
73.29,172.247,15.992
73.32,169.931,15.843
73.35,167.369,15.706
73.39,164.877,15.385
73.42,162.28,15.133
73.45,159.543,14.778
73.48,156.735,14.308
73.52,153.752,13.93
73.55,150.558,13.483
73.58,147.821,13.14
73.61,145.154,12.761
73.65,142.241,12.303
73.68,138.942,11.994
73.71,135.713,11.799
73.74,132.765,11.57
73.78,129.958,11.284
73.81,126.974,10.986
73.84,123.921,10.665
73.87,120.692,10.333
73.91,117.323,10.035
73.94,114.095,9.737
73.97,111.111,9.451
74.0,108.128,9.084
74.04,105.005,8.844
74.07,101.671,8.603
74.1,98.232,8.317
74.13,94.827,8.042
74.17,91.563,7.71
74.2,88.054,7.297
74.23,84.439,6.862
74.26,80.894,6.392
74.3,77.209,5.945
74.33,73.63,5.522
74.36,70.155,5.258
74.4,66.716,4.949
74.43,63.171,4.513
74.46,59.697,4.319
74.49,56.538,4.261
74.53,53.169,3.964
74.56,49.765,3.883
74.59,46.396,3.735
74.62,42.886,3.402
74.66,39.447,3.15
74.69,38.57,2.944
74.72,43.097,1.398
74.75,43.518,-1.008
74.79,33.516,-1.409
74.82,26.006,-0.642
74.85,23.373,-0.309
74.88,20.039,-0.779
74.92,11.125,-1.466
74.95,-0.281,-1.432
74.98,-8.598,-0.722
75.01,-11.125,-0.332
75.05,-14.389,-0.527
75.08,-15.337,-0.573
75.11,-11.301,-1.226
75.14,-14.845,-1.959
75.18,-19.618,-1.432
75.21,-22.391,-0.79
75.24,-24.075,-0.676
75.27,-25.935,-0.779
75.31,-28.778,-1.272
75.34,-32.99,-1.913
75.37,-37.833,-2.291
75.4,-42.606,-2.394
75.44,-46.642,-2.429
75.47,-50.046,-2.429
75.5,-53.099,-2.509
75.53,-56.117,-2.795
75.57,-59.241,-3.059
75.6,-62.54,-3.23
75.63,-65.909,-3.517
75.66,-69.278,-3.689
75.7,-72.542,-3.815
75.73,-75.63,-3.952
75.76,-78.859,-4.204
75.8,-82.158,-4.387
75.83,-85.457,-4.559
75.86,-88.721,-4.823
75.89,-91.844,-5.029
75.93,-94.511,-5.063
75.96,-97.108,-5.35
75.99,-100.021,-5.716
76.02,-102.899,-5.9
76.06,-105.742,-6.117
76.09,-108.655,-6.495
76.12,-111.848,-6.839
76.15,-115.077,-7.137
76.19,-118.13,-7.572
76.22,-120.973,-7.801
76.25,-123.781,-8.145
76.28,-126.834,-8.477
76.32,-129.817,-8.672
76.35,-132.941,-9.142
76.38,-136.169,-9.485
76.41,-139.047,-9.634
76.45,-141.785,-10.012
76.48,-144.698,-10.402
76.51,-147.821,-10.665
76.54,-150.804,-10.963
76.58,-153.928,-11.238
76.61,-156.946,-11.547
76.64,-159.789,-11.994
76.67,-162.842,-12.326
76.71,-165.755,-12.624
76.74,-168.527,-12.968
76.77,-171.475,-13.243
76.8,-174.353,-13.472
76.84,-177.406,-13.735
76.87,-180.46,-14.09
76.9,-183.197,-14.411
76.93,-185.654,-14.64
76.97,-188.04,-14.995
77.0,-190.813,-15.27
77.03,-193.375,-15.259
77.06,-195.586,-15.362
77.1,-198.042,-15.591
77.13,-200.394,-15.614
77.16,-202.57,-15.694
77.2,-204.745,-15.912
77.23,-206.711,-15.809
77.26,-208.501,-15.854
77.29,-210.606,-15.992
77.33,-212.712,-16.026
77.36,-214.502,-16.118
77.39,-216.292,-16.404
77.42,-218.398,-16.553
77.46,-220.328,-16.599
77.49,-222.223,-16.805
77.52,-223.943,-16.84
77.55,-225.487,-16.966
77.59,-227.136,-17.172
77.62,-228.856,-17.252
77.65,-230.576,-17.344
77.68,-232.401,-17.642
77.72,-234.085,-17.687
77.75,-235.524,-17.859
77.78,-237.138,-18.157
77.81,-238.893,-18.18
77.85,-240.578,-18.409
77.88,-242.227,-18.695
77.91,-243.491,-18.764
77.94,-244.789,-19.131
77.98,-246.474,-19.394
78.01,-247.842,-19.268
78.04,-249.071,-19.52
78.07,-250.439,-19.818
78.11,-251.843,-19.818
78.14,-253.036,-19.887
78.17,-254.335,-20.047
78.2,-255.774,-20.082
78.24,-256.897,-20.208
78.27,-258.125,-20.414
78.3,-259.143,-20.528
78.33,-260.02,-20.735
78.37,-261.143,-20.964
78.4,-262.372,-21.147
78.43,-263.39,-21.181
78.46,-264.548,-21.491
78.5,-265.881,-21.766
78.53,-267.11,-21.811
78.56,-268.092,-22.086
78.6,-269.04,-22.361
78.63,-270.163,-22.464
78.66,-271.356,-22.774
78.69,-272.479,-23.037
78.73,-273.532,-23.209
78.76,-274.48,-23.415
78.79,-275.392,-23.518
78.82,-276.094,-23.61
78.86,-276.831,-23.828
78.89,-277.708,-23.919
78.92,-278.481,-23.976
78.95,-279.077,-24.045
78.99,-279.919,-24.194
79.02,-280.586,-24.183
79.05,-281.078,-24.286
79.08,-281.499,-24.458
79.12,-281.744,-24.354
79.15,-282.095,-24.354
79.18,-282.516,-24.412
79.21,-283.008,-24.458
79.25,-283.148,-24.354
79.28,-283.289,-24.309
79.31,-283.429,-24.286
79.34,-283.324,-24.16
79.38,-282.832,-24.091
79.41,-282.516,-23.908
79.44,-282.481,-23.885
79.47,-282.271,-23.805
79.51,-281.779,-23.61
79.54,-281.148,-23.541
79.57,-280.656,-23.358
79.6,-280.2,-23.209
79.64,-279.358,-22.968
79.67,-278.34,-22.9
79.7,-277.568,-22.774
79.73,-276.936,-22.648
79.77,-276.164,-22.636
79.8,-275.146,-22.384
79.83,-274.023,-22.27
79.86,-272.865,-22.052
79.9,-271.532,-21.674
79.93,-270.198,-21.548
79.96,-268.97,-21.41
80.0,-267.601,-21.204
80.03,-266.197,-21.067
80.06,-264.899,-20.941
80.09,-263.39,-20.757
80.13,-261.6,-20.551
80.16,-259.88,-20.368
80.19,-258.371,-20.276
80.22,-256.932,-20.047
80.26,-255.353,-19.795
80.29,-253.703,-19.669
80.32,-251.808,-19.486
80.35,-249.808,-19.337
80.39,-247.983,-19.326
80.42,-246.193,-19.108
80.45,-244.368,-18.936
80.48,-242.789,-18.993
80.52,-241.069,-18.856
80.55,-239.139,-18.741
80.58,-237.244,-18.867
80.61,-235.559,-18.764
80.65,-233.875,-18.627
80.68,-232.014,-18.695
80.71,-230.19,-18.558
80.74,-228.049,-18.375
80.78,-226.013,-18.409
80.81,-224.083,-18.295
80.84,-221.977,-18.1
80.87,-219.872,-18.02
80.91,-217.836,-17.79
80.94,-215.8,-17.561
80.97,-213.8,-17.584
81.0,-211.765,-17.504
81.04,-209.764,-17.504
81.07,-207.869,-17.527
81.1,-205.869,-17.344
81.13,-203.728,-17.321
81.17,-201.657,-17.264
81.2,-199.481,-17.092
81.23,-197.305,-17.0
81.26,-195.515,-17.126
81.3,-193.796,-16.954
81.33,-191.444,-16.748
81.36,-189.128,-16.863
81.4,-186.987,-16.691
81.43,-184.566,-16.496
81.46,-182.46,-16.519
81.49,-180.284,-16.141
81.53,-177.722,-15.923
81.56,-175.301,-15.969
81.59,-173.195,-15.706
81.62,-170.703,-15.316
81.66,-167.896,-15.087
81.69,-164.912,-14.675
81.72,-162.14,-14.526
81.75,-159.824,-14.365
81.79,-157.402,-13.964
81.82,-154.735,-13.792
81.85,-152.032,-13.495
81.88,-149.26,-13.3
81.92,-146.487,-13.174
81.95,-143.961,-12.956
81.98,-141.118,-12.681
82.01,-137.994,-12.464
82.05,-134.906,-12.246
82.08,-132.239,-11.925
82.11,-129.642,-11.57
82.14,-126.553,-11.192
82.18,-123.36,-10.894
82.21,-120.201,-10.677
82.24,-117.078,-10.276
82.27,-113.779,-9.909
82.31,-110.445,-9.577
82.34,-107.146,-9.187
82.37,-103.777,-8.763
82.4,-100.513,-8.385
82.44,-97.073,-7.939
82.47,-93.459,-7.561
82.5,-89.914,-7.171
82.53,-86.475,-6.782
82.57,-82.93,-6.404
82.6,-79.526,-6.037
82.63,-76.192,-5.716
82.66,-72.542,-5.384
82.7,-68.752,-5.052
82.73,-65.347,-4.88
82.76,-62.119,-4.525
82.8,-58.749,-4.158
82.83,-55.275,-4.021
82.86,-51.871,-3.723
82.89,-48.396,-3.402
82.93,-44.992,-3.345
82.96,-41.483,-3.047
82.99,-37.938,-2.978
83.02,-36.745,-2.52
83.06,-41.518,-0.951
83.09,-42.5,0.836
83.12,-32.779,1.363
83.15,-25.62,0.515
83.19,-23.303,0.229
83.22,-20.496,0.664
83.25,-11.652,1.466
83.28,0.0,1.386
83.32,8.528,0.756
83.35,11.862,0.344
83.38,15.652,0.63
83.41,18.039,0.321
83.45,11.932,1.661
83.48,14.319,2.199
83.51,19.408,1.42
83.54,22.636,1.168
83.58,24.812,0.664
83.61,26.778,0.848
83.64,29.726,1.409
83.67,33.902,2.016
83.71,38.85,2.383
83.74,43.623,2.566
83.77,47.765,2.623
83.8,51.274,2.681
83.84,54.433,2.726
83.87,57.486,2.978
83.9,60.75,3.299
83.93,64.189,3.505
83.97,67.558,3.677
84.0,70.822,3.838
84.03,73.946,3.975
84.06,76.964,4.101
84.1,79.877,4.239
84.13,82.86,4.456
84.16,85.808,4.628
84.2,88.545,4.72
84.23,91.353,4.949
84.26,94.231,5.201
84.29,97.249,5.476
84.33,100.267,5.716
84.36,103.215,6.003
84.39,105.952,6.186
84.42,108.865,6.449
84.46,112.129,6.954
84.49,115.358,7.16
84.52,118.201,7.389
84.55,121.078,7.824
84.59,124.202,8.237
84.62,127.606,8.66
84.65,131.046,9.05
84.68,134.064,9.302
84.72,136.942,9.783
84.75,139.925,10.207
84.78,142.873,10.493
84.81,146.136,10.883
84.85,149.26,11.135
84.88,152.103,11.238
84.91,154.91,11.513
84.94,157.928,11.879
84.98,160.947,12.109
85.01,163.684,12.338
85.04,166.492,12.693
85.07,169.264,12.968
85.11,171.967,13.128
85.14,174.634,13.403
85.17,177.406,13.724
85.2,180.319,13.93
85.24,183.232,14.216
85.27,185.934,14.468
85.3,188.286,14.583
85.33,190.637,14.881
85.37,193.059,15.075
85.4,195.27,15.075
85.43,197.621,15.396
85.46,200.113,15.488
85.5,202.289,15.385
85.53,204.289,15.602
85.56,206.36,15.717
85.6,208.185,15.58
85.63,209.975,15.728
85.66,212.186,16.061
85.69,214.607,16.21
85.73,216.818,16.416
85.76,218.959,16.714
85.79,221.03,17.011
85.82,223.17,17.298
85.86,224.96,17.378
85.89,226.54,17.538
85.92,228.47,17.79
85.95,230.4,17.768
85.99,231.909,17.871
86.02,233.559,18.1
86.05,235.349,18.123
86.08,236.963,18.237
86.12,238.542,18.34
86.15,239.841,18.306
86.18,241.174,18.501
86.21,242.683,18.627
86.25,244.087,18.581
86.28,245.14,18.695
86.31,246.544,18.993
86.34,247.702,18.947
86.38,248.544,18.982
86.41,249.562,19.257
86.44,250.72,19.199
86.47,251.633,19.222
86.51,252.896,19.44
86.54,254.124,19.52
86.57,255.072,19.6
86.6,256.02,19.864
86.64,257.037,19.933
86.67,258.02,20.036
86.7,259.213,20.322
86.73,260.406,20.448
86.77,261.459,20.735
86.8,262.582,21.009
86.83,263.67,21.227
86.86,264.723,21.617
86.9,265.987,21.892
86.93,267.285,22.075
86.96,268.513,22.35
87.0,269.566,22.556
87.03,270.654,22.842
87.06,271.812,23.152
87.09,272.83,23.335
87.13,273.848,23.644
87.16,274.936,23.793
87.19,276.024,24.034
87.22,276.796,24.034
87.26,277.217,24.068
87.29,277.884,24.297
87.32,279.042,24.377
87.35,279.955,24.515
87.39,280.516,24.607
87.42,280.867,24.629
87.45,281.288,24.698
87.48,281.779,24.664
87.52,282.271,24.744
87.55,282.622,24.904
87.58,282.973,24.927
87.61,283.394,24.904
87.65,283.675,24.778
87.68,283.675,24.778
87.71,283.499,24.744
87.74,283.429,24.538
87.78,283.359,24.446
87.81,283.078,24.377
87.84,282.657,24.171
87.87,282.06,24.034
87.91,281.393,23.873
87.94,280.867,23.724
87.97,280.27,23.541
88.0,279.533,23.22
88.04,278.691,22.968
88.07,277.708,22.842
88.1,276.656,22.648
88.13,275.708,22.338
88.17,274.48,22.178
88.2,273.076,21.914
88.23,271.672,21.628
88.26,270.163,21.422
88.3,268.864,21.227
88.33,267.566,21.09
88.36,266.092,20.872
88.4,264.267,20.505
88.43,262.091,20.162
88.46,259.775,19.726
88.49,257.669,19.36
88.53,256.09,19.131
88.56,254.546,18.867
88.59,252.51,18.569
88.62,250.545,18.65
88.66,249.141,18.879
88.69,247.667,18.753
88.72,245.947,18.787
88.75,244.473,19.073
88.79,243.069,19.016
88.82,241.595,19.119
88.85,240.508,19.383
88.88,239.244,19.337
88.92,237.805,19.417
88.95,236.472,19.623
88.98,234.822,19.474
89.01,232.646,19.44
89.05,230.505,19.463
89.08,228.575,19.211
89.11,226.75,19.028
89.14,224.995,18.833
89.18,223.135,18.592
89.21,221.135,18.547
89.24,219.135,18.421
89.27,216.959,18.226
89.31,214.783,18.283
89.34,212.747,18.065
89.37,210.712,17.802
89.4,208.781,17.928
89.44,206.781,17.699
89.47,204.359,17.424
89.5,202.219,17.458
89.53,200.218,17.252
89.57,197.797,16.931
89.6,195.586,17.08
89.63,193.866,17.08
89.66,192.006,16.748
89.7,189.83,16.817
89.73,187.444,16.645
89.76,184.882,16.347
89.8,182.565,16.404
89.83,180.389,16.164
89.86,177.827,15.843
89.89,175.371,15.82
89.93,173.055,15.591
89.96,170.457,15.35
89.99,168.001,15.247
90.02,165.614,14.892
90.06,162.877,14.526
90.09,160.034,14.354
90.12,157.402,14.274
90.15,155.051,14.102
90.19,152.454,13.85
90.22,149.681,13.586
90.25,146.944,13.288
90.28,144.312,13.059
90.32,141.574,12.922
90.35,138.837,12.658
90.38,136.064,12.475
90.41,133.362,12.223
90.45,130.589,11.983
90.48,127.676,11.822
90.51,124.448,11.456
90.54,121.359,11.135
90.58,118.201,10.699
90.61,114.691,10.138
90.64,111.357,9.806
90.67,108.163,9.416
90.71,104.829,8.947
90.74,101.285,8.592
90.77,97.74,8.099
90.8,94.196,7.675
90.84,90.686,7.24
90.87,86.966,6.747
90.9,83.281,6.404
90.93,79.736,6.083
90.97,76.297,5.716
91.0,72.858,5.35
91.03,69.313,4.926
91.06,65.488,4.754
91.1,61.768,4.513
91.13,58.363,4.158
91.16,54.994,3.895
91.2,51.695,3.62
91.23,48.256,3.334
91.26,44.711,3.265
91.29,41.167,3.036
91.33,37.762,2.841
91.36,36.815,1.947
91.39,41.026,0.836
91.42,42.711,-0.653
91.46,34.077,-1.409
91.49,26.041,-0.745
91.52,22.882,-0.321
91.55,20.11,-0.699
91.59,12.038,-1.398
91.62,0.877,-1.466
91.65,-8.107,-0.859
91.68,-11.967,-0.504
91.72,-15.582,-0.424
91.75,-16.986,-1.008
91.78,-12.529,-1.753
91.81,-15.547,-1.776
91.85,-21.127,-2.005
91.88,-24.918,-1.432
91.91,-26.988,-0.848
91.94,-28.743,-0.974
91.98,-31.129,-1.466
92.01,-34.955,-2.073
92.04,-39.447,-2.566
92.07,-43.799,-2.589
92.11,-47.554,-2.566
92.14,-50.677,-2.589
92.17,-53.59,-2.623
92.2,-56.433,-2.784
92.24,-59.592,-3.093
92.27,-63.031,-3.334
92.3,-66.505,-3.494
92.33,-69.875,-3.62
92.37,-72.998,-3.757
92.4,-76.157,-3.918
92.43,-79.35,-4.113
92.46,-82.474,-4.273
92.5,-85.667,-4.479
92.53,-88.756,-4.662
92.56,-91.844,-4.823
92.59,-94.862,-5.075
92.63,-97.81,-5.247
92.66,-100.653,-5.522
92.69,-103.531,-5.888
92.73,-106.444,-6.163
92.76,-109.251,-6.518
92.79,-112.27,-6.965
92.82,-115.323,-7.183
92.86,-118.376,-7.469
92.89,-121.394,-7.79
92.92,-124.342,-8.122
92.95,-127.396,-8.397
92.99,-130.695,-8.832
93.02,-134.064,-9.29
93.05,-137.187,-9.508
93.08,-140.065,-9.966
93.12,-142.978,-10.367
93.15,-145.856,-10.699
93.18,-148.944,-11.043
93.21,-151.927,-11.387
93.25,-154.945,-11.627
93.28,-157.928,-11.856
93.31,-160.947,-12.235
93.34,-163.895,-12.475
93.38,-166.843,-12.761
93.41,-169.685,-13.14
93.44,-172.353,-13.266
93.47,-174.879,-13.46
93.51,-177.547,-13.861
93.54,-180.53,-14.056
93.57,-183.302,-14.228
93.6,-185.829,-14.445
93.64,-188.216,-14.537
93.67,-190.707,-14.812
93.7,-193.304,-14.927
93.73,-195.515,-14.949
93.77,-197.621,-15.27
93.8,-199.973,-15.282
93.83,-202.219,-15.454
93.86,-204.324,-15.637
93.9,-206.219,-15.671
93.93,-208.08,-15.797
93.96,-209.975,-15.866
93.99,-212.045,-15.912
94.03,-214.081,-15.946
94.06,-215.906,-16.038
94.09,-217.836,-16.29
94.13,-219.661,-16.393
94.16,-221.31,-16.519
94.19,-223.03,-16.759
94.22,-224.75,-16.828
94.26,-226.399,-16.977
94.29,-228.014,-17.172
94.32,-229.698,-17.241
94.35,-231.488,-17.516
94.39,-233.313,-17.768
94.42,-234.998,-17.894
94.45,-236.472,-18.008
94.48,-237.805,-18.226
94.52,-239.349,-18.478
94.55,-241.069,-18.604
94.58,-242.613,-18.707
94.61,-244.052,-18.856
94.65,-245.421,-19.131
94.68,-246.895,-19.326
94.71,-248.193,-19.463
94.74,-249.702,-19.681
94.78,-251.212,-19.99
94.81,-252.65,-20.127
94.84,-254.054,-20.334
94.87,-255.528,-20.689
94.91,-257.072,-20.918
94.94,-258.301,-20.975
94.97,-259.108,-21.044
95.0,-260.091,-21.25
95.04,-261.284,-21.445
95.07,-262.407,-21.502
95.1,-263.635,-21.708
95.13,-265.039,-21.777
95.17,-266.232,-21.926
95.2,-267.25,-22.189
95.23,-268.198,-22.43
95.26,-269.286,-22.613
95.3,-270.409,-22.751
95.33,-271.497,-22.877
95.36,-272.479,-23.175
95.39,-273.532,-23.323
95.43,-274.515,-23.381
95.46,-275.111,-23.518
95.49,-275.813,-23.69
95.53,-276.656,-23.839
95.56,-277.498,-23.805
95.59,-278.2,-23.873
95.62,-278.937,-24.08
95.66,-279.533,-24.206
95.69,-279.814,-24.24
95.72,-280.341,-24.332
95.75,-281.007,-24.228
95.79,-281.604,-24.286
95.82,-281.955,-24.389
95.85,-282.13,-24.263
95.88,-282.236,-24.32
95.92,-282.762,-24.423
95.95,-283.113,-24.435
95.98,-283.113,-24.458
96.01,-283.113,-24.469
96.05,-282.973,-24.412
96.08,-282.797,-24.286
96.11,-282.727,-24.24
96.14,-282.657,-24.171
96.18,-282.376,-23.976
96.21,-281.709,-23.77
96.24,-280.902,-23.679
96.27,-280.2,-23.438
96.31,-279.463,-23.163
96.34,-278.726,-23.026
96.37,-278.024,-22.923
96.4,-277.182,-22.762
96.44,-276.234,-22.487
96.47,-275.111,-22.43
96.5,-273.918,-22.247
96.53,-272.69,-21.96
96.57,-271.391,-21.697
96.6,-269.882,-21.468
96.63,-268.408,-21.261
96.66,-267.215,-21.147
96.7,-265.987,-20.998
96.73,-264.478,-20.7
96.76,-262.653,-20.517
96.79,-260.863,-20.379
96.83,-259.143,-20.15
96.86,-257.564,-20.013
96.89,-255.949,-19.91
96.93,-254.195,-19.543
96.96,-252.37,-19.36
96.99,-250.755,-19.337
97.02,-248.93,-19.062
97.06,-246.93,-19.005
97.09,-245.14,-19.005
97.12,-243.385,-18.81
97.15,-241.631,-18.764
97.19,-240.016,-18.799
97.22,-238.472,-18.695
97.25,-236.823,-18.707
97.28,-234.998,-18.764
97.32,-233.032,-18.661
97.35,-231.172,-18.787
97.38,-229.488,-18.73
97.41,-227.628,-18.524
97.45,-225.346,-18.421
97.48,-223.206,-18.329
97.51,-221.275,-18.226
97.54,-219.521,-18.134
97.58,-217.625,-17.939
97.61,-215.309,-17.71
97.64,-213.028,-17.722
97.67,-211.133,-17.699
97.71,-209.308,-17.493
97.74,-207.237,-17.493
97.77,-205.096,-17.424
97.8,-202.85,-17.275
97.84,-200.815,-17.252
97.87,-198.885,-17.103
97.9,-196.814,-16.92
97.93,-194.708,-17.023
97.97,-192.708,-16.943
98.0,-190.778,-16.851
98.03,-188.847,-16.943
98.06,-186.636,-16.737
98.1,-184.285,-16.599
98.13,-182.074,-16.53
98.16,-179.617,-16.244
98.19,-177.266,-16.061
98.23,-174.95,-15.889
98.26,-172.528,-15.511
98.29,-170.212,-15.545
98.33,-168.211,-15.545
98.36,-166.0,-15.259
98.39,-163.438,-15.144
98.42,-160.876,-14.972
98.46,-158.35,-14.743
98.49,-155.858,-14.549
98.52,-153.12,-14.216
98.55,-150.418,-13.907
98.59,-147.47,-13.609
98.62,-144.662,-13.334
98.65,-142.206,-13.311
98.68,-139.749,-12.945
98.72,-137.012,-12.567
98.75,-133.994,-12.372
98.78,-130.94,-11.937
98.81,-127.676,-11.536
98.85,-124.518,-11.204
98.88,-121.465,-10.848
98.91,-118.236,-10.31
98.94,-114.832,-9.886
98.98,-111.497,-9.634
99.01,-108.163,-9.256
99.04,-104.724,-8.844
99.07,-101.355,-8.477
99.11,-97.881,-8.053
99.14,-94.406,-7.675
99.17,-90.862,-7.24
99.2,-87.247,-6.793
99.24,-83.632,-6.427
99.27,-79.982,-5.957
99.3,-76.367,-5.476
99.33,-72.787,-5.27
99.37,-69.348,-4.995
99.4,-65.944,-4.697
99.43,-62.434,-4.479
99.46,-59.135,-4.216
99.5,-55.731,-3.769
99.53,-52.222,-3.597
99.56,-48.642,-3.414
99.59,-45.062,-3.219
99.63,-41.518,-2.956
99.66,-37.868,-2.784
99.69,-36.674,-1.615
99.73,-41.167,-0.47
99.76,-40.64,0.894
99.79,-30.708,1.306
99.82,-23.724,0.538
99.86,-21.268,0.218
99.89,-18.285,0.733
99.92,-9.441,1.386
99.95,1.334,1.283
99.99,8.949,0.596
100.02,11.336,0.401
100.05,15.302,0.401
100.08,16.53,0.974
100.12,11.23,1.89
100.15,15.266,1.673
100.18,20.566,2.222
100.21,24.356,1.249
100.25,26.321,0.687
100.28,28.252,0.974
100.31,30.814,1.398
100.34,34.639,2.039
100.38,39.201,2.532
100.41,43.518,2.451
100.44,46.992,2.406
100.47,50.081,2.417
100.51,52.853,2.497
100.54,55.836,2.726
100.57,59.03,3.001
100.6,62.434,3.253
100.64,65.979,3.482
100.67,69.559,3.654
100.7,72.998,3.861
100.73,76.332,4.021
100.77,79.631,4.193
100.8,82.895,4.422
100.83,86.159,4.639
100.86,89.142,4.823
100.9,92.125,5.063
100.93,95.038,5.338
100.96,97.775,5.453
100.99,100.407,5.716
101.03,103.215,6.071
101.06,106.198,6.427
101.09,109.392,6.828
101.13,112.796,7.183
101.16,116.095,7.526
101.19,119.043,7.767
101.22,121.815,8.088
101.26,124.799,8.569
101.29,128.027,8.97
101.32,131.256,9.279
101.35,134.344,9.565
101.39,137.433,9.898
101.42,140.521,10.184
101.45,143.469,10.493
101.48,146.347,10.78
101.52,149.12,11.055
101.55,151.822,11.181
101.58,154.665,11.387
101.61,157.683,11.662
101.65,160.49,11.811
101.68,163.158,12.074
101.71,165.965,12.418
101.74,168.878,12.624
101.78,171.616,12.819
101.81,174.353,13.14
101.84,177.126,13.483
101.87,179.863,13.758
101.91,182.6,14.148
101.94,185.373,14.445
101.97,187.97,14.571
102.0,190.427,14.892
102.04,192.778,15.053
102.07,195.059,15.133
102.1,197.481,15.408
102.13,199.937,15.408
102.17,201.938,15.431
102.2,204.044,15.706
102.23,206.079,15.683
102.26,208.044,15.751
102.3,209.975,15.946
102.33,212.08,16.061
102.36,214.397,16.427
102.39,216.888,16.725
102.43,219.135,16.943
102.46,220.889,17.137
102.49,222.504,17.195
102.53,224.013,17.332
102.56,225.838,17.47
102.59,227.838,17.527
102.62,229.523,17.47
102.66,230.962,17.504
102.69,232.471,17.63
102.72,233.98,17.79
102.75,235.559,17.882
102.79,236.823,17.836
102.82,238.156,18.042
102.85,239.771,18.295
102.88,241.245,18.26
102.92,242.613,18.375
102.95,244.017,18.65
102.98,245.421,18.799
103.01,246.614,18.902
103.05,247.772,19.051
103.08,249.036,19.291
103.11,250.685,19.509
103.14,252.264,19.658
103.18,253.563,19.887
103.21,254.791,20.047
103.24,256.02,20.357
103.27,257.388,20.654
103.31,258.546,20.712
103.34,259.74,20.895
103.37,260.863,21.17
103.4,261.986,21.261
103.44,263.039,21.376
103.47,264.197,21.651
103.5,265.425,21.811
103.53,266.689,22.04
103.57,267.847,22.327
103.6,268.9,22.43
103.63,269.987,22.693
103.66,271.251,22.991
103.7,272.374,23.152
103.73,273.427,23.415
103.76,274.445,23.587
103.79,275.287,23.747
103.83,276.094,23.896
103.86,276.936,23.942
103.89,277.708,23.885
103.93,278.551,24.057
103.96,279.428,24.16
103.99,280.165,24.183
104.02,280.621,24.4
104.06,281.078,24.549
104.09,281.639,24.607
104.12,282.236,24.629
104.15,282.797,24.561
104.19,283.113,24.526
104.22,283.499,24.652
104.25,283.815,24.572
104.28,283.955,24.549
104.32,284.131,24.607
104.35,284.341,24.538
104.38,284.236,24.549
104.41,283.675,24.354
104.45,283.218,24.171
104.48,283.253,24.263
104.51,283.289,24.034
104.54,282.657,23.679
104.58,281.639,23.598
104.61,281.078,23.564
104.64,280.551,23.232
104.67,279.463,22.785
104.71,278.305,22.625
104.74,277.428,22.682
104.77,276.761,22.361
104.8,275.603,22.086
104.84,273.953,21.949
104.87,272.549,21.708
104.9,271.426,21.559
104.93,270.093,21.158
104.97,268.584,20.952
105.0,267.004,20.838
105.03,265.46,20.631
105.06,264.056,20.425
105.1,262.582,20.242
105.13,260.863,19.967
105.16,258.897,19.738
105.19,257.353,19.749
105.23,255.914,19.623
105.26,254.37,19.509
105.29,252.721,19.543
105.33,251.212,19.429
105.36,249.562,19.28
105.39,247.878,19.371
105.42,246.404,19.383
105.46,244.824,19.314
105.49,243.245,19.348
105.52,241.455,19.108
105.55,239.244,18.913
105.59,237.314,19.096
105.62,235.664,18.925
105.65,233.594,18.535
105.68,231.313,18.535
105.72,229.628,18.569
105.75,227.908,18.26
105.78,225.978,18.306
105.81,224.153,18.398
105.85,222.363,18.283
105.88,220.468,18.283
105.91,218.362,18.031
105.94,216.116,17.894
105.98,214.256,17.985
106.01,212.326,17.79
106.04,210.22,17.676
106.07,208.15,17.768
106.11,206.079,17.561
106.14,203.973,17.435
106.17,201.868,17.367
106.2,199.727,17.149
106.24,197.586,17.092
106.27,195.691,17.229
106.3,193.796,17.046
106.33,191.866,16.874
106.37,189.725,16.885
106.4,187.408,16.679
106.43,184.952,16.576
106.46,182.741,16.485
106.5,180.565,16.095
106.53,178.108,15.969
106.56,175.511,15.9
106.59,173.055,15.683
106.63,170.703,15.431
106.66,168.317,15.144
106.69,165.825,14.858
106.73,163.052,14.64
106.76,160.245,14.445
106.79,157.648,14.388
106.82,155.402,14.216
106.86,152.91,13.861
106.89,149.927,13.472
106.92,146.873,13.231
106.95,143.996,13.014
106.99,141.188,12.693
107.02,138.345,12.395
107.05,135.503,12.131
107.08,132.555,11.879
107.12,129.642,11.582
107.15,126.729,11.318
107.18,123.991,11.123
107.21,120.903,10.745
107.25,117.323,10.356
107.28,113.849,10.173
107.31,110.866,9.909
107.34,108.058,9.359
107.38,104.759,8.935
107.41,101.074,8.546
107.44,97.389,8.225
107.47,93.95,7.939
107.51,90.511,7.469
107.54,86.966,7.068
107.57,83.421,6.656
107.6,79.912,6.197
107.64,76.472,5.888
107.67,72.963,5.579
107.7,69.278,5.201
107.73,65.733,4.869
107.77,62.294,4.628
107.8,58.82,4.342
107.83,55.205,4.044
107.86,51.836,3.883
107.9,48.396,3.574
107.93,45.062,3.414
107.96,41.588,3.23
107.99,38.289,2.807
108.03,37.833,1.73
108.06,42.149,0.573
108.09,41.869,-0.928
108.13,32.182,-1.34
108.16,25.83,-0.481
108.19,24.146,-0.229
108.22,21.022,-0.848
108.26,11.581,-1.489
108.29,0.491,-1.363
108.32,-7.581,-0.745
108.35,-11.125,-0.573
108.39,-15.933,-0.515
108.42,-16.425,-1.363
108.45,-12.003,-2.062
108.48,-16.6,-2.073
108.52,-22.25,-2.165
108.55,-25.584,-1.237
108.58,-27.058,-0.699
108.61,-28.322,-0.882
108.65,-30.498,-1.42
108.68,-34.077,-2.028
108.71,-38.464,-2.44
108.74,-42.676,-2.371
108.78,-46.22,-2.303
108.81,-49.274,-2.291
108.84,-51.976,-2.314
108.87,-54.924,-2.543
108.91,-58.258,-2.887
108.94,-61.768,-3.15
108.97,-65.312,-3.334
109.0,-68.716,-3.528
109.04,-72.121,-3.746
109.07,-75.455,-3.872
109.1,-78.824,-4.09
109.13,-82.193,-4.353
109.17,-85.597,-4.559
109.2,-88.966,-4.731
109.23,-92.195,-4.983
109.26,-95.319,-5.155
109.3,-98.021,-5.315
109.33,-100.478,-5.636
109.36,-103.285,-6.026
109.39,-106.268,-6.312
109.43,-109.357,-6.61
109.46,-112.375,-6.999
109.49,-115.428,-7.354
109.53,-118.517,-7.687
109.56,-121.78,-8.042
109.59,-124.974,-8.34
109.62,-127.957,-8.683
109.66,-131.256,-9.119
109.69,-134.766,-9.531
109.72,-137.959,-9.772
109.75,-140.732,-10.15
109.79,-143.539,-10.482
109.82,-146.487,-10.78
109.85,-149.506,-11.112
109.88,-152.419,-11.249
109.92,-155.086,-11.478
109.95,-157.928,-11.834
109.98,-160.947,-12.051
110.01,-163.93,-12.223
110.05,-166.772,-12.498
110.08,-169.615,-12.716
110.11,-172.282,-12.945
110.14,-174.95,-13.3
110.18,-177.863,-13.666
110.21,-180.846,-13.953
110.24,-183.829,-14.308
110.27,-186.566,-14.526
110.31,-188.918,-14.709
110.34,-191.339,-15.018
110.37,-193.831,-15.11
110.4,-196.112,-15.121
110.44,-198.323,-15.362
110.47,-200.639,-15.465
110.5,-202.85,-15.442
110.53,-204.851,-15.476
110.57,-206.886,-15.637
110.6,-208.817,-15.648
110.63,-210.606,-15.683
110.66,-212.396,-15.774
110.7,-214.326,-15.969
110.73,-216.222,-16.118
110.76,-218.047,-16.301
110.79,-220.012,-16.439
110.83,-221.907,-16.496
110.86,-223.837,-16.748
110.89,-225.627,-16.794
110.93,-227.206,-16.84
110.96,-228.786,-17.103
110.99,-230.505,-17.229
111.02,-232.401,-17.527
111.06,-234.296,-17.813
111.09,-235.805,-17.813
111.12,-237.103,-17.997
111.15,-238.612,-18.214
111.19,-240.157,-18.295
111.22,-241.525,-18.443
111.25,-242.964,-18.661
111.28,-244.263,-18.787
111.32,-245.737,-18.936
111.35,-247.351,-19.096
111.38,-248.615,-19.154
111.41,-249.702,-19.348
111.45,-251.106,-19.704
111.48,-252.615,-19.864
111.51,-253.984,-19.99
111.54,-255.493,-20.334
111.58,-256.792,-20.379
111.61,-257.809,-20.46
111.64,-258.862,-20.677
111.67,-259.915,-20.757
111.71,-261.214,-21.044
111.74,-262.582,-21.239
111.77,-263.67,-21.342
111.8,-264.793,-21.685
111.84,-266.022,-21.869
111.87,-267.11,-22.052
111.9,-268.022,-22.258
111.93,-269.005,-22.441
111.97,-270.163,-22.659
112.0,-271.426,-22.808
112.03,-272.62,-23.014
112.06,-273.637,-23.232
112.1,-274.515,-23.335
112.13,-275.357,-23.495
112.16,-276.094,-23.61
112.19,-276.796,-23.828
112.23,-277.779,-23.862
112.26,-278.691,-24.045
112.29,-279.393,-24.148
112.33,-280.2,-24.102
112.36,-280.797,-24.332
112.39,-281.288,-24.297
112.42,-281.569,-24.4
112.46,-282.095,-24.503
112.49,-282.587,-24.343
112.52,-282.973,-24.354
112.55,-283.324,-24.389
112.59,-283.464,-24.377
112.62,-283.324,-24.354
112.65,-283.359,-24.412
112.68,-283.394,-24.4
112.72,-283.148,-24.102
112.75,-282.692,-23.954
112.78,-282.657,-24.08
112.81,-282.587,-23.885
112.85,-281.92,-23.576
112.88,-281.218,-23.472
112.91,-280.727,-23.312
112.94,-280.095,-23.049
112.98,-279.077,-22.808
113.01,-278.13,-22.808
113.04,-277.533,-22.728
113.07,-276.901,-22.453
113.11,-276.129,-22.361
113.14,-275.217,-22.224
113.17,-273.883,-21.983
113.2,-272.304,-21.8
113.24,-271.005,-21.651
113.27,-269.917,-21.479
113.3,-268.654,-21.319
113.33,-267.39,-21.113
113.37,-265.916,-20.872
113.4,-264.267,-20.735
113.43,-262.723,-20.517
113.46,-261.284,-20.322
113.5,-259.74,-20.15
113.53,-258.16,-19.956
113.56,-256.616,-19.841
113.59,-254.932,-19.715
113.63,-253.142,-19.658
113.66,-251.562,-19.669
113.69,-249.948,-19.474
113.73,-248.053,-19.371
113.76,-246.333,-19.36
113.79,-244.719,-19.154
113.82,-242.929,-18.913
113.86,-240.929,-18.833
113.89,-239.069,-18.821
113.92,-237.173,-18.638
113.95,-235.173,-18.512
113.99,-233.032,-18.375
114.02,-230.891,-18.283
114.05,-229.102,-18.306
114.08,-227.557,-18.249
114.12,-225.803,-18.134
114.15,-223.767,-18.111
114.18,-221.802,-18.18
114.21,-219.872,-18.157
114.25,-217.906,-18.042
114.28,-216.046,-18.008
114.31,-214.046,-17.894
114.34,-212.115,-17.813
114.38,-210.15,-17.802
114.41,-208.15,-17.584
114.44,-206.219,-17.676
114.47,-204.149,-17.561
114.51,-201.797,-17.241
114.54,-199.657,-17.298
114.57,-197.691,-17.172
114.6,-195.48,-16.931
114.64,-193.48,-17.115
114.67,-191.655,-16.989
114.7,-189.514,-16.645
114.73,-187.268,-16.656
114.77,-184.882,-16.519
114.8,-182.32,-16.278
114.83,-180.179,-16.29
114.86,-178.108,-16.152
114.9,-175.792,-15.866
114.93,-173.511,-15.786
114.96,-171.054,-15.591
114.99,-168.527,-15.259
115.03,-166.035,-15.144
115.06,-163.438,-14.892
115.09,-160.806,-14.388
115.13,-158.034,-14.308
115.16,-155.507,-14.125
115.19,-152.91,-13.644
115.22,-150.067,-13.54
115.26,-147.189,-13.128
115.29,-144.101,-12.739
115.32,-140.977,-12.464
115.35,-137.889,-12.005
115.39,-135.046,-11.914
115.42,-132.449,-11.673
115.45,-129.572,-11.284
115.48,-126.343,-10.986
115.52,-123.079,-10.688
115.55,-119.92,-10.47
115.58,-116.832,-10.15
115.61,-113.603,-9.726
115.65,-110.234,-9.348
115.68,-106.935,-9.061
115.71,-103.671,-8.649
115.74,-100.267,-8.248
115.78,-96.863,-7.904
115.81,-93.459,-7.515
115.84,-90.019,-7.217
115.87,-86.65,-6.85
115.91,-83.07,-6.392
115.94,-79.315,-5.945
115.97,-75.56,-5.705
116.0,-72.401,-5.464
116.04,-68.997,-4.995
116.07,-65.523,-4.743
116.1,-62.119,-4.594
116.13,-58.714,-4.261
116.17,-55.205,-4.124
116.2,-51.871,-3.941
116.23,-48.537,-3.666
116.26,-45.203,-3.368
116.3,-41.518,-3.185
116.33,-37.762,-2.887
116.36,-35.832,-2.738
116.39,-40.605,-1.501
116.43,-41.763,0.962
116.46,-31.445,1.409
116.49,-23.584,0.619
116.53,-21.548,0.115
116.56,-19.478,0.63
116.59,-11.16,1.398
116.62,0.211,1.352
116.66,8.282,0.687
