Trigger_Date,2023/06/19
Trigger_Time,T 11:24:55.922 PDT
Samples_Per_Cycle,512
Microseconds_Per_Sample,32.533
Time (ms),Voltage (V),Current (A)
-16.66,8.844,0.756
-16.62,13.863,0.882
-16.59,19.092,0.584
-16.56,18.881,0.195
-16.53,13.336,1.718
-16.49,16.67,3.013
-16.46,22.531,2.36
-16.43,26.321,1.535
-16.4,28.111,1.146
-16.36,29.866,1.592
-16.33,33.305,2.795
-16.3,38.499,3.803
-16.27,43.167,4.135
-16.23,46.15,4.342
-16.2,48.291,5.04
-16.17,50.958,5.923
-16.14,54.398,6.404
-16.1,57.977,6.77
-16.07,61.171,7.137
-16.04,64.084,7.423
-16.01,67.102,7.893
-15.97,70.647,8.5
-15.94,74.297,8.901
-15.91,77.35,9.325
-15.88,80.263,9.955
-15.84,83.632,10.677
-15.81,87.036,11.158
-15.78,90.054,11.604
-15.75,93.037,12.086
-15.71,95.88,12.487
-15.68,98.582,12.899
-15.65,101.671,13.46
-15.62,104.97,13.838
-15.58,107.918,14.125
-15.55,110.936,14.697
-15.52,114.165,15.293
-15.49,117.218,15.751
-15.45,120.201,16.381
-15.42,123.289,16.908
-15.39,126.413,17.344
-15.36,129.221,17.871
-15.32,132.169,18.455
-15.29,135.397,19.073
-15.26,138.731,19.6
-15.23,141.75,20.093
-15.19,144.452,20.597
-15.16,147.295,21.227
-15.13,150.348,21.777
-15.1,153.366,22.189
-15.06,156.349,22.728
-15.03,159.367,23.175
-15.0,162.105,23.576
-14.97,164.948,24.091
-14.93,167.72,24.595
-14.9,170.387,25.007
-14.87,173.23,25.534
-14.83,176.248,26.038
-14.8,179.021,26.462
-14.77,181.793,27.024
-14.74,184.636,27.574
-14.7,187.303,27.894
-14.67,189.584,28.307
-14.64,191.83,28.731
-14.61,194.112,28.994
-14.57,196.463,29.303
-14.54,198.709,29.613
-14.51,200.815,29.762
-14.48,202.956,30.014
-14.44,205.026,30.185
-14.41,206.676,30.311
-14.38,208.466,30.54
-14.35,210.536,30.85
-14.31,212.502,31.067
-14.28,214.397,31.308
-14.25,216.397,31.583
-14.22,218.222,31.846
-14.18,219.661,32.076
-14.15,221.205,32.328
-14.12,223.17,32.58
-14.09,224.925,32.763
-14.05,226.54,33.095
-14.02,228.329,33.416
-13.99,229.803,33.656
-13.96,231.313,34.115
-13.92,233.383,34.573
-13.89,235.243,34.745
-13.86,236.507,34.848
-13.83,237.875,35.34
-13.79,239.7,35.661
-13.76,241.385,35.856
-13.73,242.859,36.165
-13.7,244.333,36.52
-13.66,245.807,36.83
-13.63,247.07,37.185
-13.6,248.615,37.574
-13.57,250.51,37.918
-13.53,252.054,38.181
-13.5,253.352,38.525
-13.47,254.861,38.937
-13.44,256.511,39.258
-13.4,257.564,39.476
-13.37,258.582,39.774
-13.34,260.056,40.026
-13.31,261.53,40.198
-13.27,262.477,40.495
-13.24,263.67,40.793
-13.21,264.969,40.931
-13.18,265.987,41.251
-13.14,267.11,41.652
-13.11,268.478,41.87
-13.08,269.742,42.042
-13.05,270.97,42.305
-13.01,272.163,42.569
-12.98,273.251,42.89
-12.95,274.374,43.187
-12.92,275.217,43.417
-12.88,275.954,43.634
-12.85,276.901,43.703
-12.82,277.568,43.691
-12.79,278.094,43.726
-12.75,278.691,43.886
-12.72,279.568,44.047
-12.69,280.2,44.058
-12.66,280.551,44.161
-12.62,281.042,44.218
-12.59,281.218,44.31
-12.56,281.393,44.413
-12.53,281.639,44.379
-12.49,282.06,44.47
-12.46,282.832,44.734
-12.43,283.148,44.413
-12.39,282.657,44.287
-12.36,282.587,44.413
-12.33,282.622,44.253
-12.3,282.446,44.127
-12.26,282.06,43.898
-12.23,281.674,43.875
-12.2,281.499,43.875
-12.17,281.113,43.772
-12.13,280.446,43.623
-12.1,279.744,43.474
-12.07,279.323,43.233
-12.04,278.586,42.867
-12.0,277.533,42.557
-11.97,276.55,42.5
-11.94,275.954,42.397
-11.91,275.076,42.088
-11.87,273.743,41.824
-11.84,272.549,41.526
-11.81,271.321,41.183
-11.78,269.847,40.828
-11.74,268.373,40.576
-11.71,267.355,40.312
-11.68,266.197,40.037
-11.65,264.548,39.831
-11.61,263.144,39.659
-11.58,261.916,39.396
-11.55,260.371,39.109
-11.52,258.617,38.892
-11.48,257.248,38.743
-11.45,255.984,38.479
-11.42,254.054,38.181
-11.39,252.37,38.055
-11.35,251.106,37.861
-11.32,249.246,37.46
-11.29,247.141,37.242
-11.26,245.561,37.105
-11.22,243.982,36.784
-11.19,241.946,36.578
-11.16,240.332,36.566
-11.13,238.928,36.44
-11.09,237.138,36.165
-11.06,234.998,35.936
-11.03,232.997,35.764
-11.0,231.488,35.627
-10.96,229.874,35.272
-10.93,227.698,34.951
-10.9,225.943,34.894
-10.87,224.469,34.664
-10.83,222.679,34.344
-10.8,220.398,34.046
-10.77,217.941,33.771
-10.74,216.011,33.828
-10.7,214.607,33.737
-10.67,212.888,33.336
-10.64,210.747,33.084
-10.61,208.887,33.095
-10.57,206.992,32.843
-10.54,204.886,32.488
-10.51,202.85,32.27
-10.48,200.429,31.961
-10.44,198.183,31.709
-10.41,196.358,31.64
-10.38,194.463,31.228
-10.35,192.392,30.907
-10.31,190.111,30.77
-10.28,187.724,30.346
-10.25,185.583,30.048
-10.22,183.372,29.865
-10.18,181.091,29.326
-10.15,178.775,29.051
-10.12,176.669,28.914
-10.09,174.213,28.49
-10.05,171.651,28.204
-10.02,169.229,27.906
-9.99,166.772,27.333
-9.96,164.14,26.84
-9.92,161.403,26.313
-9.89,158.595,25.844
-9.86,156.068,25.489
-9.82,153.542,25.053
-9.79,150.558,24.492
-9.76,147.786,24.171
-9.73,145.189,23.69
-9.69,142.101,22.98
-9.66,138.907,22.59
-9.63,136.099,22.086
-9.6,133.397,21.651
-9.56,130.449,21.204
-9.53,127.571,20.666
-9.5,124.588,20.082
-9.47,121.254,19.589
-9.43,117.815,19.039
-9.4,114.551,18.398
-9.37,111.182,17.79
-9.34,107.812,17.172
-9.3,104.233,16.473
-9.27,100.583,15.877
-9.24,97.144,15.247
-9.21,93.95,14.468
-9.17,90.335,13.632
-9.14,86.159,12.899
-9.11,82.368,12.429
-9.08,79.034,11.914
-9.04,75.806,11.226
-9.01,72.331,10.642
-8.98,68.787,10.218
-8.95,65.488,9.783
-8.91,62.294,9.371
-8.88,58.96,8.97
-8.85,55.556,8.534
-8.82,52.046,8.202
-8.78,48.817,7.859
-8.75,45.483,7.423
-8.72,42.5,6.954
-8.69,39.131,6.461
-8.65,36.394,5.785
-8.62,37.025,4.433
-8.59,42.36,1.283
-8.56,38.324,-1.821
-8.52,27.199,-0.928
-8.49,25.83,-0.115
-8.46,22.812,-0.928
-8.43,14.178,-1.42
-8.39,3.931,-1.294
-8.36,-3.72,-0.951
-8.33,-9.265,-0.71
-8.3,-13.301,-0.779
-8.26,-18.706,-0.653
-8.23,-18.425,-0.298
-8.2,-14.038,-1.695
-8.17,-17.653,-2.715
-8.13,-22.707,-2.177
-8.1,-26.216,-1.501
-8.07,-27.866,-1.249
-8.04,-29.796,-1.638
-8.0,-32.919,-2.543
-7.97,-37.587,-3.482
-7.94,-41.974,-3.849
-7.91,-45.238,-3.987
-7.87,-47.484,-4.468
-7.84,-50.151,-5.235
-7.81,-53.485,-5.888
-7.78,-57.205,-6.381
-7.74,-60.574,-6.747
-7.71,-63.628,-7.228
-7.68,-66.927,-7.859
-7.65,-70.647,-8.489
-7.61,-74.402,-8.947
-7.58,-77.525,-9.485
-7.55,-80.368,-10.161
-7.52,-83.527,-10.883
-7.48,-86.966,-11.433
-7.45,-90.3,-11.856
-7.42,-93.423,-12.2
-7.38,-96.091,-12.578
-7.35,-98.969,-13.059
-7.32,-102.232,-13.552
-7.29,-105.356,-13.896
-7.25,-108.339,-14.342
-7.22,-111.217,-14.927
-7.19,-114.2,-15.454
-7.16,-117.393,-15.969
-7.12,-120.587,-16.439
-7.09,-123.36,-16.805
-7.06,-125.992,-17.344
-7.03,-129.185,-17.997
-6.99,-132.695,-18.501
-6.96,-135.959,-18.879
-6.93,-138.977,-19.6
-6.9,-141.714,-19.944
-6.86,-144.487,-20.505
-6.83,-147.646,-21.33
-6.8,-151.05,-21.766
-6.77,-153.857,-22.258
-6.73,-156.735,-22.877
-6.7,-159.964,-23.484
-6.67,-163.087,-23.965
-6.64,-165.93,-24.481
-6.6,-168.527,-24.916
-6.57,-171.194,-25.363
-6.54,-174.178,-25.89
-6.51,-177.126,-26.222
-6.47,-179.828,-26.737
-6.44,-182.741,-27.367
-6.41,-185.829,-27.711
-6.38,-188.531,-28.158
-6.34,-191.269,-28.845
-6.31,-193.866,-29.223
-6.28,-196.077,-29.647
-6.25,-198.709,-30.197
-6.21,-201.306,-30.357
-6.18,-203.482,-30.46
-6.15,-205.833,-30.85
-6.12,-208.29,-31.182
-6.08,-210.606,-31.526
-6.05,-212.817,-32.018
-6.02,-214.958,-32.442
-5.99,-217.274,-32.786
-5.95,-219.591,-33.026
-5.92,-221.486,-33.29
-5.89,-223.241,-33.507
-5.86,-224.925,-33.519
-5.82,-226.189,-33.519
-5.79,-227.663,-33.691
-5.76,-229.312,-33.874
-5.73,-230.997,-33.897
-5.69,-232.295,-34.034
-5.66,-233.664,-34.275
-5.63,-235.173,-34.412
-5.6,-236.542,-34.664
-5.56,-238.086,-34.848
-5.53,-239.63,-34.951
-5.5,-240.964,-35.249
-5.47,-242.262,-35.547
-5.43,-243.561,-35.787
-5.4,-244.93,-36.245
-5.37,-246.79,-36.589
-5.34,-248.228,-36.749
-5.3,-249.141,-36.99
-5.27,-250.369,-37.414
-5.24,-252.264,-37.964
-5.21,-254.124,-38.262
-5.17,-255.423,-38.514
-5.14,-256.616,-38.892
-5.11,-257.915,-39.235
-5.08,-259.038,-39.453
-5.04,-260.126,-39.625
-5.01,-261.459,-39.911
-4.98,-262.898,-40.232
-4.94,-263.986,-40.415
-4.91,-264.934,-40.702
-4.88,-266.302,-40.999
-4.85,-267.776,-41.148
-4.81,-268.654,-41.377
-4.78,-269.426,-41.733
-4.75,-270.724,-41.939
-4.72,-271.848,-42.214
-4.68,-272.935,-42.615
-4.65,-273.988,-43.061
-4.62,-274.901,-43.428
-4.59,-275.743,-43.669
-4.55,-276.726,-43.691
-4.52,-277.533,-43.634
-4.49,-277.919,-43.783
-4.46,-278.551,-43.943
-4.42,-279.323,-44.012
-4.39,-279.955,-44.15
-4.36,-280.376,-44.253
-4.33,-280.867,-44.218
-4.29,-281.183,-44.253
-4.26,-281.393,-44.459
-4.23,-281.779,-44.539
-4.2,-282.306,-44.448
-4.16,-282.657,-44.505
-4.13,-283.043,-44.665
-4.1,-282.973,-44.665
-4.07,-283.113,-44.516
-4.03,-282.973,-44.39
-4.0,-282.411,-44.413
-3.97,-279.182,-42.775
-3.94,-272.234,-39.648
-3.9,-267.461,-38.193
-3.87,-267.32,-37.631
-3.84,-265.846,-35.925
-3.81,-260.652,-34.619
-3.77,-257.634,-34.745
-3.74,-258.441,-35.008
-3.71,-257.88,-35.226
-3.68,-255.774,-36.28
-3.64,-257.002,-37.62
-3.61,-259.95,-38.273
-3.58,-260.863,-38.766
-3.55,-260.898,-39.613
-3.51,-261.038,-40.553
-3.48,-261.459,-41.32
-3.45,-261.775,-41.79
-3.42,-261.81,-42.145
-3.38,-261.389,-42.454
-3.35,-261.214,-42.592
-3.32,-260.828,-42.638
-3.29,-260.266,-42.683
-3.25,-259.669,-42.603
-3.22,-258.722,-42.42
-3.19,-257.915,-42.271
-3.16,-257.213,-42.111
-3.12,-256.09,-41.881
-3.09,-254.826,-41.549
-3.06,-253.809,-41.32
-3.03,-252.791,-41.057
-2.99,-251.176,-40.45
-2.96,-249.106,-40.083
-2.93,-247.456,-39.911
-2.9,-246.298,-39.441
-2.86,-244.93,-39.075
-2.83,-243.28,-38.777
-2.8,-241.525,-38.376
-2.77,-240.086,-38.319
-2.73,-238.858,-38.09
-2.7,-236.752,-37.597
-2.67,-234.787,-37.46
-2.64,-233.699,-37.219
-2.6,-231.909,-36.532
-2.57,-229.277,-36.142
-2.54,-227.242,-35.959
-2.51,-225.592,-35.592
-2.47,-223.241,-35.134
-2.44,-220.889,-34.745
-2.41,-218.959,-34.538
-2.37,-217.099,-34.172
-2.34,-214.923,-33.645
-2.31,-212.361,-33.255
-2.28,-210.361,-33.141
-2.24,-208.466,-32.774
-2.21,-206.044,-32.259
-2.18,-203.587,-32.007
-2.15,-201.306,-31.789
-2.11,-199.2,-31.434
-2.08,-197.34,-31.182
-2.05,-195.27,-30.827
-2.02,-192.953,-30.449
-1.98,-190.532,-30.243
-1.95,-188.181,-29.945
-1.92,-185.934,-29.601
-1.89,-183.583,-29.315
-1.85,-181.021,-28.96
-1.82,-178.81,-28.696
-1.79,-176.845,-28.444
-1.76,-174.493,-28.089
-1.72,-172.002,-27.768
-1.69,-169.37,-27.459
-1.66,-166.913,-27.081
-1.63,-164.175,-26.646
-1.59,-161.333,-26.164
-1.56,-158.806,-25.786
-1.53,-156.49,-25.42
-1.5,-154.033,-24.904
-1.46,-151.26,-24.423
-1.43,-148.277,-23.931
-1.4,-145.084,-23.438
-1.37,-141.89,-22.991
-1.33,-138.907,-22.384
-1.3,-136.029,-21.697
-1.27,-132.8,-21.032
-1.24,-129.536,-20.46
-1.2,-126.483,-19.956
-1.17,-123.36,-19.406
-1.14,-120.026,-18.867
-1.11,-116.797,-18.375
-1.07,-113.779,-17.859
-1.04,-110.69,-17.275
-1.01,-107.356,-16.737
-0.98,-103.952,-16.198
-0.94,-100.618,-15.66
-0.91,-97.249,-15.075
-0.88,-93.669,-14.388
-0.85,-89.914,-13.655
-0.81,-86.264,-13.105
-0.78,-82.93,-12.567
-0.75,-79.456,-11.845
-0.72,-75.946,-11.295
-0.68,-72.787,-10.952
-0.65,-69.489,-10.276
-0.62,-65.909,-9.691
-0.59,-62.329,-9.359
-0.55,-58.89,-8.947
-0.52,-55.696,-8.454
-0.49,-52.608,-8.099
-0.46,-49.414,-7.515
-0.42,-45.905,-7.137
-0.39,-42.781,-6.736
-0.36,-39.096,-6.243
-0.33,-36.674,-5.499
-0.29,-39.622,-3.906
-0.26,-44.852,0.115
-0.23,-35.271,2.085
-0.2,-26.181,0.378
-0.16,-26.637,0.229
-0.13,-21.548,1.191
-0.1,-11.757,1.478
-0.07,-1.86,1.168
-0.03,4.211,0.756
0.0,8.914,0.733
0.03,13.512,0.836
0.07,18.039,0.458
0.1,16.74,0.16
0.13,11.967,1.73
0.16,16.074,2.784
0.2,21.443,2.028
0.23,24.883,1.306
0.26,26.672,1.065
0.29,28.918,1.604
0.33,32.568,2.669
0.36,37.622,3.54
0.39,42.36,3.78
0.42,45.624,3.918
0.46,47.87,4.605
0.49,50.502,5.441
0.52,53.731,6.22
0.55,57.626,6.942
0.59,61.206,7.343
0.62,64.119,7.652
0.65,67.172,8.305
0.68,70.752,9.027
0.72,74.472,9.531
0.75,77.701,9.817
0.78,80.649,10.459
0.81,83.948,11.169
0.85,87.177,11.478
0.88,90.019,11.834
0.91,92.792,12.338
0.94,95.845,12.704
0.98,98.933,13.014
1.01,101.811,13.334
1.04,104.619,13.77
1.07,107.742,14.308
1.11,110.971,14.812
1.14,114.2,15.259
1.17,116.972,15.648
1.2,119.71,16.221
1.24,122.552,16.782
1.27,125.36,17.275
1.3,128.343,17.825
1.33,131.467,18.317
1.37,134.59,18.776
1.4,137.679,19.348
1.43,140.697,19.956
1.46,143.82,20.586
1.5,146.979,21.147
1.53,149.962,21.617
1.56,152.699,22.144
1.59,155.437,22.797
1.63,158.49,23.392
1.66,161.543,23.873
1.69,164.456,24.32
1.72,167.334,24.755
1.76,170.107,25.179
1.79,172.879,25.649
1.82,175.862,26.164
1.85,178.915,26.646
1.89,181.512,27.069
1.92,184.145,27.608
1.95,186.917,28.066
1.98,189.304,28.398
2.02,191.55,28.811
2.05,194.077,29.143
2.08,196.323,29.257
2.11,198.288,29.613
2.15,200.499,30.002
2.18,202.675,30.162
2.21,204.745,30.357
2.24,206.921,30.506
2.28,208.746,30.495
2.31,210.326,30.804
2.34,212.326,31.228
2.37,214.397,31.331
2.41,216.187,31.629
2.44,218.047,32.007
2.47,219.696,32.156
2.51,221.275,32.385
2.54,223.065,32.751
2.57,224.925,32.912
2.6,226.54,33.221
2.64,228.365,33.553
2.67,230.049,33.828
2.7,231.944,34.355
2.73,233.804,34.642
2.77,235.138,34.848
2.8,236.963,35.558
2.83,239.139,35.867
2.86,240.437,35.821
2.9,241.666,36.406
2.93,243.42,36.852
2.96,244.824,36.852
2.99,246.158,37.242
3.03,247.667,37.505
3.06,248.79,37.563
3.09,250.264,38.01
3.12,252.194,38.273
3.16,253.633,38.365
3.19,254.721,38.788
3.22,256.055,39.212
3.25,257.423,39.361
3.29,258.687,39.556
3.32,259.95,39.842
3.35,261.214,40.072
3.38,262.512,40.346
3.42,263.6,40.69
3.45,264.758,40.976
3.48,266.022,41.24
3.51,267.39,41.446
3.55,268.443,41.721
3.58,269.531,42.065
3.61,270.724,42.317
3.64,271.883,42.569
3.68,272.971,42.912
3.71,274.129,43.21
3.74,274.936,43.462
3.77,275.708,43.646
3.81,276.656,43.691
3.84,277.463,43.691
3.87,277.919,43.84
3.9,278.586,44.058
3.94,279.533,44.184
3.97,280.025,44.264
4.0,280.481,44.379
4.03,280.937,44.31
4.07,281.148,44.184
4.1,281.499,44.379
4.13,281.885,44.264
4.16,282.166,44.195
4.2,282.481,44.39
4.23,282.692,44.425
4.26,282.727,44.299
4.29,282.481,44.253
4.33,282.341,44.264
4.36,282.095,44.115
4.39,281.744,43.932
4.42,281.499,43.943
4.46,281.499,43.898
4.49,281.148,43.703
4.52,280.551,43.497
4.55,279.709,43.313
4.59,279.042,43.153
4.62,278.13,42.912
4.65,277.182,42.718
4.68,276.62,42.603
4.72,275.883,42.443
4.75,274.866,42.191
4.78,273.813,41.916
4.81,272.549,41.538
4.85,270.795,41.24
4.88,269.461,40.931
4.91,268.373,40.576
4.94,267.11,40.301
4.98,265.776,40.083
5.01,264.478,39.865
5.04,263.074,39.671
5.08,261.565,39.464
5.11,260.161,39.281
5.14,258.932,39.041
5.17,257.458,38.754
5.21,255.844,38.536
5.24,254.23,38.353
5.27,252.545,38.136
5.3,251.001,37.998
5.34,249.773,37.803
5.37,247.983,37.299
5.4,245.737,37.07
5.43,244.157,37.139
5.47,242.824,36.784
5.5,240.788,36.474
5.53,239.244,36.6
5.56,237.981,36.326
5.6,235.945,35.936
5.63,233.769,35.879
5.66,231.839,35.592
5.69,230.154,35.295
5.73,228.4,35.146
5.76,226.259,34.848
5.79,224.083,34.596
5.82,222.398,34.527
5.86,220.433,34.183
5.89,218.082,33.828
5.92,216.257,33.737
5.95,214.572,33.336
5.99,212.431,33.049
6.02,210.396,33.026
6.05,208.501,32.591
6.08,206.465,32.442
6.12,204.851,32.499
6.15,202.605,31.904
6.18,200.253,31.629
6.21,198.709,31.835
6.25,196.568,31.319
6.28,193.971,31.067
6.31,192.567,31.342
6.34,190.672,30.689
6.38,187.759,30.208
6.41,185.654,30.437
6.44,183.723,29.819
6.47,181.197,29.303
6.51,179.056,29.303
6.54,176.775,28.685
6.57,174.142,28.307
6.6,171.721,28.238
6.64,169.229,27.596
6.67,166.527,27.207
6.7,164.035,26.921
6.73,161.403,26.199
6.77,158.595,25.844
6.8,155.717,25.328
6.83,153.015,24.778
6.86,150.453,24.492
6.9,147.961,24.125
6.93,145.084,23.576
6.96,141.995,23.129
6.99,139.223,22.854
7.03,136.555,22.327
7.06,133.748,21.926
7.09,130.975,21.284
7.12,127.782,20.654
7.16,124.413,20.208
7.19,121.149,19.635
7.22,117.885,18.936
7.25,114.27,18.306
7.29,110.831,17.687
7.32,107.567,17.103
7.35,104.373,16.473
7.38,100.899,15.706
7.42,97.284,15.03
7.45,93.634,14.434
7.48,89.914,13.689
7.52,86.159,12.933
7.55,82.649,12.429
7.58,79.175,11.776
7.61,75.525,11.043
7.65,72.086,10.699
7.68,68.962,10.356
7.71,65.593,9.772
7.74,62.189,9.394
7.78,58.855,9.027
7.81,55.521,8.466
7.84,52.187,8.111
7.87,49.203,7.732
7.91,45.834,7.148
7.94,42.43,6.713
7.97,38.85,6.495
8.0,36.885,5.739
8.04,39.236,3.987
8.07,44.185,0.321
8.1,36.464,-1.947
8.13,27.234,-0.493
8.17,27.094,-0.229
8.2,22.777,-1.054
8.23,13.477,-1.466
8.26,3.194,-1.249
8.3,-3.72,-0.871
8.33,-8.879,-0.722
8.36,-13.617,-0.894
8.39,-18.881,-0.47
8.43,-16.565,-0.412
8.46,-13.722,-1.936
8.49,-18.214,-2.406
8.52,-22.461,-1.741
8.56,-25.339,-1.26
8.59,-26.953,-1.214
8.62,-29.34,-1.81
8.65,-32.99,-2.841
8.69,-38.113,-3.608
8.72,-42.57,-3.861
8.75,-45.799,-4.113
8.78,-48.221,-4.731
8.82,-50.853,-5.43
8.85,-53.976,-6.06
8.88,-57.416,-6.553
8.91,-60.609,-6.908
8.95,-63.557,-7.274
8.98,-66.646,-7.801
9.01,-70.05,-8.294
9.04,-73.489,-8.741
9.08,-76.964,-9.279
9.11,-80.157,-9.829
9.14,-83.316,-10.402
9.17,-86.615,-11.055
9.21,-90.054,-11.57
9.24,-92.967,-11.948
9.27,-95.81,-12.578
9.3,-98.933,-13.105
9.34,-102.092,-13.403
9.37,-105.145,-13.827
9.4,-108.163,-14.319
9.43,-111.147,-14.72
9.47,-114.27,-15.328
9.5,-117.358,-15.832
9.53,-120.271,-16.278
9.56,-123.149,-16.885
9.6,-126.308,-17.447
9.63,-129.466,-17.859
9.66,-132.625,-18.432
9.69,-135.889,-19.119
9.73,-139.153,-19.681
9.76,-141.96,-20.127
9.79,-144.733,-20.712
9.82,-147.61,-21.273
9.86,-150.874,-21.697
9.89,-153.963,-22.178
9.92,-156.525,-22.51
9.96,-159.297,-23.152
9.99,-162.631,-23.805
10.02,-165.579,-24.102
10.05,-167.966,-24.526
10.09,-170.879,-25.317
10.12,-174.178,-25.729
10.15,-177.406,-26.279
10.18,-180.881,-27.31
10.22,-184.215,-27.757
10.25,-186.671,-28.112
10.28,-189.549,-29.2
10.31,-192.638,-29.647
10.35,-194.849,-29.544
10.38,-196.919,-30.094
10.41,-199.446,-30.357
10.44,-201.517,-30.117
10.48,-203.377,-30.414
10.51,-205.272,-30.495
10.54,-206.57,-30.231
10.57,-207.904,-30.392
10.61,-209.554,-30.266
10.64,-210.852,-29.991
10.67,-212.221,-30.128
10.7,-213.765,-30.162
10.74,-214.958,-30.197
10.77,-216.362,-30.598
10.8,-218.152,-30.804
10.83,-219.766,-30.884
10.87,-221.17,-31.285
10.9,-222.925,-31.663
10.93,-224.785,-31.995
10.96,-226.645,-32.488
11.0,-228.54,-32.889
11.03,-230.26,-33.324
11.06,-232.05,-33.897
11.09,-233.629,-34.298
11.13,-235.278,-34.71
11.16,-237.244,-35.272
11.19,-239.034,-35.501
11.22,-240.472,-35.81
11.26,-241.876,-36.337
11.29,-243.35,-36.566
11.32,-244.824,-36.795
11.35,-246.544,-37.231
11.39,-247.983,-37.334
11.42,-249.071,-37.597
11.45,-250.755,-38.158
11.48,-252.44,-38.388
11.52,-253.703,-38.628
11.55,-255.072,-39.144
11.58,-256.581,-39.487
11.61,-257.95,-39.751
11.65,-259.248,-40.094
11.68,-260.582,-40.312
11.71,-261.74,-40.587
11.74,-263.039,-40.908
11.78,-264.267,-41.091
11.81,-265.495,-41.309
11.84,-266.759,-41.618
11.87,-268.127,-41.939
11.91,-269.321,-42.156
11.94,-270.233,-42.397
11.97,-271.321,-42.718
12.0,-272.444,-42.935
12.04,-273.357,-43.222
12.07,-274.304,-43.485
12.1,-275.322,-43.611
12.13,-276.234,-43.737
12.17,-277.042,-43.817
12.2,-277.673,-43.829
12.23,-278.235,-43.978
12.26,-279.007,-44.127
12.3,-279.533,-44.218
12.33,-279.849,-44.31
12.36,-280.621,-44.585
12.39,-281.534,-44.7
12.43,-281.639,-44.39
12.46,-281.499,-44.505
12.49,-282.201,-44.711
12.53,-282.727,-44.596
12.56,-282.516,-44.528
12.59,-282.271,-44.425
12.62,-281.604,-43.989
12.66,-280.235,-43.543
12.69,-279.358,-43.13
12.72,-278.937,-42.695
12.75,-278.34,-42.431
12.79,-277.603,-42.317
12.82,-277.112,-42.214
12.85,-276.796,-42.26
12.88,-276.55,-42.397
12.92,-276.445,-42.546
12.95,-276.375,-42.672
12.98,-276.164,-42.878
13.01,-276.164,-43.096
13.05,-275.989,-43.291
13.08,-275.497,-43.417
13.11,-275.076,-43.382
13.14,-274.445,-43.153
13.18,-273.427,-42.867
13.21,-271.988,-42.557
13.24,-271.04,-42.214
13.27,-269.987,-41.859
13.31,-268.549,-41.492
13.34,-266.969,-41.091
13.37,-265.39,-40.85
13.4,-263.881,-40.45
13.44,-262.161,-39.911
13.47,-260.547,-39.556
13.5,-258.862,-39.224
13.53,-257.072,-38.857
13.57,-255.598,-38.651
13.6,-254.37,-38.353
13.63,-252.194,-37.815
13.66,-250.053,-37.712
13.7,-248.228,-37.494
13.73,-246.263,-36.91
13.76,-244.438,-36.726
13.79,-242.929,-36.704
13.83,-240.753,-36.074
13.86,-238.332,-35.833
13.89,-237.138,-35.982
13.92,-235.419,-35.478
13.96,-232.611,-35.203
13.99,-230.821,-35.352
14.02,-229.523,-35.031
14.05,-227.628,-34.653
14.09,-225.592,-34.504
14.12,-223.978,-34.252
14.15,-222.258,-33.966
14.18,-219.907,-33.794
14.22,-217.345,-33.519
14.25,-215.485,-33.439
14.28,-213.8,-33.233
14.31,-211.659,-32.786
14.35,-209.694,-32.706
14.38,-207.974,-32.614
14.41,-205.623,-32.179
14.44,-203.517,-32.213
14.48,-201.797,-32.018
14.51,-199.306,-31.262
14.54,-197.165,-31.457
14.57,-195.901,-31.354
14.61,-193.655,-30.689
14.64,-191.374,-30.827
14.67,-189.83,-30.873
14.7,-187.584,-30.22
14.74,-185.162,-30.14
14.77,-183.267,-29.899
14.8,-180.811,-29.189
14.83,-178.389,-29.074
14.87,-176.318,-28.868
14.9,-173.897,-28.238
14.93,-171.265,-27.974
14.97,-168.773,-27.642
15.0,-166.281,-27.104
15.03,-163.684,-26.726
15.06,-160.982,-26.199
15.1,-158.42,-25.741
15.13,-156.068,-25.615
15.16,-153.085,-24.904
15.19,-149.962,-24.469
15.23,-147.575,-24.24
15.26,-145.435,-23.541
15.29,-142.557,-22.991
15.32,-139.223,-22.476
15.36,-136.345,-22.201
15.39,-133.923,-21.903
15.42,-131.326,-21.319
15.45,-128.133,-20.677
15.49,-124.728,-20.208
15.52,-121.57,-19.692
15.55,-118.411,-18.993
15.58,-115.077,-18.329
15.62,-111.673,-17.722
15.65,-108.234,-17.092
15.68,-104.97,-16.462
15.71,-101.706,-15.751
15.75,-98.161,-14.995
15.78,-94.231,-14.308
15.81,-90.3,-13.644
15.84,-86.755,-13.014
15.88,-83.351,-12.246
15.91,-79.631,-11.547
15.94,-75.841,-10.963
15.97,-72.366,-10.379
16.01,-69.032,-9.852
16.04,-65.488,-9.416
16.07,-61.943,-8.89
16.1,-58.434,-8.511
16.14,-55.31,-8.156
16.17,-52.011,-7.618
16.2,-48.642,-7.08
16.23,-45.062,-6.839
16.27,-41.974,-6.289
16.3,-38.219,-5.854
16.33,-35.551,-5.407
16.36,-37.025,-4.17
16.4,-42.992,-0.493
16.43,-35.622,2.073
16.46,-26.216,0.412
16.49,-26.988,0.149
16.53,-22.777,1.065
16.56,-13.722,1.398
16.59,-3.685,1.26
16.62,3.65,0.928
16.66,9.406,0.825
16.69,14.915,0.916
16.72,20.11,0.573
16.75,20.074,0.16
16.79,14.178,1.695
16.82,17.126,3.196
16.85,23.233,2.555
16.88,27.023,1.627
16.92,28.497,1.168
16.95,30.077,1.638
16.98,33.411,2.852
17.01,38.219,3.861
17.05,42.957,4.193
17.08,46.22,4.571
17.11,48.642,5.109
17.14,51.134,5.808
17.18,54.433,6.598
17.21,58.293,7.08
17.24,61.697,7.24
17.27,64.505,7.629
17.31,67.593,8.191
17.34,71.208,8.729
17.37,74.648,8.993
17.4,77.42,9.29
17.44,80.122,9.978
17.47,83.281,10.459
17.5,86.475,10.837
17.54,89.703,11.295
17.57,92.546,11.57
17.6,95.178,12.017
17.63,98.372,12.716
17.67,101.706,13.128
17.7,104.689,13.529
17.73,107.602,14.193
17.76,110.901,14.778
17.8,114.27,15.213
17.83,117.323,15.728
17.86,120.131,16.244
17.89,122.903,16.828
17.93,126.062,17.573
17.96,129.396,18.054
17.99,132.52,18.432
18.02,135.643,19.177
18.06,138.977,19.669
18.09,141.89,20.116
18.12,144.733,20.723
18.15,147.681,21.25
18.19,150.594,21.685
18.22,153.436,22.247
18.25,156.314,22.774
18.28,159.122,23.163
18.32,162.07,23.69
18.35,165.018,24.125
18.38,167.58,24.458
18.41,170.247,25.019
18.45,173.195,25.58
18.48,176.178,25.901
18.51,179.021,26.439
18.54,181.934,27.024
18.58,184.636,27.379
18.61,187.093,27.86
18.64,189.725,28.41
18.67,192.041,28.605
18.71,194.287,28.902
18.74,196.954,29.303
18.77,199.271,29.372
18.8,201.096,29.498
18.84,203.131,29.945
18.87,205.307,30.128
18.9,207.097,30.174
18.93,208.887,30.403
18.97,210.712,30.598
19.0,212.466,30.781
19.03,214.291,31.102
19.06,216.116,31.319
19.1,217.976,31.56
19.13,219.591,31.858
19.16,221.1,32.156
19.19,222.89,32.385
19.23,224.82,32.648
19.26,226.54,32.866
19.29,228.084,33.095
19.32,229.733,33.507
19.36,231.628,33.874
19.39,233.102,34.046
19.42,234.436,34.355
19.45,236.086,34.756
19.49,237.91,35.065
19.52,239.7,35.398
19.55,241.104,35.707
19.58,242.578,36.028
19.62,244.333,36.486
19.65,245.737,36.715
19.68,246.825,36.91
19.71,248.579,37.46
19.75,250.545,37.757
19.78,251.738,37.952
19.81,253.036,38.491
19.84,254.826,38.892
19.88,256.546,39.121
19.91,257.774,39.361
19.94,258.862,39.567
19.98,259.88,39.819
20.01,261.249,40.117
20.04,262.688,40.392
20.07,263.846,40.598
20.11,264.899,40.862
20.14,266.302,41.148
20.17,267.636,41.366
20.2,268.829,41.618
20.24,269.882,41.893
20.27,270.9,42.26
20.3,272.198,42.454
20.33,273.427,42.706
20.37,274.515,42.924
20.4,275.322,43.107
20.43,275.813,43.359
20.46,276.585,43.52
20.5,277.357,43.417
20.53,277.884,43.428
20.56,278.551,43.531
20.59,279.393,43.634
20.63,279.884,43.76
20.66,280.305,43.863
20.69,280.586,43.875
20.72,281.218,44.115
20.76,281.744,44.058
20.79,281.534,43.829
20.82,281.85,44.069
20.85,282.903,44.264
20.89,282.903,44.23
20.92,282.446,44.207
20.95,282.622,44.253
20.98,282.727,44.069
21.02,282.306,43.966
21.05,281.744,43.726
21.08,281.393,43.68
21.11,281.639,43.634
21.15,281.393,43.405
21.18,280.481,43.21
21.21,279.744,43.119
21.24,279.182,42.947
21.28,278.481,42.718
21.31,277.638,42.454
21.34,276.971,42.248
21.37,276.094,42.065
21.41,275.146,41.881
21.44,274.234,41.584
21.47,272.9,41.229
21.5,271.181,41.011
21.54,269.707,40.759
21.57,268.759,40.392
21.6,267.601,40.152
21.63,266.302,39.968
21.67,264.899,39.693
21.7,263.39,39.487
21.73,261.951,39.304
21.76,260.406,39.006
21.8,258.862,38.754
21.83,257.529,38.628
21.86,256.02,38.376
21.89,254.37,38.113
21.93,252.931,38.055
21.96,251.387,37.792
21.99,249.457,37.402
22.02,247.632,37.242
22.06,245.842,37.001
22.09,243.982,36.692
22.12,242.368,36.497
22.15,240.753,36.268
22.19,238.963,36.085
22.22,237.173,35.925
22.25,235.173,35.65
22.28,233.173,35.421
22.32,231.558,35.283
22.35,229.803,35.02
22.38,227.628,34.722
22.42,225.873,34.584
22.45,224.223,34.367
22.48,222.293,34.138
22.51,220.398,33.828
22.55,218.011,33.496
22.58,216.116,33.553
22.61,214.713,33.45
22.64,213.028,33.141
22.68,210.922,32.946
22.71,209.097,33.015
22.74,207.272,32.889
22.77,205.026,32.534
22.81,202.885,32.247
22.84,200.745,32.007
22.87,198.428,31.606
22.9,196.358,31.308
22.94,194.568,31.136
22.97,192.392,30.781
23.0,189.97,30.483
23.03,187.935,30.323
23.07,185.759,29.888
23.1,183.267,29.464
23.13,180.986,29.257
23.16,178.74,28.879
23.2,176.389,28.524
23.23,174.072,28.318
23.26,171.721,27.848
23.29,169.019,27.379
23.33,166.632,27.092
23.36,164.14,26.508
23.39,161.192,25.981
23.42,158.35,25.798
23.46,156.033,25.42
23.49,153.682,24.939
23.52,150.874,24.469
23.55,147.751,24.045
23.59,144.873,23.656
23.62,142.416,23.266
23.65,139.644,22.602
23.68,136.38,21.926
23.72,133.151,21.662
23.75,130.309,21.17
23.78,127.431,20.62
23.81,124.377,20.059
23.85,121.078,19.44
23.88,117.85,18.821
23.91,114.41,18.191
23.94,111.182,17.63
23.98,107.988,17.069
24.01,104.584,16.404
24.04,100.723,15.786
24.07,97.038,15.305
24.11,93.599,14.629
24.14,90.125,13.815
24.17,86.44,13.082
24.2,82.825,12.441
24.24,79.21,11.753
24.27,75.7,11.261
24.3,72.401,10.768
24.33,68.927,10.138
24.37,65.453,9.714
24.4,62.189,9.336
24.43,58.679,8.775
24.46,55.345,8.443
24.5,52.151,8.133
24.53,49.028,7.595
24.56,45.589,7.171
24.59,42.395,6.782
24.63,38.815,6.289
24.66,36.078,5.728
24.69,36.92,4.468
24.72,42.535,1.191
24.76,37.657,-1.947
24.79,26.602,-0.779
24.82,26.286,-0.057
24.85,22.987,-1.008
24.89,14.214,-1.375
24.92,4.317,-1.26
24.95,-3.194,-0.951
24.99,-8.809,-0.722
25.02,-12.985,-0.779
25.05,-18.32,-0.63
25.08,-17.828,-0.332
25.12,-13.863,-1.741
25.15,-17.583,-2.555
25.18,-22.215,-1.936
25.21,-25.409,-1.386
25.25,-27.164,-1.249
25.28,-29.445,-1.764
25.31,-33.025,-2.738
25.34,-38.113,-3.597
25.38,-42.606,-3.906
25.41,-45.764,-4.239
25.44,-48.151,-4.96
25.47,-50.853,-5.625
25.51,-54.047,-6.152
25.54,-57.521,-6.644
25.57,-60.715,-6.908
25.6,-63.557,-7.251
25.64,-66.821,-7.778
25.67,-70.401,-8.305
25.7,-73.84,-8.786
25.73,-77.104,-9.348
25.77,-80.544,-9.955
25.8,-83.807,-10.539
25.83,-87.106,-11.123
25.86,-90.3,-11.639
25.9,-93.353,-12.074
25.93,-96.161,-12.521
25.96,-99.074,-12.991
25.99,-102.162,-13.38
26.03,-105.145,-13.792
26.06,-108.128,-14.285
26.09,-111.322,-14.789
26.12,-114.516,-15.259
26.16,-117.534,-15.751
26.19,-120.412,-16.313
26.22,-123.325,-16.863
26.25,-126.378,-17.39
26.29,-129.396,-17.894
26.32,-132.484,-18.512
26.35,-135.854,-19.005
26.38,-139.223,-19.612
26.42,-141.96,-19.933
26.45,-144.662,-20.437
26.48,-147.716,-21.147
26.51,-150.945,-21.628
26.55,-153.857,-22.075
26.58,-156.665,-22.533
26.61,-159.718,-23.22
26.64,-163.087,-23.702
26.68,-165.755,-24.022
26.71,-168.176,-24.572
26.74,-171.089,-25.214
26.77,-174.037,-25.557
26.81,-176.985,-26.119
26.84,-180.319,-26.806
26.87,-183.408,-27.23
26.9,-185.934,-27.711
26.94,-188.391,-28.352
26.97,-191.129,-28.696
27.0,-193.48,-28.925
27.03,-195.656,-29.166
27.07,-197.621,-29.303
27.1,-199.797,-29.578
27.13,-202.078,-29.762
27.16,-203.798,-29.796
27.2,-205.412,-29.945
27.23,-207.132,-30.082
27.26,-208.887,-30.105
27.29,-210.536,-30.231
27.33,-212.221,-30.414
27.36,-213.976,-30.586
27.39,-215.8,-30.85
27.43,-217.625,-31.09
27.46,-219.24,-31.308
27.49,-220.784,-31.652
27.52,-222.433,-31.972
27.56,-224.399,-32.305
27.59,-226.224,-32.602
27.62,-228.049,-32.912
27.65,-229.663,-33.278
27.69,-231.207,-33.759
27.72,-232.822,-34.092
27.75,-234.296,-34.252
27.78,-235.98,-34.768
27.82,-237.77,-35.065
27.85,-239.209,-35.191
27.88,-240.508,-35.604
27.91,-242.192,-35.993
27.95,-243.912,-36.245
27.98,-245.386,-36.646
28.01,-246.684,-36.933
28.04,-248.123,-37.265
28.08,-249.808,-37.654
28.11,-251.176,-37.941
28.14,-252.58,-38.319
28.17,-254.195,-38.72
28.21,-255.879,-38.914
28.24,-256.967,-39.155
28.27,-258.02,-39.567
28.3,-259.564,-39.819
28.34,-260.722,-39.968
28.37,-261.916,-40.346
28.4,-263.284,-40.633
28.43,-264.337,-40.793
28.47,-265.355,-41.103
28.5,-266.689,-41.423
28.53,-268.163,-41.584
28.56,-269.25,-41.813
28.6,-270.058,-42.191
28.63,-271.146,-42.557
28.66,-272.374,-42.741
28.69,-273.427,-42.947
28.73,-274.409,-43.119
28.76,-275.287,-43.279
28.79,-276.094,-43.405
28.82,-276.585,-43.531
28.86,-277.147,-43.657
28.89,-278.024,-43.84
28.92,-278.761,-43.978
28.95,-279.358,-44.081
28.99,-279.849,-44.15
29.02,-280.516,-44.299
29.05,-281.253,-44.356
29.08,-281.253,-44.127
29.12,-281.218,-44.195
29.15,-281.885,-44.379
29.18,-282.306,-44.379
29.21,-282.306,-44.367
29.25,-282.236,-44.344
29.28,-282.13,-44.195
29.31,-281.639,-43.943
29.34,-281.183,-43.657
29.38,-280.656,-43.554
29.41,-280.481,-43.543
29.44,-280.376,-43.531
29.47,-280.235,-43.428
29.51,-279.849,-43.394
29.54,-279.428,-43.325
29.57,-278.972,-43.187
29.6,-278.375,-43.13
29.64,-277.814,-43.073
29.67,-277.287,-43.004
29.7,-276.936,-42.844
29.73,-276.024,-42.569
29.77,-274.585,-42.386
29.8,-273.532,-42.122
29.83,-272.304,-41.733
29.87,-270.654,-41.412
29.9,-269.566,-41.057
29.93,-268.303,-40.656
29.96,-266.689,-40.312
30.0,-265.39,-40.026
30.03,-264.021,-39.774
30.06,-262.231,-39.522
30.09,-260.687,-39.338
30.13,-259.599,-39.063
30.16,-258.336,-38.64
30.19,-256.335,-38.33
30.22,-254.51,-38.227
30.26,-253.107,-38.044
30.29,-251.387,-37.769
30.32,-249.492,-37.494
30.35,-247.667,-37.15
30.39,-245.947,-36.921
30.42,-244.298,-36.726
30.45,-242.227,-36.417
30.48,-240.192,-36.096
30.52,-238.612,-36.131
30.55,-237.209,-35.982
30.58,-235.313,-35.604
30.61,-233.278,-35.432
30.65,-231.488,-35.34
30.68,-229.628,-35.088
30.71,-227.733,-34.894
30.74,-225.943,-34.664
30.78,-224.048,-34.401
30.81,-222.188,-34.195
30.84,-220.293,-33.897
30.87,-218.047,-33.622
30.91,-215.976,-33.496
30.94,-214.081,-33.233
30.97,-212.115,-33.003
31.0,-209.94,-32.637
31.04,-207.693,-32.476
31.07,-205.974,-32.408
31.1,-204.324,-32.064
31.13,-201.868,-31.709
31.17,-199.551,-31.423
31.2,-197.902,-31.377
31.23,-196.147,-31.056
31.26,-193.796,-30.735
31.3,-191.444,-30.712
31.33,-189.409,-30.472
31.36,-187.444,-30.174
31.39,-185.197,-29.933
31.43,-182.846,-29.487
31.46,-180.6,-29.12
31.49,-178.284,-28.868
31.52,-176.073,-28.513
31.56,-173.756,-28.181
31.59,-171.405,-27.814
31.62,-168.668,-27.321
31.65,-165.895,-27.058
31.69,-163.403,-26.691
31.72,-160.912,-26.05
31.75,-158.209,-25.706
31.78,-155.717,-25.489
31.82,-153.12,-24.79
31.85,-150.102,-24.343
31.88,-147.33,-24.034
31.91,-144.733,-23.507
31.95,-141.96,-23.094
31.98,-138.942,-22.453
32.01,-136.029,-22.098
32.04,-133.397,-21.754
32.08,-130.765,-21.181
32.11,-127.887,-20.586
32.14,-124.518,-20.047
32.17,-121.149,-19.486
32.21,-117.709,-18.879
32.24,-114.34,-18.226
32.27,-111.041,-17.561
32.3,-107.883,-16.908
32.34,-104.373,-16.21
32.37,-100.793,-15.625
32.4,-97.179,-15.087
32.44,-93.81,-14.388
32.47,-90.405,-13.518
32.5,-86.615,-12.819
32.53,-82.79,-12.189
32.57,-79.07,-11.559
32.6,-75.771,-11.043
32.63,-72.437,-10.516
32.66,-68.822,-9.909
32.7,-65.242,-9.52
32.73,-61.943,-9.038
32.76,-58.504,-8.523
32.79,-55.099,-8.111
32.83,-51.625,-7.755
32.86,-48.466,-7.263
32.89,-45.343,-6.931
32.92,-42.184,-6.415
32.96,-38.359,-5.945
32.99,-36.008,-5.361
33.02,-39.026,-3.597
33.05,-43.448,0.458
33.09,-32.568,2.028
33.12,-25.374,0.069
33.15,-26.848,0.298
33.18,-21.373,1.191
33.22,-11.827,1.432
33.25,-2.351,1.123
33.28,3.58,0.756
33.31,8.598,0.813
33.35,13.968,0.951
33.38,19.267,0.481
33.41,17.688,0.321
33.44,13.336,2.142
33.48,18.004,3.047
33.51,23.444,2.165
33.54,26.462,1.26
33.57,27.55,0.997
33.61,29.445,1.627
33.64,33.025,2.795
33.67,38.043,3.62
33.7,42.535,3.849
33.74,45.729,4.113
33.77,48.01,4.674
33.8,50.818,5.418
33.83,54.292,6.163
33.87,57.907,6.69
33.9,61.101,7.091
33.93,64.189,7.629
33.96,67.593,8.225
34.0,71.313,8.763
34.03,74.718,9.153
34.06,77.841,9.668
34.09,80.684,10.127
34.13,83.597,10.596
34.16,86.65,11.215
34.19,89.738,11.627
34.22,92.651,11.879
34.26,95.494,12.257
34.29,98.372,12.716
34.32,101.46,13.185
34.35,104.689,13.678
34.39,107.918,14.09
34.42,110.936,14.583
34.45,113.884,15.259
34.48,117.043,15.854
34.52,120.166,16.37
34.55,123.289,16.897
34.58,126.273,17.447
34.61,129.045,17.985
34.65,132.169,18.581
34.68,135.608,19.211
34.71,138.837,19.646
34.74,141.714,20.116
34.78,144.557,20.689
34.81,147.505,21.204
34.84,150.488,21.697
34.88,153.436,22.189
34.91,156.209,22.648
34.94,159.016,23.163
34.97,161.964,23.679
35.01,165.053,24.045
35.04,167.86,24.423
35.07,170.528,24.893
35.1,173.019,25.351
35.14,175.792,25.924
35.17,178.74,26.485
35.2,181.653,26.898
35.23,184.39,27.356
35.27,186.882,27.826
35.3,189.268,28.204
35.33,191.479,28.605
35.36,193.831,29.017
35.4,196.358,29.269
35.43,198.849,29.487
35.46,200.99,29.704
35.49,202.885,29.956
35.53,204.851,30.22
35.56,206.676,30.403
35.59,208.43,30.586
35.62,210.536,30.793
35.66,212.431,30.953
35.69,214.151,31.205
35.72,216.081,31.571
35.75,218.257,31.904
35.79,219.836,32.076
35.82,221.065,32.385
35.85,222.784,32.728
35.88,224.855,32.958
35.92,226.68,33.152
35.95,228.259,33.324
35.98,229.874,33.679
36.01,231.769,34.069
36.05,233.348,34.218
36.08,234.541,34.596
36.11,236.191,35.1
36.14,238.051,35.317
36.18,239.7,35.558
36.21,241.209,35.982
36.24,242.578,36.234
36.27,244.228,36.692
36.31,245.912,37.013
36.34,246.965,37.047
36.37,248.053,37.517
36.4,250.018,38.032
36.44,251.878,38.17
36.47,253.212,38.514
36.5,254.932,38.949
36.53,256.511,39.224
36.57,257.564,39.464
36.6,258.582,39.808
36.63,259.915,40.072
36.66,261.424,40.278
36.7,262.723,40.53
36.73,263.776,40.759
36.76,264.828,41.034
36.79,266.197,41.309
36.83,267.39,41.526
36.86,268.408,41.87
36.89,269.637,42.179
36.92,270.865,42.374
36.96,271.918,42.603
36.99,273.006,42.924
37.02,274.164,43.165
37.05,275.006,43.359
37.09,275.708,43.565
37.12,276.515,43.714
37.15,277.357,43.657
37.18,277.954,43.669
37.22,278.656,43.783
37.25,279.393,43.921
37.28,279.955,43.989
37.32,280.411,44.138
37.35,280.797,44.195
37.38,281.499,44.367
37.41,281.92,44.299
37.45,281.674,44.195
37.48,281.99,44.436
37.51,282.938,44.631
37.54,283.218,44.528
37.58,282.762,44.402
37.61,282.762,44.356
37.64,282.692,44.15
37.67,282.166,44.161
37.71,281.709,43.989
37.74,281.393,43.932
37.77,281.429,43.966
37.8,281.358,43.817
37.84,280.762,43.531
37.87,279.99,43.268
37.9,278.972,43.084
37.93,278.059,42.947
37.97,277.463,42.672
38.0,276.656,42.454
38.03,275.708,42.34
38.06,274.866,42.076
38.1,273.672,41.767
38.13,272.585,41.515
38.16,271.497,41.103
38.19,269.812,40.702
38.23,268.268,40.518
38.26,267.215,40.369
38.29,266.092,40.094
38.32,264.513,39.854
38.36,263.144,39.693
38.39,261.951,39.43
38.42,260.406,39.121
38.45,258.757,38.892
38.49,257.283,38.754
38.52,255.949,38.571
38.55,254.405,38.284
38.58,252.545,38.055
38.62,250.861,37.929
38.65,249.176,37.654
38.68,247.351,37.299
38.71,245.667,37.036
38.75,244.122,36.807
38.78,242.192,36.52
38.81,240.297,36.417
38.84,238.823,36.463
38.88,237.209,36.142
38.91,235.033,35.799
38.94,233.102,35.661
38.97,231.453,35.421
39.01,229.488,35.169
39.04,227.452,34.997
39.07,225.662,34.871
39.1,224.258,34.642
39.14,222.398,34.344
39.17,220.012,34.103
39.2,217.941,33.977
39.23,216.327,33.805
39.27,214.467,33.53
39.3,212.572,33.393
39.33,210.712,33.118
39.36,208.571,32.763
39.4,206.606,32.797
39.43,204.675,32.557
39.46,202.289,32.156
39.49,200.394,32.121
39.53,198.569,31.812
39.56,196.498,31.319
39.59,194.638,31.274
39.62,192.462,30.976
39.66,189.935,30.609
39.69,187.935,30.632
39.72,185.899,30.174
39.75,183.302,29.681
39.79,181.126,29.532
39.82,178.951,29.017
39.85,176.494,28.639
39.89,174.142,28.627
39.92,171.861,28.066
39.95,169.299,27.596
39.98,166.913,27.379
40.02,164.14,26.691
40.05,161.227,26.187
40.08,158.701,25.993
40.11,156.139,25.431
40.15,153.331,25.007
40.18,150.629,24.641
40.21,147.856,24.102
40.24,144.908,23.747
40.28,141.96,23.163
40.31,139.047,22.671
40.34,136.275,22.212
40.37,133.607,21.708
40.41,130.695,21.135
40.44,127.536,20.654
40.47,124.307,20.116
40.5,121.043,19.578
40.54,117.744,19.028
40.57,114.235,18.363
40.6,110.901,17.779
40.63,107.812,17.252
40.67,104.654,16.519
40.7,101.25,15.797
40.73,97.565,15.224
40.76,93.88,14.549
40.8,90.195,13.792
40.83,86.475,13.151
40.86,82.86,12.487
40.89,79.105,11.765
40.93,75.595,11.295
40.96,72.226,10.814
40.99,68.927,10.161
41.02,65.488,9.806
41.06,62.364,9.371
41.09,58.925,8.729
41.12,55.38,8.363
41.15,52.081,8.099
41.19,49.063,7.561
41.22,45.694,7.148
41.25,42.36,6.782
41.28,38.675,6.381
41.32,36.604,5.716
41.35,38.991,4.09
41.38,43.869,0.344
41.41,36.113,-1.97
41.45,26.883,-0.458
41.48,27.164,-0.206
41.51,22.636,-1.1
41.54,13.477,-1.42
41.58,3.474,-1.214
41.61,-3.334,-0.882
41.64,-8.739,-0.733
41.67,-13.196,-0.836
41.71,-18.565,-0.561
41.74,-16.811,-0.424
41.77,-13.617,-1.936
41.8,-18.144,-2.497
41.84,-22.566,-1.833
41.87,-25.655,-1.317
41.9,-27.409,-1.226
41.93,-29.691,-1.776
41.97,-33.27,-2.761
42.0,-38.184,-3.574
42.03,-42.535,-3.849
42.06,-45.554,-4.055
42.1,-47.8,-4.708
42.13,-50.327,-5.441
42.16,-53.555,-5.991
42.19,-57.205,-6.438
42.23,-60.539,-6.759
42.26,-63.417,-7.102
42.29,-66.47,-7.664
42.33,-69.98,-8.328
42.36,-73.63,-8.901
42.39,-77.139,-9.428
42.42,-80.368,-10.012
42.46,-83.702,-10.654
42.49,-87.001,-11.226
42.52,-90.125,-11.708
42.55,-93.178,-12.177
42.59,-96.161,-12.624
42.62,-98.933,-13.025
42.65,-102.022,-13.472
42.68,-105.145,-13.907
42.72,-108.058,-14.285
42.75,-111.076,-14.846
42.78,-114.375,-15.408
42.81,-117.604,-15.774
42.85,-120.482,-16.29
42.88,-123.325,-16.92
42.91,-126.132,-17.458
42.94,-129.501,-18.065
42.98,-132.941,-18.638
43.01,-136.099,-18.959
43.04,-139.328,-19.612
43.07,-141.995,-20.059
43.11,-144.417,-20.494
43.14,-147.505,-21.261
43.17,-150.945,-21.777
43.2,-153.787,-22.098
43.24,-156.419,-22.556
43.27,-159.473,-23.369
43.3,-162.842,-23.839
43.33,-165.544,-24.114
43.37,-168.176,-24.733
43.4,-170.949,-25.225
43.43,-173.581,-25.489
43.46,-176.599,-26.199
43.5,-179.828,-26.783
43.53,-182.671,-27.092
43.56,-185.373,-27.791
43.59,-188.145,-28.318
43.63,-190.462,-28.49
43.66,-192.673,-29.051
43.69,-195.235,-29.326
43.72,-197.235,-29.269
43.76,-199.236,-29.739
43.79,-201.622,-29.991
43.82,-203.622,-29.853
43.85,-205.377,-30.094
43.89,-207.132,-30.266
43.92,-208.676,-30.208
43.95,-210.396,-30.495
43.98,-212.256,-30.712
44.02,-213.94,-30.827
44.05,-215.73,-31.171
44.08,-217.766,-31.434
44.11,-219.38,-31.617
44.15,-220.959,-32.064
44.18,-222.855,-32.35
44.21,-224.539,-32.66
44.24,-226.329,-33.072
44.28,-228.084,-33.37
44.31,-229.698,-33.725
44.34,-231.593,-34.16
44.37,-233.208,-34.355
44.41,-234.506,-34.55
44.44,-236.296,-35.077
44.47,-238.051,-35.226
44.5,-239.42,-35.455
44.54,-240.964,-35.959
44.57,-242.543,-36.245
44.6,-243.982,-36.589
44.63,-245.807,-37.036
44.67,-246.895,-37.105
44.7,-247.913,-37.368
44.73,-249.632,-37.872
44.76,-251.352,-38.09
44.8,-252.65,-38.342
44.83,-254.195,-38.903
44.86,-255.844,-39.121
44.9,-256.827,-39.258
44.93,-257.845,-39.648
44.96,-259.354,-39.9
44.99,-260.477,-40.049
45.03,-261.74,-40.427
45.06,-263.179,-40.736
45.09,-264.232,-40.908
45.12,-265.215,-41.229
45.16,-266.513,-41.561
45.19,-268.022,-41.687
45.22,-269.11,-41.927
45.25,-270.058,-42.328
45.29,-271.216,-42.626
45.32,-272.304,-42.855
45.35,-273.181,-43.256
45.38,-274.164,-43.508
45.42,-274.901,-43.623
45.45,-275.883,-43.749
45.48,-276.761,-43.749
45.51,-277.147,-43.852
45.55,-277.989,-44.081
45.58,-278.656,-44.218
45.61,-279.288,-44.333
45.64,-279.814,-44.356
45.68,-280.27,-44.562
45.71,-280.867,-44.826
45.74,-281.042,-44.585
45.77,-281.148,-44.562
45.81,-281.85,-44.688
45.84,-282.481,-44.596
45.87,-282.271,-44.619
45.9,-282.236,-44.791
45.94,-282.446,-44.711
45.97,-282.201,-44.493
46.0,-281.604,-44.322
46.03,-281.288,-44.264
46.07,-281.499,-44.207
46.1,-281.218,-44.104
46.13,-280.867,-44.058
46.16,-280.586,-44.001
46.2,-279.849,-43.795
46.23,-279.147,-43.623
46.26,-278.867,-43.417
46.29,-278.094,-43.142
46.33,-277.077,-43.061
46.36,-276.515,-42.901
46.39,-275.954,-42.878
46.42,-276.164,-43.313
46.46,-276.41,-43.394
46.49,-275.287,-43.313
46.52,-274.48,-43.485
46.55,-274.374,-43.543
46.59,-273.848,-43.279
46.62,-272.585,-42.993
46.65,-271.286,-42.764
46.68,-269.847,-42.386
46.72,-268.303,-41.95
46.75,-266.689,-41.469
46.78,-264.723,-40.954
46.81,-262.828,-40.472
46.85,-261.249,-40.026
46.88,-259.424,-39.522
46.91,-257.388,-38.96
46.94,-255.458,-38.525
46.98,-253.212,-38.09
47.01,-250.685,-37.414
47.04,-248.474,-37.208
47.07,-247.105,-37.047
47.11,-244.859,-36.268
47.14,-242.473,-35.993
47.17,-241.034,-36.074
47.2,-239.314,-35.512
47.24,-236.507,-35.157
47.27,-234.436,-35.34
47.3,-232.927,-34.962
47.34,-230.505,-34.435
47.37,-228.4,-34.39
47.4,-226.575,-34.034
47.43,-224.434,-33.725
47.47,-222.328,-33.599
47.5,-220.152,-33.301
47.53,-218.011,-33.095
47.56,-215.941,-33.003
47.6,-213.695,-32.694
47.63,-211.729,-32.648
47.66,-210.01,-32.591
47.69,-207.974,-32.167
47.73,-205.658,-32.076
47.76,-203.552,-32.121
47.79,-201.411,-31.663
47.82,-199.516,-31.537
47.86,-197.726,-31.423
47.89,-195.094,-30.815
47.92,-192.953,-30.941
47.95,-191.795,-30.884
47.99,-189.479,-29.933
48.02,-186.461,-29.83
48.05,-184.25,-30.014
48.08,-182.179,-29.418
48.12,-179.828,-29.154
48.15,-177.863,-29.028
48.18,-175.827,-28.524
48.21,-173.3,-28.272
48.25,-170.703,-28.009
48.28,-168.246,-27.482
48.31,-165.93,-27.23
48.34,-163.509,-26.703
48.38,-160.385,-25.981
48.41,-157.648,-25.844
48.44,-155.507,-25.626
48.47,-153.12,-24.985
48.51,-150.172,-24.435
48.54,-146.944,-23.976
48.57,-143.996,-23.587
48.6,-141.258,-23.106
48.64,-138.31,-22.43
48.67,-135.222,-21.903
48.7,-132.449,-21.594
48.73,-129.677,-20.964
48.77,-126.343,-20.276
48.8,-122.693,-19.795
48.83,-119.324,-19.257
48.86,-114.796,-17.836
48.9,-108.9,-16.152
48.93,-102.689,-14.697
48.96,-98.056,-13.552
48.99,-95.354,-12.865
49.03,-92.125,-11.387
49.06,-87.457,-10.413
49.09,-83.176,-10.505
49.12,-80.754,-10.722
49.16,-78.508,-10.39
49.19,-75.42,-10.069
49.22,-71.875,-10.035
49.25,-68.716,-10.058
49.29,-66.365,-10.184
49.32,-64.294,-10.184
49.35,-61.662,-9.921
49.38,-58.82,-9.783
49.42,-56.258,-9.898
49.45,-53.871,-9.726
49.48,-50.818,-9.359
49.51,-47.8,-9.187
49.55,-44.887,-8.912
49.58,-42.149,-8.363
49.61,-38.71,-7.881
49.64,-36.113,-7.309
49.68,-37.517,-5.739
49.71,-44.466,-2.268
49.74,-42.957,1.73
49.78,-30.954,1.146
49.81,-28.954,0.034
49.84,-26.567,0.939
49.87,-17.232,1.489
49.91,-6.247,1.443
49.94,2.983,1.065
49.97,8.493,0.71
50.0,13.161,0.768
50.04,17.302,0.63
50.07,19.408,0.149
50.1,16.144,0.286
50.13,13.336,1.856
50.17,17.828,2.383
50.2,22.321,1.718
50.23,25.655,1.409
50.26,28.111,1.478
50.3,31.305,2.039
50.33,35.587,3.059
50.36,41.272,3.941
50.39,45.975,4.181
50.43,48.502,4.399
50.46,50.256,5.35
50.49,53.204,6.438
50.52,56.749,7.068
50.56,60.188,7.526
50.59,63.242,7.916
50.62,66.33,8.305
50.65,69.769,8.809
50.69,73.489,9.21
50.72,76.999,9.623
50.75,80.157,10.173
50.78,83.316,10.871
50.82,86.755,11.582
50.85,90.089,12.017
50.88,92.897,12.372
50.91,95.564,12.968
50.95,98.407,13.311
50.98,101.215,13.575
51.01,104.233,14.113
51.04,107.602,14.503
51.08,110.69,14.766
51.11,113.568,15.339
51.14,116.446,15.797
51.17,119.324,16.221
51.21,122.272,16.851
51.24,125.255,17.275
51.27,128.098,17.664
51.3,131.151,18.363
51.34,134.415,18.936
51.37,137.608,19.394
51.4,140.697,20.036
51.43,143.75,20.62
51.47,146.452,21.101
51.5,149.471,21.754
51.53,152.664,22.292
51.56,155.717,22.682
51.6,158.49,23.255
51.63,161.368,23.85
51.66,164.246,24.228
51.69,167.159,24.733
51.73,170.142,25.202
51.76,172.668,25.523
51.79,175.195,26.119
51.82,178.389,26.795
51.86,181.372,27.115
51.89,183.934,27.585
51.92,186.707,28.204
51.95,189.198,28.444
51.99,191.444,28.673
52.02,193.866,29.177
52.05,196.182,29.418
52.08,198.358,29.567
52.12,200.604,29.945
52.15,202.921,30.231
52.18,204.886,30.231
52.21,206.606,30.506
52.25,208.641,30.781
52.28,210.606,30.907
52.31,212.431,31.205
52.35,214.291,31.491
52.38,216.046,31.697
52.41,217.976,32.064
52.44,219.696,32.316
52.48,221.31,32.465
52.51,222.995,32.809
52.54,224.995,33.095
52.57,226.75,33.29
52.61,228.435,33.599
52.64,230.049,34.034
52.67,231.979,34.401
52.7,233.804,34.722
52.74,235.454,34.951
52.77,237.033,35.249
52.8,238.683,35.741
52.83,240.437,36.074
52.87,242.017,36.371
52.9,243.947,36.852
52.93,245.596,37.07
52.96,246.509,37.231
53.0,247.983,37.757
53.03,249.702,37.975
53.06,251.071,38.101
53.09,252.51,38.571
53.13,254.23,38.937
53.16,255.458,39.109
53.19,256.827,39.396
53.22,258.195,39.567
53.26,259.143,39.716
53.29,260.126,39.968
53.32,261.424,40.106
53.35,262.653,40.346
53.39,263.705,40.621
53.42,264.934,40.908
53.45,266.092,41.125
53.48,267.25,41.343
53.52,268.478,41.629
53.55,269.566,41.927
53.58,270.654,42.202
53.61,271.812,42.466
53.65,273.041,42.786
53.68,274.094,43.027
53.71,274.866,43.348
53.74,275.638,43.565
53.78,276.691,43.68
53.81,277.428,43.714
53.84,277.814,43.634
53.87,278.235,43.921
53.91,279.253,44.195
53.94,279.99,44.161
53.97,280.2,44.184
54.0,280.656,44.402
54.04,281.288,44.39
54.07,281.323,44.299
54.1,281.323,44.356
54.13,281.92,44.379
54.17,282.446,44.31
54.2,282.341,44.344
54.23,282.446,44.264
54.26,281.99,44.115
54.3,281.779,44.069
54.33,281.744,43.852
54.36,281.183,43.588
54.39,280.832,43.669
54.43,280.972,43.68
54.46,280.621,43.531
54.49,279.849,43.52
54.52,279.393,43.428
54.56,278.902,43.21
54.59,278.094,43.016
54.62,277.322,42.775
54.65,276.585,42.603
54.69,275.708,42.489
54.72,274.62,42.305
54.75,273.602,42.088
54.79,272.655,41.767
54.82,271.146,41.4
54.85,269.531,41.125
54.88,268.338,40.896
54.92,267.39,40.644
54.95,266.338,40.278
54.98,264.723,40.037
55.01,263.214,40.003
55.05,262.056,39.762
55.08,260.722,39.43
55.11,259.319,39.201
55.14,257.88,38.914
55.18,256.125,38.651
55.21,254.546,38.548
55.24,253.072,38.353
55.27,251.387,38.044
55.31,249.983,37.918
55.34,248.474,37.643
55.37,246.509,37.253
55.4,244.649,37.242
55.44,243.315,37.185
55.47,241.666,36.738
55.5,239.7,36.555
55.53,238.051,36.509
55.57,236.156,36.154
55.6,234.085,35.902
55.63,232.436,35.73
55.66,230.751,35.421
55.7,228.68,35.065
55.73,226.575,34.848
55.76,224.855,34.768
55.79,223.381,34.504
55.83,220.924,34.046
55.86,218.082,33.702
55.89,216.327,33.828
55.92,215.063,33.622
55.96,212.923,33.141
55.99,210.677,33.095
56.02,209.308,33.118
56.05,207.518,32.637
56.09,205.026,32.35
56.12,202.991,32.236
56.15,200.955,31.72
56.18,198.358,31.4
56.22,196.358,31.4
56.25,194.392,30.987
56.28,192.181,30.712
56.31,190.146,30.735
56.35,188.11,30.231
56.38,185.548,29.807
56.41,183.267,29.704
56.44,181.056,29.189
56.48,178.564,28.811
56.51,176.389,28.742
56.54,174.142,28.284
56.57,171.475,27.894
56.61,169.019,27.688
56.64,166.632,27.161
56.67,163.824,26.657
56.7,161.157,26.359
56.74,158.595,25.855
56.77,155.928,25.34
56.8,153.506,25.088
56.83,150.874,24.492
56.87,147.821,24.102
56.9,145.013,23.805
56.93,142.487,23.289
56.96,139.679,22.716
57.0,136.555,22.178
57.03,133.397,21.674
57.06,130.309,21.204
57.09,127.185,20.677
57.13,124.062,20.127
57.16,121.008,19.543
57.19,117.85,18.821
57.23,114.34,18.157
57.26,110.936,17.699
57.29,107.707,17.16
57.32,104.373,16.507
57.36,100.899,15.854
57.39,97.319,15.156
57.42,93.529,14.445
57.45,89.914,13.873
57.49,86.334,13.162
57.52,82.79,12.475
57.55,79.35,11.983
57.58,76.122,11.398
57.62,72.437,10.722
57.65,68.892,10.425
57.68,65.768,10.035
57.71,62.54,9.348
57.75,58.96,8.912
57.78,55.731,8.569
57.81,52.222,8.065
57.84,49.028,7.767
57.88,45.799,7.4
57.91,42.57,6.782
57.94,39.026,6.449
57.97,36.604,6.003
58.01,37.622,4.571
58.04,42.992,1.226
58.07,38.85,-1.753
58.1,28.813,-0.768
58.14,27.866,-0.172
58.17,24.356,-0.951
58.2,15.758,-1.42
58.23,4.948,-1.42
58.27,-3.685,-1.042
58.3,-10.002,-0.825
58.33,-15.126,-0.894
58.36,-20.531,-0.573
58.4,-19.583,-0.172
58.43,-14.845,-1.661
58.46,-18.144,-2.612
58.49,-22.707,-1.97
58.53,-25.584,-1.283
58.56,-26.848,-1.077
58.59,-28.778,-1.604
58.62,-32.253,-2.658
58.66,-37.411,-3.608
58.69,-42.535,-3.952
58.72,-46.291,-4.147
58.75,-48.817,-4.674
58.79,-51.414,-5.625
58.82,-54.819,-6.495
58.85,-58.714,-7.068
58.88,-62.048,-7.469
58.92,-65.137,-7.87
58.95,-68.19,-8.351
58.98,-71.419,-8.832
59.01,-74.753,-9.302
59.05,-77.806,-9.646
59.08,-80.508,-9.955
59.11,-83.562,-10.505
59.14,-86.861,-10.906
59.18,-89.879,-11.146
59.21,-92.371,-11.478
59.24,-95.143,-11.971
59.27,-98.302,-12.464
59.31,-101.46,-12.876
59.34,-104.373,-13.323
59.37,-107.391,-13.873
59.4,-110.69,-14.4
59.44,-113.884,-15.007
59.47,-116.937,-15.58
59.5,-119.991,-16.187
59.53,-122.868,-16.817
59.57,-125.957,-17.481
59.6,-129.291,-18.1
59.63,-132.73,-18.535
59.66,-135.924,-19.119
59.7,-138.942,-19.669
59.73,-141.855,-20.208
59.76,-144.943,-20.769
59.8,-147.961,-21.239
59.83,-150.734,-21.697
59.86,-153.647,-22.258
59.89,-156.735,-22.774
59.93,-159.753,-23.232
59.96,-162.561,-23.633
59.99,-165.334,-24.137
60.02,-168.036,-24.607
60.06,-170.773,-25.007
60.09,-173.546,-25.5
60.12,-176.459,-26.038
60.15,-179.442,-26.52
60.19,-182.39,-27.058
60.22,-185.057,-27.574
60.25,-187.584,-27.952
60.28,-190.076,-28.501
60.32,-192.532,-28.857
60.35,-194.392,-29.04
60.38,-196.814,-29.509
60.41,-199.586,-29.681
60.45,-201.552,-29.578
60.48,-203.166,-29.922
60.51,-205.167,-30.22
60.54,-207.132,-30.266
60.58,-209.097,-30.483
60.61,-210.782,-30.632
60.64,-212.326,-30.804
60.67,-214.256,-31.216
60.71,-216.467,-31.411
60.74,-218.257,-31.537
60.77,-219.696,-31.961
60.8,-221.416,-32.19
60.84,-223.135,-32.35
60.87,-225.031,-32.74
60.9,-226.645,-32.958
60.93,-227.943,-33.233
60.97,-229.698,-33.771
61.0,-231.593,-34.023
61.03,-233.208,-34.195
61.06,-234.647,-34.653
61.1,-236.121,-34.779
61.13,-237.7,-35.123
61.16,-239.735,-35.741
61.19,-241.525,-35.936
61.23,-242.719,-36.245
61.26,-244.403,-36.841
61.29,-245.947,-36.956
61.32,-246.86,-37.116
61.36,-248.334,-37.597
61.39,-249.983,-37.712
61.42,-251.527,-37.987
61.45,-253.177,-38.456
61.49,-254.475,-38.605
61.52,-255.353,-38.949
61.55,-257.072,-39.419
61.58,-258.652,-39.453
61.62,-259.354,-39.59
61.65,-260.371,-40.014
61.68,-261.916,-40.404
61.71,-263.144,-40.679
61.75,-264.232,-40.919
61.78,-265.495,-41.08
61.81,-266.653,-41.274
61.84,-267.636,-41.664
61.88,-268.759,-41.973
61.91,-269.917,-42.111
61.94,-271.04,-42.363
61.97,-272.198,-42.729
62.01,-273.146,-43.061
62.04,-274.023,-43.313
62.07,-274.936,-43.474
62.1,-275.778,-43.623
62.14,-276.656,-43.703
62.17,-277.217,-43.68
62.2,-277.779,-43.909
62.24,-278.41,-43.909
62.27,-279.112,-44.069
62.3,-279.955,-44.299
62.33,-280.411,-44.31
62.37,-280.656,-44.596
62.4,-281.148,-44.505
62.43,-281.429,-44.425
62.46,-281.885,-44.585
62.5,-282.411,-44.642
62.53,-282.552,-44.654
62.56,-282.587,-44.677
62.59,-282.481,-44.596
62.63,-282.025,-44.47
62.66,-281.779,-44.322
62.69,-281.709,-44.092
62.72,-281.429,-44.001
62.76,-281.183,-43.989
62.79,-280.867,-43.921
62.82,-280.446,-43.817
62.85,-279.884,-43.657
62.89,-279.077,-43.543
62.92,-278.586,-43.313
62.95,-278.059,-43.21
62.98,-277.779,-43.394
63.02,-277.884,-43.52
63.05,-277.393,-43.405
63.08,-276.48,-43.176
63.11,-275.427,-42.867
63.15,-274.059,-42.431
63.18,-272.444,-41.95
63.21,-270.619,-41.446
63.24,-269.005,-40.976
63.28,-267.426,-40.438
63.31,-265.636,-39.945
63.34,-264.091,-39.51
63.37,-262.196,-39.144
63.41,-260.301,-38.869
63.44,-258.968,-38.571
63.47,-257.388,-38.25
63.5,-255.493,-37.941
63.54,-253.563,-37.62
63.57,-251.703,-37.391
63.6,-249.948,-37.231
63.63,-247.948,-36.818
63.67,-245.631,-36.337
63.7,-244.052,-36.429
63.73,-242.824,-36.222
63.76,-240.683,-35.73
63.8,-238.437,-35.833
63.83,-237.103,-35.879
63.86,-235.77,-35.673
63.89,-233.804,-35.535
63.93,-231.734,-35.386
63.96,-229.944,-35.272
63.99,-228.54,-35.18
64.02,-226.785,-34.779
64.06,-224.715,-34.435
64.09,-222.784,-34.309
64.12,-220.889,-34.138
64.15,-218.959,-33.966
64.19,-217.099,-33.863
64.22,-215.274,-33.645
64.25,-213.344,-33.393
64.28,-211.378,-33.129
64.32,-209.343,-32.774
64.35,-207.553,-32.648
64.38,-205.623,-32.522
64.41,-203.061,-32.213
64.45,-201.06,-32.144
64.48,-199.622,-31.995
64.51,-197.235,-31.388
64.54,-194.708,-31.251
64.58,-193.269,-31.193
64.61,-191.374,-30.689
64.64,-189.058,-30.54
64.67,-187.022,-30.403
64.71,-184.776,-29.968
64.74,-182.706,-29.762
64.77,-180.319,-29.464
64.81,-177.827,-29.005
64.84,-175.616,-28.845
64.87,-173.756,-28.478
64.9,-171.265,-27.906
64.94,-168.633,-27.803
64.97,-166.351,-27.539
65.0,-164.07,-26.966
65.03,-161.543,-26.68
65.07,-159.016,-26.142
65.1,-156.384,-25.752
65.13,-153.647,-25.317
65.16,-151.085,-24.847
65.2,-148.137,-24.297
65.23,-145.224,-23.736
65.26,-142.416,-23.323
65.29,-139.433,-22.682
65.33,-136.555,-22.098
65.36,-133.502,-21.525
65.39,-130.344,-21.009
65.42,-127.361,-20.494
65.46,-124.237,-19.841
65.49,-120.798,-19.199
65.52,-117.323,-18.478
65.55,-113.989,-17.768
65.59,-110.445,-17.126
65.62,-106.865,-16.519
65.65,-103.355,-15.877
65.68,-100.021,-15.213
65.72,-96.512,-14.537
65.75,-92.722,-13.964
65.78,-89.423,-13.46
65.81,-86.089,-12.876
65.85,-82.825,-12.326
65.88,-79.561,-11.902
65.91,-76.402,-11.433
65.94,-73.033,-11.032
65.98,-69.839,-10.745
66.01,-66.751,-10.321
66.04,-63.557,-9.749
66.07,-60.153,-9.348
66.11,-56.924,-8.89
66.14,-53.485,-8.351
66.17,-50.081,-7.813
66.2,-46.466,-7.309
66.24,-43.202,-6.759
66.27,-39.552,-6.346
66.3,-37.201,-5.705
66.33,-38.359,-4.261
66.37,-43.869,-1.008
66.4,-39.131,1.856
66.43,-28.532,0.813
66.46,-27.164,0.206
66.5,-23.233,0.997
66.53,-14.073,1.489
66.56,-2.983,1.409
66.59,5.194,0.962
66.63,10.739,0.733
66.66,15.793,0.928
66.69,21.478,0.584
66.72,20.566,0.241
66.76,15.337,1.833
66.79,18.004,3.288
66.82,24.075,2.795
66.85,27.76,1.661
66.89,28.883,1.111
66.92,30.042,1.661
66.95,33.27,2.99
66.98,38.324,3.987
67.02,42.921,4.33
67.05,46.045,4.548
67.08,48.326,5.063
67.11,51.099,5.808
67.15,54.608,6.449
67.18,58.293,6.873
67.21,61.487,7.24
67.25,64.505,7.664
67.28,67.804,8.156
67.31,71.278,8.752
67.34,74.648,9.268
67.38,77.841,9.76
67.41,81.07,10.287
67.44,84.474,10.814
67.47,87.598,11.284
67.51,90.546,11.73
67.54,93.529,12.166
67.57,96.407,12.613
67.6,99.319,12.956
67.64,102.092,13.323
67.67,105.11,13.724
67.7,108.093,14.136
67.73,111.076,14.629
67.77,114.13,15.144
67.8,117.078,15.534
67.83,119.991,15.992
67.86,122.903,16.496
67.9,125.676,17.0
67.93,128.589,17.538
67.96,131.677,18.146
67.99,134.976,18.718
68.03,138.135,19.245
68.06,141.083,19.83
68.09,144.066,20.528
68.12,147.224,21.135
68.16,150.348,21.662
68.19,153.331,22.155
68.22,156.104,22.693
68.25,159.087,23.278
68.29,162.0,23.77
68.32,164.983,24.183
68.35,167.825,24.641
68.38,170.598,25.076
68.42,173.405,25.615
68.45,176.353,26.245
68.48,179.372,26.76
68.51,182.32,27.23
68.55,185.127,27.619
68.58,187.514,27.974
68.61,189.9,28.398
68.64,192.357,28.673
68.68,194.603,28.914
68.71,196.919,29.28
68.74,199.341,29.464
68.77,201.271,29.613
68.81,202.956,29.922
68.84,204.956,30.128
68.87,207.027,30.197
68.9,209.097,30.38
68.94,210.817,30.495
68.97,212.466,30.747
69.0,214.432,31.102
69.03,216.432,31.297
69.07,217.976,31.56
69.1,219.626,31.835
69.13,221.24,31.984
69.16,222.749,32.27
69.2,224.574,32.614
69.23,226.259,32.82
69.26,227.943,33.152
69.29,229.803,33.542
69.33,231.558,33.782
69.36,233.067,34.115
69.39,234.401,34.309
69.42,235.77,34.584
69.46,237.595,35.065
69.49,239.42,35.26
69.52,240.613,35.398
69.55,241.982,35.902
69.59,243.982,36.417
69.62,245.491,36.532
69.65,246.684,36.944
69.69,248.228,37.46
69.72,250.089,37.7
69.75,251.668,38.067
69.78,253.212,38.502
69.82,254.826,38.823
69.85,256.335,39.189
69.88,257.634,39.487
69.91,258.827,39.648
69.95,260.161,39.923
69.98,261.565,40.175
70.01,262.617,40.438
70.04,263.811,40.69
70.08,265.144,40.931
70.11,266.302,41.206
70.14,267.706,41.458
70.17,268.829,41.584
70.21,269.601,41.721
70.24,270.654,42.099
70.27,272.093,42.386
70.3,273.181,42.626
70.34,273.918,42.878
70.37,275.041,43.142
70.4,276.059,43.245
70.43,276.515,43.291
70.47,276.936,43.302
70.5,277.884,43.405
70.53,278.761,43.497
70.56,279.147,43.657
70.6,279.463,43.84
70.63,280.165,44.092
70.66,281.218,43.909
70.69,281.569,43.943
70.73,281.358,44.001
70.76,281.464,43.943
70.79,282.166,44.161
70.82,282.762,44.264
70.86,282.657,44.299
70.89,282.411,44.333
70.92,282.657,44.23
70.95,282.622,44.138
70.99,282.236,43.932
71.02,281.779,43.657
71.05,281.429,43.669
71.08,281.569,43.657
71.12,281.323,43.462
71.15,280.516,43.359
71.18,280.025,43.233
71.21,279.498,42.924
71.25,278.516,42.66
71.28,277.533,42.408
71.31,276.761,42.202
71.34,275.954,42.042
71.38,274.936,41.87
71.41,273.918,41.561
71.44,272.444,41.274
71.47,270.795,41.068
71.51,269.812,40.793
71.54,269.005,40.278
71.57,267.355,39.945
71.6,265.636,39.888
71.64,264.372,39.751
71.67,263.249,39.522
71.7,261.916,39.293
71.73,260.477,38.96
71.77,258.792,38.662
71.8,257.283,38.525
71.83,255.914,38.342
71.86,254.37,38.113
71.9,252.686,38.01
71.93,251.176,37.815
71.96,249.316,37.448
71.99,247.421,37.242
72.03,245.631,37.059
72.06,243.982,36.715
72.09,242.262,36.371
72.12,240.472,36.165
72.16,238.753,36.085
72.19,237.068,35.879
72.22,234.892,35.547
72.26,232.857,35.329
72.29,231.277,35.18
72.32,229.698,34.813
72.35,227.557,34.412
72.39,225.452,34.367
72.42,223.697,34.264
72.45,222.012,34.126
72.48,220.222,34.0
72.52,218.117,33.714
72.55,216.011,33.553
72.58,214.397,33.53
72.61,212.572,33.233
72.65,210.326,32.889
72.68,208.606,32.832
72.71,206.956,32.488
72.74,204.395,32.03
72.78,202.148,31.984
72.81,200.113,31.697
72.84,197.937,31.274
72.87,195.901,31.205
72.91,193.866,30.77
72.94,191.479,30.403
72.97,189.549,30.518
73.0,187.514,30.128
73.04,184.882,29.716
73.07,182.881,29.762
73.1,180.916,29.269
73.13,178.424,28.822
73.17,176.143,28.799
73.2,173.967,28.41
73.23,171.44,28.043
73.26,169.229,27.883
73.3,166.808,27.276
73.33,163.965,26.795
73.36,161.368,26.497
73.39,158.876,25.981
73.43,156.279,25.626
73.46,153.682,25.248
73.49,150.804,24.652
73.52,147.891,24.309
73.56,145.47,23.908
73.59,142.873,23.266
73.62,139.925,22.785
73.65,136.731,22.338
73.69,133.818,21.983
73.72,131.361,21.559
73.75,128.554,20.838
73.78,124.974,20.173
73.82,121.394,19.715
73.85,118.13,19.085
73.88,114.796,18.306
73.91,111.392,17.63
73.95,107.988,16.966
73.98,104.689,16.255
74.01,101.144,15.637
74.04,97.424,14.995
74.08,93.81,14.354
74.11,90.16,13.724
74.14,86.369,12.933
74.17,82.579,12.2
74.21,79.105,11.685
74.24,75.735,11.009
74.27,72.015,10.379
74.3,68.611,10.081
74.34,65.628,9.703
74.37,62.434,9.073
74.4,58.82,8.706
74.43,55.486,8.374
74.47,52.011,7.962
74.5,48.853,7.572
74.53,45.624,7.183
74.56,42.325,6.564
74.6,38.64,6.197
74.63,36.394,5.567
74.66,38.71,3.849
74.7,43.167,0.115
74.73,34.955,-1.902
74.76,26.462,-0.412
74.79,26.146,-0.332
74.83,21.127,-1.088
74.86,12.248,-1.386
74.89,2.702,-1.168
74.92,-3.825,-0.836
74.96,-8.669,-0.687
74.99,-12.845,-0.825
75.02,-17.477,-0.412
75.05,-15.021,-0.447
75.09,-12.74,-2.016
75.12,-17.618,-2.417
75.15,-22.005,-1.707
75.18,-24.953,-1.191
75.22,-26.707,-1.203
75.25,-29.48,-1.913
75.28,-33.621,-2.944
75.31,-38.815,-3.62
75.35,-43.343,-3.803
75.38,-46.291,-4.044
75.41,-48.361,-4.708
75.44,-50.923,-5.602
75.48,-54.257,-6.312
75.51,-57.907,-6.793
75.54,-61.241,-7.08
75.57,-64.294,-7.377
75.61,-67.348,-7.962
75.64,-70.927,-8.534
75.67,-74.507,-9.038
75.7,-77.876,-9.531
75.74,-81.0,-10.138
75.77,-84.264,-10.699
75.8,-87.563,-11.238
75.83,-90.791,-11.708
75.87,-93.669,-12.109
75.9,-96.196,-12.464
75.93,-98.793,-12.956
75.96,-101.706,-13.311
76.0,-104.97,-13.46
76.03,-107.953,-13.792
76.06,-110.866,-14.262
76.09,-113.779,-14.778
76.13,-116.762,-15.385
76.16,-119.991,-16.038
76.19,-122.939,-16.496
76.22,-125.746,-17.034
76.26,-128.624,-17.699
76.29,-131.853,-18.214
76.32,-135.222,-18.821
76.35,-138.486,-19.383
76.39,-141.399,-19.795
76.42,-144.487,-20.437
76.45,-147.681,-21.101
76.48,-150.594,-21.514
76.52,-153.331,-22.086
76.55,-156.384,-22.797
76.58,-159.578,-23.278
76.61,-162.526,-23.679
76.65,-165.369,-24.263
76.68,-168.246,-24.698
76.71,-171.089,-25.03
76.74,-173.792,-25.603
76.78,-176.669,-26.119
76.81,-179.652,-26.52
76.84,-182.6,-27.161
76.87,-185.197,-27.574
76.91,-187.584,-27.826
76.94,-190.216,-28.433
76.97,-192.708,-28.742
77.0,-194.708,-28.776
77.04,-197.025,-29.326
77.07,-199.586,-29.601
77.1,-201.517,-29.487
77.14,-203.271,-29.876
77.17,-205.272,-30.174
77.2,-207.272,-30.128
77.23,-209.132,-30.3
77.27,-210.887,-30.495
77.3,-212.747,-30.586
77.33,-214.572,-30.884
77.36,-216.257,-31.136
77.4,-217.661,-31.274
77.43,-219.205,-31.64
77.46,-221.1,-31.881
77.49,-222.82,-32.076
77.53,-224.504,-32.476
77.56,-226.294,-32.74
77.59,-228.189,-33.038
77.62,-230.014,-33.427
77.66,-231.453,-33.691
77.69,-232.892,-34.149
77.72,-234.612,-34.619
77.75,-236.156,-34.802
77.79,-237.7,-35.146
77.82,-239.49,-35.638
77.85,-241.104,-35.753
77.88,-242.473,-36.096
77.92,-244.333,-36.6
77.95,-245.842,-36.589
77.98,-246.719,-36.761
78.01,-248.053,-37.322
78.05,-249.667,-37.586
78.08,-251.212,-37.872
78.11,-252.861,-38.376
78.14,-254.686,-38.662
78.18,-255.914,-38.972
78.21,-257.213,-39.43
78.24,-258.757,-39.648
78.27,-259.985,-39.774
78.31,-261.038,-40.094
78.34,-262.302,-40.461
78.37,-263.635,-40.667
78.4,-264.548,-40.873
78.44,-265.601,-41.022
78.47,-266.759,-41.114
78.5,-267.952,-41.423
78.53,-269.075,-41.687
78.57,-269.917,-41.881
78.6,-270.9,-42.214
78.63,-272.023,-42.58
78.66,-273.146,-42.809
78.7,-274.094,-42.947
78.73,-274.866,-43.165
78.76,-275.638,-43.325
78.79,-276.305,-43.405
78.83,-276.901,-43.485
78.86,-277.673,-43.703
78.89,-278.586,-43.84
78.92,-279.218,-43.875
78.96,-279.604,-44.012
78.99,-280.27,-44.195
79.02,-281.007,-44.402
79.05,-281.113,-44.218
79.09,-281.183,-44.207
79.12,-281.779,-44.344
79.15,-282.13,-44.413
79.18,-282.201,-44.402
79.22,-282.166,-44.47
79.25,-282.306,-44.516
79.28,-282.306,-44.379
79.31,-282.095,-44.15
79.35,-281.92,-44.047
79.38,-281.709,-44.001
79.41,-281.393,-44.001
79.44,-281.007,-43.943
79.48,-280.902,-43.772
79.51,-280.235,-43.485
79.54,-279.112,-43.279
79.57,-278.445,-43.061
79.61,-278.024,-42.809
79.64,-277.498,-42.66
79.67,-276.445,-42.626
79.71,-275.638,-42.569
79.74,-274.971,-42.328
79.77,-273.672,-41.927
79.8,-272.058,-41.584
79.84,-270.83,-41.206
79.87,-269.426,-40.782
79.9,-267.776,-40.507
79.93,-266.513,-40.232
79.97,-265.285,-39.854
80.0,-263.53,-39.602
80.03,-261.74,-39.407
80.06,-260.442,-39.029
80.1,-258.792,-38.582
80.13,-257.108,-38.41
80.16,-255.563,-38.193
80.19,-253.773,-37.757
80.23,-252.159,-37.62
80.26,-250.826,-37.574
80.29,-248.72,-37.07
80.32,-246.368,-36.852
80.36,-245.351,-37.082
80.39,-244.122,-36.6
80.42,-241.841,-36.234
80.45,-240.051,-36.44
80.49,-238.788,-36.165
80.52,-236.998,-36.016
80.55,-235.313,-35.982
80.58,-233.348,-35.478
80.62,-231.102,-35.26
80.65,-229.523,-35.272
80.68,-227.698,-34.836
80.71,-225.522,-34.538
80.75,-223.907,-34.619
80.78,-222.539,-34.412
80.81,-220.573,-34.092
80.84,-218.082,-33.954
80.88,-216.151,-33.84
80.91,-214.537,-33.668
80.94,-212.642,-33.381
80.97,-210.466,-32.935
81.01,-208.606,-32.866
81.04,-206.992,-32.706
81.07,-204.465,-32.121
81.1,-201.868,-32.11
81.14,-200.148,-32.018
81.17,-198.253,-31.262
81.2,-195.972,-31.079
81.23,-194.006,-30.953
81.27,-191.83,-30.357
81.3,-189.549,-30.334
81.33,-187.584,-30.174
81.36,-185.022,-29.544
81.4,-182.6,-29.441
81.43,-180.565,-29.166
81.46,-178.249,-28.536
81.49,-175.862,-28.398
81.53,-173.581,-28.146
81.56,-171.124,-27.654
81.59,-168.703,-27.447
81.62,-166.457,-27.035
81.66,-163.614,-26.497
81.69,-160.596,-26.176
81.72,-158.139,-25.752
81.75,-156.068,-25.34
81.79,-153.261,-24.664
81.82,-149.927,-24.125
81.85,-147.014,-23.885
81.88,-144.627,-23.484
81.92,-142.241,-23.003
81.95,-139.188,-22.396
81.98,-136.064,-22.04
82.01,-133.221,-21.708
82.05,-130.73,-21.239
82.08,-128.027,-20.654
82.11,-124.799,-19.956
82.15,-121.289,-19.394
82.18,-117.85,-18.867
82.21,-114.481,-18.306
82.24,-111.252,-17.768
82.28,-108.304,-17.149
82.31,-104.97,-16.381
82.34,-101.285,-15.786
82.37,-97.67,-15.305
82.41,-94.196,-14.697
82.44,-90.932,-13.964
82.47,-87.492,-13.151
82.5,-83.632,-12.383
82.54,-79.736,-11.742
82.57,-76.262,-11.249
82.6,-73.103,-10.745
82.63,-69.524,-10.092
82.67,-65.698,-9.657
82.7,-62.434,-9.313
82.73,-59.206,-8.752
82.76,-55.872,-8.145
82.8,-52.432,-7.778
82.83,-49.098,-7.217
82.86,-45.483,-6.816
82.89,-42.184,-6.472
82.93,-38.57,-6.06
82.96,-35.762,-5.464
82.99,-37.306,-4.17
83.02,-43.237,-0.481
83.06,-35.622,2.154
83.09,-25.023,0.55
83.12,-25.549,0.103
83.15,-21.584,1.065
83.19,-12.389,1.443
83.22,-2.0,1.272
83.25,5.019,0.848
83.28,9.967,0.71
83.32,14.67,0.882
83.35,19.899,0.515
83.38,18.671,0.183
83.41,13.266,1.947
83.45,17.372,3.116
83.48,22.917,2.165
83.51,26.181,1.294
83.54,27.409,1.02
83.58,29.269,1.535
83.61,32.709,2.681
83.64,37.833,3.643
83.67,42.57,3.849
83.71,45.589,3.929
83.74,47.659,4.617
83.77,50.397,5.453
83.8,53.731,6.014
83.84,57.275,6.553
83.87,60.68,6.976
83.9,63.803,7.309
83.93,66.962,7.824
83.97,70.436,8.489
84.0,74.191,9.073
84.03,77.631,9.542
84.06,80.789,10.104
84.1,83.913,10.734
84.13,87.106,11.295
84.16,90.125,11.868
84.19,93.283,12.452
84.23,96.161,12.773
84.26,98.793,13.105
84.29,102.022,13.621
84.32,105.251,13.907
84.36,108.128,14.239
84.39,111.147,14.904
84.42,114.445,15.419
84.45,117.534,15.797
84.49,120.517,16.427
84.52,123.535,16.989
84.55,126.448,17.458
84.59,129.536,18.146
84.62,132.73,18.627
84.65,136.064,19.314
84.68,139.398,19.875
84.72,142.381,20.219
84.75,144.943,20.746
84.78,147.926,21.376
84.81,151.05,21.903
84.85,153.787,22.144
84.88,156.63,22.762
84.91,159.718,23.266
84.94,162.456,23.518
84.98,165.123,24.022
85.01,168.071,24.561
85.04,170.668,24.813
85.07,173.019,25.282
85.11,175.932,25.912
85.14,178.915,26.256
85.17,181.618,26.634
85.2,184.39,27.253
85.24,186.952,27.608
85.27,189.304,28.009
85.3,191.69,28.559
85.33,193.901,28.799
85.37,195.866,29.074
85.4,198.288,29.601
85.43,200.885,29.807
85.46,202.921,29.888
85.5,204.851,30.208
85.53,206.676,30.38
85.56,208.395,30.472
85.59,210.291,30.793
85.63,212.396,31.01
85.66,214.256,31.113
85.69,215.906,31.48
85.72,217.836,31.904
85.76,219.696,32.098
85.79,221.1,32.259
85.82,222.89,32.694
85.85,225.136,33.061
85.89,226.855,33.267
85.92,228.4,33.656
85.95,230.225,34.046
85.98,232.085,34.378
86.02,233.699,34.63
86.05,235.138,34.859
86.08,236.717,35.203
86.11,238.367,35.455
86.15,239.771,35.627
86.18,241.385,36.074
86.21,243.21,36.291
86.24,244.473,36.543
86.28,246.017,37.105
86.31,247.562,37.299
86.34,248.579,37.483
86.37,250.229,38.078
86.41,252.124,38.319
86.44,253.317,38.456
86.47,254.791,38.972
86.5,256.581,39.338
86.54,257.845,39.407
86.57,258.757,39.671
86.6,260.056,40.014
86.63,261.424,40.175
86.67,262.582,40.404
86.7,263.67,40.69
86.73,264.793,40.931
86.76,266.057,41.251
86.8,267.426,41.526
86.83,268.549,41.801
86.86,269.672,42.053
86.89,270.689,42.363
86.93,271.918,42.672
86.96,273.006,42.912
86.99,274.129,43.245
87.02,275.111,43.439
87.06,275.883,43.577
87.09,276.726,43.669
87.12,277.463,43.669
87.16,278.024,43.657
87.19,278.551,43.817
87.22,279.288,44.024
87.25,280.025,44.058
87.29,280.446,44.161
87.32,280.867,44.333
87.35,281.464,44.333
87.38,281.815,44.195
87.42,281.674,44.127
87.45,281.744,44.253
87.48,282.622,44.574
87.51,282.973,44.402
87.55,282.376,44.23
87.58,282.306,44.379
87.61,282.552,44.207
87.64,282.166,44.047
87.68,281.674,43.84
87.71,281.393,43.783
87.74,281.358,43.76
87.77,280.902,43.68
87.81,280.2,43.554
87.84,279.498,43.428
87.87,278.937,43.325
87.9,278.445,43.038
87.94,277.568,42.672
87.97,276.48,42.557
88.0,275.778,42.443
88.03,275.006,42.156
88.07,273.848,41.893
88.1,272.655,41.664
88.13,271.672,41.251
88.16,270.303,40.828
88.2,268.689,40.518
88.23,267.11,40.381
88.26,265.952,40.22
88.29,264.934,39.98
88.33,263.6,39.716
88.36,262.021,39.453
88.39,260.371,39.247
88.42,258.968,39.006
88.46,257.529,38.777
88.49,256.09,38.617
88.52,254.475,38.319
88.55,252.58,38.055
88.59,251.106,38.055
88.62,249.702,37.769
88.65,247.527,37.276
88.68,245.702,37.265
88.72,244.543,37.173
88.75,242.683,36.646
88.78,240.508,36.452
88.81,238.998,36.532
88.85,237.384,36.188
88.88,235.173,35.844
88.91,233.138,35.547
88.94,231.558,35.375
88.98,229.944,35.157
89.01,227.733,34.939
89.04,225.662,34.848
89.07,224.223,34.848
89.11,223.03,34.584
89.14,220.924,34.149
89.17,218.468,34.069
89.2,216.783,34.012
89.24,215.099,33.702
89.27,213.133,33.542
89.3,211.238,33.336
89.33,209.027,33.015
89.37,206.886,32.958
89.4,205.132,32.74
89.43,202.991,32.064
89.46,200.429,31.824
89.5,198.393,31.755
89.53,196.463,31.239
89.56,194.322,31.01
89.6,192.427,31.022
89.63,190.181,30.529
89.66,187.514,30.266
89.69,185.513,30.22
89.73,183.372,29.624
89.76,180.846,29.177
89.79,178.529,29.097
89.82,176.353,28.65
89.86,174.002,28.33
89.89,171.686,28.158
89.92,169.159,27.642
89.95,166.492,27.31
89.99,164.07,26.989
90.02,161.333,26.325
90.05,158.63,25.947
90.08,156.314,25.649
90.12,153.647,25.088
90.15,150.769,24.595
90.18,147.856,24.16
90.21,144.803,23.656
90.25,141.89,23.197
90.28,138.977,22.648
90.31,136.099,22.075
90.34,133.186,21.536
90.38,130.133,20.906
90.41,126.799,20.276
90.44,123.64,19.91
90.47,120.447,19.371
90.51,117.043,18.753
90.54,113.744,18.146
90.57,110.515,17.584
90.6,107.462,17.057
90.64,104.303,16.45
90.67,100.618,15.774
90.7,96.898,15.202
90.73,93.388,14.652
90.77,89.809,13.918
90.8,86.089,13.14
90.83,82.684,12.601
90.86,79.245,11.983
90.9,75.665,11.272
90.93,72.261,10.917
90.96,69.102,10.459
90.99,65.768,9.783
91.03,62.294,9.405
91.06,58.784,9.084
91.09,55.521,8.5
91.12,52.257,8.145
91.16,49.274,7.755
91.19,45.729,7.24
91.22,42.36,6.999
91.25,39.236,6.782
91.29,36.85,6.014
91.32,37.517,4.697
91.35,42.816,1.615
91.38,40.149,-1.661
91.42,28.778,-1.134
91.45,26.181,-0.137
91.48,23.865,-0.813
91.51,15.617,-1.443
91.55,4.808,-1.398
91.58,-3.404,-0.974
91.61,-9.019,-0.722
91.64,-13.582,-0.859
91.68,-19.232,-0.676
91.71,-19.618,-0.309
91.74,-14.88,-1.569
91.77,-17.793,-2.749
91.81,-22.987,-2.337
91.84,-26.532,-1.581
91.87,-28.181,-1.226
91.9,-29.936,-1.638
91.94,-32.919,-2.589
91.97,-37.517,-3.471
92.0,-41.904,-3.838
92.03,-45.027,-3.987
92.07,-47.203,-4.422
92.1,-49.73,-5.178
92.13,-53.064,-5.831
92.17,-56.679,-6.255
92.2,-60.083,-6.633
92.23,-63.452,-7.08
92.26,-66.716,-7.687
92.3,-70.226,-8.34
92.33,-73.875,-8.993
92.36,-77.455,-9.623
92.39,-80.719,-10.195
92.43,-83.772,-10.848
92.46,-87.071,-11.513
92.49,-90.3,-11.96
92.52,-93.283,-12.361
92.56,-96.231,-12.807
92.59,-99.179,-13.151
92.62,-102.232,-13.552
92.65,-105.531,-13.987
92.69,-108.585,-14.342
92.72,-111.497,-14.858
92.75,-114.551,-15.499
92.78,-117.744,-15.992
92.82,-120.798,-16.404
92.85,-123.605,-16.908
92.88,-126.483,-17.47
92.91,-129.607,-17.997
92.95,-132.976,-18.695
92.98,-136.415,-19.257
93.01,-139.539,-19.635
93.04,-142.065,-20.07
93.08,-144.733,-20.643
93.11,-147.751,-21.433
93.14,-151.05,-21.846
93.17,-153.963,-22.27
93.21,-156.77,-22.785
93.24,-159.894,-23.335
93.27,-163.017,-23.828
93.3,-165.649,-24.24
93.34,-168.141,-24.71
93.37,-171.054,-25.271
93.4,-174.002,-25.638
93.43,-176.634,-26.004
93.47,-179.582,-26.68
93.5,-182.565,-27.161
93.53,-185.022,-27.436
93.56,-187.619,-28.043
93.6,-190.146,-28.433
93.63,-192.357,-28.559
93.66,-194.708,-29.005
93.69,-197.2,-29.292
93.73,-199.271,-29.338
93.76,-201.306,-29.807
93.79,-203.658,-30.014
93.82,-205.412,-29.979
93.86,-207.062,-30.3
93.89,-208.992,-30.495
93.92,-210.606,-30.54
93.95,-212.396,-30.964
93.99,-214.397,-31.251
94.02,-216.397,-31.423
94.05,-218.187,-31.812
94.08,-220.152,-32.018
94.12,-221.732,-32.179
94.15,-223.135,-32.602
94.18,-224.995,-33.049
94.21,-226.996,-33.359
94.25,-228.786,-33.656
94.28,-230.154,-33.794
94.31,-231.769,-34.195
94.34,-233.839,-34.584
94.38,-235.278,-34.493
94.41,-236.296,-34.722
94.44,-238.016,-35.329
94.47,-239.63,-35.375
94.51,-240.648,-35.638
94.54,-242.297,-36.36
94.57,-243.982,-36.509
94.61,-245.21,-36.692
94.64,-246.86,-37.231
94.67,-248.439,-37.311
94.7,-249.562,-37.517
94.74,-251.106,-38.113
94.77,-252.721,-38.353
94.8,-253.914,-38.708
94.83,-255.458,-39.293
94.87,-257.178,-39.407
94.9,-258.195,-39.476
94.93,-259.143,-39.877
94.96,-260.617,-40.094
95.0,-261.74,-40.312
95.03,-262.968,-40.713
95.06,-264.232,-40.976
95.09,-265.25,-41.206
95.13,-266.583,-41.492
95.16,-267.917,-41.755
95.19,-269.005,-42.053
95.22,-270.093,-42.282
95.26,-271.286,-42.603
95.29,-272.444,-42.901
95.32,-273.392,-43.21
95.35,-274.409,-43.485
95.39,-275.217,-43.6
95.42,-275.813,-43.772
95.45,-276.445,-43.921
95.48,-277.147,-43.921
95.52,-277.849,-44.081
95.55,-278.691,-44.264
95.58,-279.323,-44.322
95.61,-279.919,-44.356
95.65,-280.446,-44.436
95.68,-280.551,-44.539
95.71,-280.937,-44.47
95.74,-281.393,-44.562
95.78,-281.499,-44.711
95.81,-281.815,-44.837
95.84,-282.341,-44.768
95.87,-282.622,-44.688
95.91,-282.306,-44.654
95.94,-282.095,-44.608
95.97,-281.92,-44.482
96.0,-281.639,-44.413
96.04,-281.534,-44.39
96.07,-281.464,-44.322
96.1,-281.113,-44.195
96.13,-280.797,-43.989
96.17,-279.919,-43.806
96.2,-279.042,-43.6
96.23,-278.41,-43.325
96.26,-277.603,-43.084
96.3,-276.831,-42.993
96.33,-276.34,-42.855
96.36,-275.603,-42.569
96.39,-274.269,-42.294
96.43,-272.865,-41.996
96.46,-271.567,-41.584
96.49,-270.093,-41.171
96.52,-268.759,-40.805
96.56,-267.32,-40.507
96.59,-265.636,-40.255
96.62,-264.232,-40.094
96.65,-263.354,-39.877
96.69,-261.916,-39.476
96.72,-259.845,-39.235
96.75,-258.336,-39.212
96.78,-257.388,-39.052
96.82,-255.774,-38.766
96.85,-254.16,-38.64
96.88,-252.826,-38.525
96.91,-251.317,-38.158
96.95,-249.457,-37.895
96.98,-247.491,-37.677
97.01,-245.807,-37.448
97.05,-244.193,-37.288
97.08,-242.719,-37.139
97.11,-240.894,-36.681
97.14,-238.858,-36.234
97.18,-237.138,-36.245
97.21,-235.243,-36.039
97.24,-233.418,-35.833
97.27,-231.453,-35.627
97.31,-229.417,-35.352
97.34,-227.663,-35.249
97.37,-226.224,-35.02
97.4,-224.469,-34.71
97.44,-222.433,-34.584
97.47,-220.468,-34.39
97.5,-218.362,-33.943
97.53,-216.327,-33.782
97.57,-214.607,-33.576
97.6,-212.326,-33.152
97.63,-210.22,-33.129
97.66,-208.746,-33.072
97.7,-206.781,-32.58
97.73,-204.254,-32.454
97.76,-202.148,-32.339
97.79,-199.832,-31.72
97.83,-197.516,-31.56
97.86,-195.901,-31.457
97.89,-193.761,-30.758
97.92,-191.374,-30.701
97.96,-189.479,-30.747
97.99,-187.198,-30.117
98.02,-184.776,-30.002
98.05,-182.881,-29.842
98.09,-180.46,-29.086
98.12,-177.968,-28.971
98.15,-176.143,-28.857
98.18,-174.002,-28.192
98.22,-171.194,-27.997
98.25,-168.843,-27.745
98.28,-166.457,-27.138
98.31,-163.824,-26.795
98.35,-161.122,-26.29
98.38,-158.174,-25.752
98.41,-155.717,-25.534
98.44,-153.331,-25.053
98.48,-150.558,-24.503
98.51,-147.575,-24.183
98.54,-144.873,-23.782
98.57,-142.101,-23.163
98.61,-138.907,-22.613
98.64,-135.924,-22.235
98.67,-133.362,-21.651
98.7,-130.449,-21.055
98.74,-127.325,-20.505
98.77,-124.026,-20.07
98.8,-120.973,-19.623
98.83,-117.885,-19.005
98.87,-114.656,-18.352
98.9,-111.357,-17.756
98.93,-108.023,-17.149
98.96,-104.724,-16.485
99.0,-101.039,-15.832
99.03,-97.354,-15.202
99.06,-93.88,-14.583
99.09,-90.405,-13.85
99.13,-86.72,-13.082
99.16,-83.0,-12.475
99.19,-79.491,-11.879
99.22,-76.367,-11.456
99.26,-74.156,-11.467
99.29,-72.05,-11.204
99.32,-69.208,-10.757
99.35,-65.839,-10.631
99.39,-62.75,-10.665
99.42,-59.837,-10.299
99.45,-56.609,-9.772
99.48,-53.029,-9.142
99.52,-49.239,-8.489
99.55,-45.413,-7.584
99.58,-41.272,-6.816
99.62,-38.113,-5.739
99.65,-40.395,-3.322
99.68,-42.57,1.008
99.71,-29.059,2.085
99.75,-21.408,0.241
99.78,-19.724,0.745
99.81,-11.336,1.432
99.84,-0.632,1.466
99.88,8.282,0.997
99.91,13.126,0.619
99.94,15.793,0.447
99.97,17.863,0.435
100.01,18.32,0.092
100.04,11.932,1.478
100.07,13.477,3.001
100.1,19.092,1.867
100.14,21.408,0.584
100.17,22.531,0.435
100.2,24.707,1.214
100.23,29.059,2.406
100.27,35.201,3.345
100.3,41.377,3.54
100.33,46.15,3.437
100.36,48.958,3.586
100.4,50.818,4.353
100.43,53.099,5.476
100.46,56.223,6.518
100.49,59.802,7.102
100.53,63.031,7.446
100.56,65.804,7.859
100.59,68.822,8.351
100.62,72.05,8.832
100.66,75.455,9.302
100.69,79.07,9.806
100.72,82.404,10.287
100.75,85.492,10.745
100.79,88.405,11.307
100.82,91.599,12.051
100.85,94.933,12.452
100.88,97.775,12.67
100.92,100.478,13.231
100.95,103.461,13.827
100.98,106.795,14.205
101.01,109.988,14.606
101.05,112.901,15.053
101.08,115.884,15.614
101.11,118.938,16.175
101.14,121.745,16.656
101.18,124.588,17.218
101.21,127.782,17.985
101.24,131.186,18.512
101.27,134.45,18.833
101.31,137.433,19.36
101.34,140.346,19.967
101.37,143.224,20.425
101.4,146.207,20.952
101.44,149.295,21.525
101.47,152.348,22.006
101.5,155.156,22.522
101.53,157.858,23.094
101.57,160.701,23.621
101.6,163.824,24.194
101.63,166.948,24.607
101.66,169.405,24.836
101.7,171.896,25.317
101.73,174.879,26.016
101.76,178.073,26.428
101.79,180.811,26.898
101.83,183.759,27.482
101.86,186.426,27.814
101.89,188.847,28.261
101.92,191.409,28.811
101.96,192.357,28.215
101.99,190.707,26.76
102.02,189.233,26.176
102.06,190.181,25.867
102.09,191.55,24.813
102.12,191.655,24.057
102.15,191.725,23.839
102.19,193.375,24.228
102.22,196.463,24.881
102.25,199.06,25.34
102.28,200.99,26.371
102.32,203.377,27.722
102.35,206.395,28.811
102.38,209.448,29.888
102.41,211.975,30.838
102.45,214.116,31.606
102.48,216.362,32.488
102.51,219.345,33.233
102.54,222.012,33.782
102.58,224.223,34.344
102.61,226.434,35.02
102.64,229.347,35.741
102.67,231.839,36.165
102.71,233.594,36.566
102.74,235.699,37.219
102.77,238.051,37.654
102.8,239.946,37.826
102.84,241.595,38.147
102.87,243.666,38.548
102.9,245.421,38.697
102.93,246.825,38.857
102.97,248.474,39.075
103.0,250.124,39.258
103.03,251.913,39.476
103.06,253.387,39.705
103.1,254.756,40.003
103.13,256.3,40.312
103.16,258.02,40.484
103.19,259.283,40.507
103.23,260.161,40.564
103.26,261.284,40.782
103.29,262.653,40.965
103.32,263.811,41.057
103.36,264.793,41.263
103.39,266.162,41.481
103.42,267.39,41.687
103.45,268.549,41.87
103.49,269.566,41.996
103.52,270.409,42.271
103.55,271.426,42.546
103.58,272.444,42.752
103.62,273.497,43.073
103.65,274.725,43.325
103.68,275.603,43.428
103.71,276.305,43.554
103.75,277.042,43.646
103.78,277.638,43.634
103.81,278.34,43.565
103.84,278.761,43.737
103.88,279.463,43.966
103.91,280.095,44.001
103.94,280.27,44.127
103.97,280.832,44.173
104.01,281.113,44.115
104.04,281.007,44.127
104.07,281.148,44.047
104.1,281.534,44.024
104.14,281.85,44.001
104.17,281.85,43.909
104.2,281.779,43.817
104.23,281.604,43.772
104.27,281.288,43.703
104.3,280.937,43.623
104.33,280.692,43.588
104.36,280.832,43.623
104.4,280.727,43.634
104.43,280.305,43.657
104.46,279.884,43.634
104.5,279.533,43.497
104.53,279.007,43.256
104.56,278.165,43.004
104.59,277.252,42.786
104.63,276.515,42.672
104.66,275.813,42.569
104.69,275.076,42.351
104.72,273.988,42.088
104.76,272.725,41.881
104.79,271.567,41.572
104.82,270.163,41.217
104.85,268.935,40.965
104.89,267.987,40.667
104.92,266.583,40.392
104.95,265.004,40.186
104.98,263.705,40.049
105.02,262.477,39.854
105.05,260.863,39.556
105.08,259.213,39.373
105.11,258.231,39.201
105.15,257.072,38.823
105.18,255.177,38.433
105.21,253.036,38.376
105.24,251.422,38.273
105.28,250.194,37.975
105.31,248.86,37.631
105.34,246.965,37.288
105.37,245.175,37.127
105.41,243.631,37.07
105.44,241.841,36.761
105.47,239.876,36.612
105.5,238.437,36.532
105.54,236.787,36.154
105.57,234.401,35.764
105.6,232.541,35.73
105.63,231.277,35.707
105.67,229.593,35.375
105.7,227.382,35.134
105.73,225.522,34.962
105.76,223.872,34.733
105.8,221.732,34.298
105.83,219.135,33.828
105.86,216.853,33.679
105.89,215.099,33.404
105.93,213.098,33.003
105.96,210.992,32.74
105.99,209.027,32.568
106.02,207.027,32.442
106.06,204.886,32.316
106.09,202.745,32.076
106.12,200.745,31.732
106.15,198.92,31.629
106.19,197.025,31.331
106.22,194.814,30.941
106.25,192.848,30.976
106.28,190.813,30.758
106.32,188.426,30.266
106.35,186.04,30.105
106.38,183.829,29.739
106.41,181.267,29.212
106.45,179.056,29.097
106.48,176.88,28.765
106.51,174.493,28.364
106.54,172.072,28.181
106.58,169.896,27.734
106.61,167.334,27.253
106.64,164.491,26.646
106.67,161.263,26.107
106.71,158.455,25.786
106.74,156.244,25.443
106.77,153.752,24.847
106.8,150.909,24.446
106.84,148.207,24.102
106.87,145.259,23.541
106.9,142.03,23.117
106.93,139.082,22.648
106.97,136.169,22.063
107.0,133.362,21.582
107.03,130.449,21.032
107.07,127.501,20.471
107.1,124.413,20.013
107.13,121.289,19.474
107.16,117.92,18.902
107.2,114.516,18.409
107.23,111.357,17.859
107.26,108.234,17.229
107.29,104.759,16.588
107.33,101.144,15.98
107.36,97.635,15.408
107.39,94.266,14.732
107.42,90.616,13.953
107.46,86.72,13.231
107.49,83.07,12.693
107.52,79.701,12.063
107.55,76.367,11.387
107.59,72.823,10.906
107.62,69.489,10.425
107.65,66.084,9.863
107.68,62.75,9.394
107.72,59.346,8.89
107.75,56.012,8.34
107.78,52.538,7.996
107.81,49.274,7.572
107.85,45.694,7.148
107.88,42.184,6.782
107.91,38.71,6.392
107.94,36.674,5.567
107.98,38.71,3.883
108.01,43.623,0.206
108.04,35.516,-1.959
108.07,26.672,-0.401
108.11,26.988,-0.218
108.14,22.636,-1.02
108.17,13.968,-1.375
108.2,4.176,-1.226
108.24,-2.527,-0.836
108.27,-7.581,-0.722
108.3,-12.354,-0.928
108.33,-18.214,-0.573
108.37,-16.214,-0.367
108.4,-12.915,-1.925
108.43,-17.477,-2.463
108.46,-22.075,-1.81
108.5,-25.304,-1.283
108.53,-26.918,-1.088
108.56,-29.129,-1.65
108.59,-32.884,-2.772
108.63,-38.008,-3.54
108.66,-42.255,-3.666
108.69,-45.308,-3.952
108.72,-47.554,-4.628
108.76,-50.221,-5.361
108.79,-53.52,-5.991
108.82,-57.135,-6.438
108.85,-60.223,-6.701
108.89,-63.101,-7.114
108.92,-66.295,-7.778
108.95,-70.12,-8.397
108.98,-73.77,-8.867
109.02,-77.139,-9.428
109.05,-80.473,-10.081
109.08,-83.737,-10.711
109.11,-86.931,-11.33
109.15,-90.125,-11.902
109.18,-93.178,-12.315
109.21,-96.056,-12.693
109.24,-98.933,-13.094
109.28,-101.917,-13.495
109.31,-105.215,-13.861
109.34,-108.479,-14.331
109.37,-111.708,-14.743
109.41,-114.761,-15.27
109.44,-117.639,-15.706
109.47,-120.271,-16.29
109.51,-123.184,-17.023
109.54,-126.448,-17.504
109.57,-129.572,-17.916
109.6,-132.52,-18.317
109.64,-135.678,-18.97
109.67,-138.907,-19.555
109.7,-141.96,-20.013
109.73,-144.838,-20.654
109.77,-147.646,-21.124
109.8,-150.383,-21.479
109.83,-153.05,-22.075
109.86,-156.104,-22.602
109.9,-159.227,-23.003
109.93,-162.35,-23.53
109.96,-165.298,-23.954
109.99,-167.685,-24.354
110.03,-170.317,-25.053
110.06,-173.265,-25.592
110.09,-176.389,-25.924
110.12,-179.196,-26.554
110.16,-182.179,-27.104
110.19,-184.846,-27.447
110.22,-187.549,-28.066
110.25,-190.216,-28.524
110.29,-192.252,-28.639
110.32,-194.392,-29.063
110.35,-197.095,-29.395
110.38,-199.411,-29.441
110.42,-201.341,-29.727
110.45,-203.482,-29.991
110.48,-205.518,-30.105
110.51,-207.272,-30.369
110.55,-208.992,-30.598
110.58,-210.782,-30.712
110.61,-212.712,-31.01
110.64,-214.748,-31.228
110.68,-216.502,-31.388
110.71,-218.327,-31.755
110.74,-220.082,-32.064
110.77,-221.696,-32.293
110.81,-223.451,-32.648
110.84,-225.346,-32.969
110.87,-227.171,-33.141
110.9,-228.716,-33.439
110.94,-230.47,-33.908
110.97,-232.295,-34.195
111.0,-233.734,-34.39
111.03,-234.857,-34.619
111.07,-236.647,-35.065
111.1,-238.647,-35.295
111.13,-239.841,-35.363
111.16,-240.999,-35.741
111.2,-242.789,-36.131
111.23,-244.368,-36.268
111.26,-245.386,-36.6
111.29,-246.754,-37.07
111.33,-248.439,-37.288
111.36,-249.948,-37.609
111.39,-251.422,-38.078
111.42,-252.861,-38.399
111.46,-254.335,-38.731
111.49,-255.914,-39.098
111.52,-257.108,-39.304
111.55,-257.915,-39.59
111.59,-259.389,-39.957
111.62,-261.003,-40.117
111.65,-262.161,-40.312
111.68,-263.179,-40.656
111.72,-264.372,-40.931
111.75,-265.706,-41.068
111.78,-266.794,-41.343
111.81,-267.776,-41.801
111.85,-269.11,-42.042
111.88,-270.374,-42.122
111.91,-271.356,-42.489
111.95,-272.444,-42.901
111.98,-273.602,-43.142
112.01,-274.374,-43.348
112.04,-275.076,-43.577
112.08,-276.094,-43.737
112.11,-277.077,-43.726
112.14,-277.603,-43.691
112.17,-278.305,-43.898
112.21,-279.112,-44.047
112.24,-279.463,-44.173
112.27,-279.849,-44.322
112.3,-280.692,-44.379
112.34,-281.288,-44.459
112.37,-281.218,-44.322
112.4,-281.323,-44.425
112.43,-281.99,-44.562
112.47,-282.376,-44.608
112.5,-282.376,-44.631
112.53,-282.516,-44.711
112.56,-282.762,-44.608
112.6,-282.481,-44.459
112.63,-281.955,-44.299
112.66,-281.885,-44.184
112.69,-281.779,-44.161
112.73,-281.534,-44.115
112.76,-281.007,-43.978
112.79,-280.341,-43.909
112.82,-280.095,-43.657
112.86,-279.323,-43.279
112.89,-278.094,-43.073
112.92,-277.463,-42.912
112.95,-276.971,-42.66
112.99,-275.919,-42.512
113.02,-275.041,-42.386
113.05,-274.059,-42.042
113.08,-272.76,-41.687
113.12,-271.461,-41.343
113.15,-269.952,-40.965
113.18,-268.549,-40.667
113.21,-267.426,-40.461
113.25,-266.162,-40.186
113.28,-264.653,-39.934
113.31,-263.249,-39.831
113.34,-262.196,-39.487
113.38,-260.371,-39.029
113.41,-258.406,-38.892
113.44,-257.143,-38.777
113.47,-255.879,-38.388
113.51,-253.949,-38.181
113.54,-252.405,-38.136
113.57,-250.861,-37.872
113.6,-249.281,-37.609
113.64,-247.772,-37.494
113.67,-245.982,-37.242
113.7,-244.087,-37.127
113.73,-242.789,-37.185
113.77,-241.245,-36.864
113.8,-239.42,-36.612
113.83,-237.7,-36.669
113.86,-235.98,-36.326
113.9,-233.98,-36.039
113.93,-232.19,-35.948
113.96,-230.4,-35.569
113.99,-228.084,-35.169
114.03,-226.048,-34.974
114.06,-224.434,-34.825
114.09,-222.89,-34.504
114.12,-220.644,-34.08
114.16,-218.292,-33.679
114.19,-216.432,-33.507
114.22,-214.362,-33.278
114.25,-212.151,-32.969
114.29,-210.185,-32.889
114.32,-208.606,-32.763
114.35,-206.535,-32.316
114.38,-204.114,-32.11
114.42,-201.938,-31.984
114.45,-199.832,-31.537
114.48,-197.902,-31.388
114.52,-195.937,-31.125
114.55,-193.69,-30.655
114.58,-191.479,-30.724
114.61,-189.725,-30.598
114.65,-187.549,-29.979
114.68,-185.057,-29.842
114.71,-182.881,-29.567
114.74,-180.424,-29.028
114.78,-178.073,-28.879
114.81,-175.932,-28.627
114.84,-173.616,-28.146
114.87,-171.194,-27.906
114.91,-168.703,-27.539
114.94,-166.176,-27.092
114.97,-163.684,-26.76
115.0,-161.017,-26.233
115.04,-158.385,-25.867
115.07,-155.858,-25.695
115.1,-153.296,-24.95
115.13,-150.418,-24.389
115.17,-147.575,-24.034
115.2,-144.838,-23.564
115.23,-141.995,-23.186
115.26,-139.117,-22.636
115.3,-136.345,-22.201
115.33,-133.607,-21.708
115.36,-130.73,-21.101
115.39,-127.676,-20.551
115.43,-124.553,-20.059
115.46,-121.394,-19.417
115.49,-118.095,-18.73
115.52,-114.586,-18.134
115.56,-111.147,-17.584
115.59,-107.707,-17.023
115.62,-104.584,-16.381
115.65,-101.18,-15.671
115.69,-97.53,-14.995
115.72,-93.845,-14.411
115.75,-90.44,-13.747
115.78,-87.071,-13.071
115.82,-83.421,-12.361
115.85,-79.771,-11.799
115.88,-76.472,-11.352
115.91,-73.314,-10.837
115.95,-69.839,-10.31
115.98,-66.33,-9.921
116.01,-63.031,-9.462
116.04,-59.486,-8.935
116.08,-56.117,-8.42
116.11,-52.608,-7.87
116.14,-49.028,-7.251
116.17,-45.448,-6.759
116.21,-41.869,-6.129
116.24,-37.868,-5.613
116.27,-34.604,-4.995
116.3,-36.218,-3.631
116.34,-40.991,0.206
116.37,-30.849,2.096
116.4,-22.707,0.183
116.43,-24.146,0.206
116.47,-19.583,1.065
116.5,-11.511,1.214
116.53,-3.439,1.02
116.56,2.316,0.756
