Trigger_Date,2023/06/19
Trigger_Time,T 12:05:13.598 PDT
Samples_Per_Cycle,512
Microseconds_Per_Sample,32.555
Time (ms),Voltage (V),Current (A)
-16.67,13.02,0.882
-16.64,18.46,0.768
-16.6,20.882,0.183
-16.57,16.109,0.916
-16.54,15.372,2.577
-16.51,20.636,2.704
-16.47,24.988,1.799
-16.44,27.164,1.157
-16.41,28.568,1.363
-16.38,31.305,2.417
-16.34,36.008,3.574
-16.31,41.167,4.147
-16.28,44.852,4.387
-16.24,47.273,4.949
-16.21,49.87,5.865
-16.18,53.134,6.575
-16.15,56.889,7.16
-16.11,60.504,7.515
-16.08,63.593,7.79
-16.05,66.435,8.225
-16.02,69.769,8.809
-15.98,73.209,9.199
-15.95,76.367,9.542
-15.92,79.245,9.829
-15.89,81.807,10.127
-15.85,84.65,10.665
-15.82,87.703,11.135
-15.79,90.862,11.536
-15.76,93.845,11.983
-15.72,96.582,12.452
-15.69,99.6,13.002
-15.66,102.899,13.552
-15.63,105.882,13.827
-15.59,108.936,14.342
-15.56,112.024,14.904
-15.53,115.042,15.339
-15.5,117.815,15.843
-15.46,120.763,16.565
-15.43,123.991,17.092
-15.4,127.08,17.55
-15.37,130.133,18.203
-15.33,133.257,18.776
-15.3,136.205,19.429
-15.27,139.293,20.162
-15.24,142.592,20.792
-15.2,145.891,21.307
-15.17,148.839,21.8
-15.14,151.541,22.281
-15.11,154.349,22.808
-15.07,157.332,23.381
-15.04,160.35,23.85
-15.01,163.263,24.217
-14.98,166.106,24.629
-14.94,168.913,25.145
-14.91,171.616,25.603
-14.88,174.493,26.107
-14.84,177.652,26.726
-14.81,180.389,27.081
-14.78,182.671,27.505
-14.75,185.303,28.204
-14.71,188.216,28.501
-14.68,190.497,28.582
-14.65,192.567,29.074
-14.62,195.059,29.303
-14.58,197.2,29.338
-14.55,199.165,29.819
-14.52,201.376,30.059
-14.49,203.307,30.014
-14.45,205.026,30.266
-14.42,206.641,30.414
-14.39,208.325,30.506
-14.36,210.361,30.907
-14.32,212.502,31.045
-14.29,214.151,31.205
-14.26,215.976,31.778
-14.23,218.222,32.064
-14.19,219.766,32.121
-14.16,221.135,32.58
-14.13,222.995,32.958
-14.1,224.89,33.152
-14.06,226.75,33.53
-14.03,228.329,33.782
-14.0,229.944,34.195
-13.97,232.155,34.71
-13.93,233.629,34.733
-13.9,234.822,35.02
-13.87,236.823,35.741
-13.84,238.647,35.741
-13.8,239.771,36.028
-13.77,241.49,36.715
-13.74,243.315,36.841
-13.71,244.824,37.127
-13.67,246.474,37.757
-13.64,247.737,37.643
-13.61,248.439,37.838
-13.58,250.299,38.605
-13.54,252.405,38.674
-13.51,253.563,38.754
-13.48,254.756,39.247
-13.45,256.195,39.522
-13.41,257.283,39.625
-13.38,258.371,39.945
-13.35,259.634,40.198
-13.31,260.933,40.392
-13.28,262.302,40.633
-13.25,263.495,40.747
-13.22,264.267,41.022
-13.18,265.285,41.526
-13.15,266.829,41.687
-13.12,267.987,41.755
-13.09,269.005,42.088
-13.05,270.233,42.351
-13.02,271.005,42.638
-12.99,272.128,43.107
-12.96,273.357,43.313
-12.92,274.164,43.508
-12.89,275.006,43.657
-12.86,275.883,43.772
-12.83,276.656,43.76
-12.79,277.112,43.932
-12.76,277.814,44.218
-12.73,278.621,44.39
-12.7,279.218,44.505
-12.66,279.849,44.665
-12.63,280.341,44.47
-12.6,280.692,44.631
-12.57,281.464,44.883
-12.53,282.13,44.986
-12.5,282.903,45.456
-12.47,283.99,45.799
-12.44,284.727,45.879
-12.4,284.763,46.028
-12.37,284.763,46.143
-12.34,284.833,45.925
-12.31,284.412,45.57
-12.27,284.061,45.192
-12.24,283.429,44.78
-12.21,282.341,44.436
-12.18,281.393,44.115
-12.14,280.621,43.634
-12.11,279.744,43.084
-12.08,278.235,42.66
-12.05,276.761,42.282
-12.01,275.497,41.893
-11.98,274.48,41.664
-11.95,273.743,41.286
-11.92,272.269,40.908
-11.88,270.549,40.747
-11.85,269.426,40.598
-11.82,268.303,40.346
-11.78,266.934,40.117
-11.75,265.636,39.9
-11.72,264.337,39.693
-11.69,263.109,39.51
-11.65,261.951,39.407
-11.62,260.687,39.224
-11.59,259.073,39.006
-11.56,257.458,38.88
-11.52,256.09,38.8
-11.49,254.756,38.605
-11.46,253.247,38.502
-11.43,251.913,38.365
-11.39,250.404,38.101
-11.36,248.755,38.078
-11.33,247.316,37.964
-11.3,245.631,37.483
-11.26,244.087,37.299
-11.23,242.438,37.185
-11.2,240.016,36.658
-11.17,238.121,36.658
-11.13,237.349,36.715
-11.1,235.629,36.051
-11.07,233.067,35.695
-11.04,231.172,35.741
-11.0,229.488,35.375
-10.97,227.347,35.031
-10.94,225.241,34.928
-10.91,223.346,34.642
-10.87,221.696,34.424
-10.84,220.047,34.172
-10.81,217.801,33.714
-10.78,215.274,33.668
-10.74,213.554,33.691
-10.71,211.835,33.37
-10.68,209.904,33.267
-10.65,208.15,33.095
-10.61,206.255,32.637
-10.58,204.359,32.694
-10.55,202.499,32.488
-10.52,200.078,31.904
-10.48,198.183,32.064
-10.45,196.638,31.915
-10.42,193.901,31.159
-10.38,191.725,31.457
-10.35,190.742,31.411
-10.32,188.567,30.529
-10.29,185.97,30.529
-10.25,184.32,30.632
-10.22,181.723,29.704
-10.19,179.056,29.762
-10.16,177.336,29.521
-10.12,174.844,28.662
-10.09,172.458,28.662
-10.06,170.528,28.295
-10.03,168.071,27.505
-9.99,165.404,27.39
-9.96,162.561,26.817
-9.93,159.929,26.233
-9.9,157.542,26.061
-9.86,155.191,25.397
-9.83,152.068,24.778
-9.8,148.839,24.538
-9.77,146.101,24.137
-9.73,143.539,23.541
-9.7,140.732,22.957
-9.67,137.538,22.258
-9.64,134.555,21.926
-9.6,131.993,21.536
-9.57,129.185,20.906
-9.54,126.062,20.46
-9.51,123.044,19.99
-9.47,119.78,19.383
-9.44,116.446,18.856
-9.41,113.147,18.272
-9.38,109.953,17.676
-9.34,106.549,17.137
-9.31,103.18,16.485
-9.28,99.881,15.728
-9.25,96.336,15.075
-9.21,92.616,14.388
-9.18,88.615,13.644
-9.15,84.966,13.082
-9.12,81.631,12.59
-9.08,78.157,11.822
-9.05,74.577,11.204
-9.02,71.349,10.734
-8.99,67.909,10.115
-8.95,64.33,9.611
-8.92,60.925,9.21
-8.89,57.697,8.649
-8.85,54.222,8.122
-8.82,50.853,7.744
-8.79,47.414,7.263
-8.76,44.009,6.782
-8.72,40.465,6.415
-8.69,37.236,5.9
-8.66,35.902,4.846
-8.63,40.219,2.497
-8.59,40.746,-1.237
-8.56,28.989,-1.558
-8.53,24.216,-0.149
-8.5,23.373,-0.561
-8.46,16.811,-1.26
-8.43,7.054,-1.352
-8.4,-1.228,-0.985
-8.37,-6.598,-0.699
-8.33,-10.915,-0.779
-8.3,-16.249,-0.779
-8.27,-18.706,-0.332
-8.24,-14.108,-1.386
-8.2,-15.968,-2.795
-8.17,-21.724,-2.486
-8.14,-25.865,-1.718
-8.11,-28.006,-1.294
-8.07,-29.796,-1.581
-8.04,-32.814,-2.589
-8.01,-37.271,-3.654
-7.98,-41.833,-4.158
-7.94,-45.097,-4.513
-7.91,-47.414,-5.04
-7.88,-50.221,-5.705
-7.85,-53.59,-6.278
-7.81,-57.17,-6.621
-7.78,-60.294,-6.793
-7.75,-63.066,-7.183
-7.72,-66.049,-7.744
-7.68,-69.418,-8.191
-7.65,-72.682,-8.557
-7.62,-75.7,-8.993
-7.59,-78.648,-9.485
-7.55,-81.737,-9.886
-7.52,-84.755,-10.367
-7.49,-87.843,-10.917
-7.46,-90.932,-11.295
-7.42,-93.845,-11.765
-7.39,-96.968,-12.246
-7.36,-99.811,-12.647
-7.32,-102.618,-13.048
-7.29,-105.742,-13.621
-7.26,-108.76,-14.045
-7.23,-111.568,-14.571
-7.19,-114.621,-15.167
-7.16,-117.744,-15.706
-7.13,-120.728,-16.221
-7.1,-123.711,-16.863
-7.06,-126.869,-17.447
-7.03,-130.098,-17.962
-7.0,-133.432,-18.695
-6.97,-136.696,-19.291
-6.93,-139.574,-19.669
-6.9,-142.451,-20.414
-6.87,-145.575,-21.147
-6.84,-148.909,-21.628
-6.8,-151.962,-22.189
-6.77,-154.98,-22.762
-6.74,-157.893,-23.22
-6.71,-160.841,-23.805
-6.67,-163.895,-24.309
-6.64,-166.562,-24.629
-6.61,-169.405,-25.202
-6.58,-172.353,-25.695
-6.54,-174.985,-25.912
-6.51,-177.792,-26.52
-6.48,-180.881,-27.138
-6.45,-183.548,-27.321
-6.41,-185.864,-27.837
-6.38,-188.496,-28.398
-6.35,-190.813,-28.478
-6.32,-192.989,-28.776
-6.28,-195.375,-29.166
-6.25,-197.551,-29.246
-6.22,-199.586,-29.555
-6.19,-201.797,-29.83
-6.15,-203.552,-29.876
-6.12,-205.342,-30.208
-6.09,-207.343,-30.529
-6.06,-209.308,-30.609
-6.02,-211.414,-30.85
-5.99,-213.379,-31.045
-5.96,-214.818,-31.216
-5.92,-216.327,-31.675
-5.89,-218.362,-32.007
-5.86,-220.187,-32.053
-5.83,-221.661,-32.282
-5.79,-223.416,-32.534
-5.76,-224.96,-32.751
-5.73,-226.329,-33.061
-5.7,-228.294,-33.53
-5.66,-230.4,-33.886
-5.63,-231.979,-34.172
-5.6,-233.138,-34.538
-5.57,-234.892,-35.031
-5.53,-236.963,-35.352
-5.5,-238.156,-35.489
-5.47,-239.49,-35.879
-5.44,-241.525,-36.291
-5.4,-243.069,-36.486
-5.37,-244.298,-36.852
-5.34,-246.053,-37.242
-5.31,-247.597,-37.437
-5.27,-248.685,-37.746
-5.24,-250.299,-38.239
-5.21,-252.264,-38.559
-5.18,-253.738,-38.823
-5.14,-254.967,-39.235
-5.11,-256.195,-39.533
-5.08,-257.283,-39.785
-5.05,-258.792,-40.06
-5.01,-260.196,-40.186
-4.98,-261.073,-40.381
-4.95,-262.267,-40.759
-4.92,-263.46,-40.954
-4.88,-264.442,-41.022
-4.85,-265.671,-41.309
-4.82,-266.899,-41.549
-4.79,-267.952,-41.881
-4.75,-268.794,-42.053
-4.72,-269.637,-42.271
-4.69,-270.935,-42.534
-4.66,-272.128,-42.786
-4.62,-273.006,-43.153
-4.59,-273.953,-43.405
-4.56,-274.971,-43.508
-4.53,-275.462,-43.646
-4.49,-275.954,-43.634
-4.46,-276.62,-43.829
-4.43,-277.708,-44.058
-4.39,-278.481,-44.207
-4.36,-278.551,-44.195
-4.33,-279.077,-44.344
-4.3,-279.674,-44.39
-4.26,-280.06,-44.276
-4.23,-280.586,-44.425
-4.2,-280.972,-44.459
-4.17,-281.183,-44.539
-4.13,-281.534,-44.688
-4.1,-281.85,-44.791
-4.07,-281.779,-44.848
-4.04,-281.639,-44.883
-4.0,-281.885,-44.688
-3.97,-281.569,-44.413
-3.94,-281.042,-44.276
-3.91,-280.972,-44.23
-3.87,-280.832,-44.092
-3.84,-280.165,-43.921
-3.81,-279.498,-43.783
-3.78,-278.831,-43.565
-3.74,-278.094,-43.279
-3.71,-277.182,-42.958
-3.68,-276.094,-42.775
-3.65,-275.322,-42.729
-3.61,-274.76,-42.523
-3.58,-273.813,-42.122
-3.55,-272.339,-41.859
-3.52,-271.005,-41.595
-3.48,-269.777,-41.217
-3.45,-268.303,-40.885
-3.42,-266.934,-40.702
-3.39,-265.987,-40.484
-3.35,-264.723,-40.163
-3.32,-263.179,-39.968
-3.29,-261.916,-39.785
-3.26,-260.757,-39.464
-3.22,-259.038,-39.212
-3.19,-257.353,-39.029
-3.16,-255.809,-38.754
-3.13,-254.3,-38.491
-3.09,-252.65,-38.25
-3.06,-250.79,-37.918
-3.03,-249.141,-37.746
-3.0,-247.527,-37.551
-2.96,-245.456,-37.127
-2.93,-243.42,-37.001
-2.9,-242.473,-36.967
-2.86,-240.929,-36.509
-2.83,-238.507,-36.245
-2.8,-236.893,-36.452
-2.77,-235.489,-36.154
-2.73,-233.278,-35.73
-2.7,-231.313,-35.627
-2.67,-229.803,-35.375
-2.64,-228.014,-35.065
-2.6,-225.978,-34.905
-2.57,-224.153,-34.733
-2.54,-222.539,-34.63
-2.51,-220.784,-34.458
-2.47,-218.643,-34.206
-2.44,-216.573,-33.954
-2.41,-214.853,-33.828
-2.38,-213.098,-33.622
-2.34,-210.922,-33.439
-2.31,-208.957,-33.233
-2.28,-207.237,-32.9
-2.25,-205.272,-32.694
-2.21,-203.131,-32.305
-2.18,-200.674,-31.881
-2.15,-198.639,-31.789
-2.12,-196.884,-31.445
-2.08,-194.533,-31.01
-2.05,-192.392,-31.033
-2.02,-190.567,-30.815
-1.99,-188.251,-30.38
-1.95,-186.005,-30.197
-1.92,-183.723,-29.853
-1.89,-181.232,-29.406
-1.86,-179.126,-29.166
-1.82,-177.02,-28.765
-1.79,-174.564,-28.318
-1.76,-171.756,-28.066
-1.73,-169.229,-27.688
-1.69,-166.948,-27.264
-1.66,-164.491,-26.852
-1.63,-161.613,-26.313
-1.6,-158.876,-25.924
-1.56,-156.77,-25.706
-1.53,-154.454,-25.099
-1.5,-150.98,-24.354
-1.46,-147.646,-24.16
-1.43,-145.224,-23.667
-1.4,-142.943,-23.163
-1.37,-140.03,-22.545
-1.33,-136.836,-21.937
-1.3,-133.853,-21.754
-1.27,-131.396,-21.433
-1.24,-128.624,-20.918
-1.2,-125.5,-20.414
-1.17,-122.272,-19.875
-1.14,-118.973,-19.268
-1.11,-115.533,-18.638
-1.07,-112.305,-17.985
-1.04,-109.146,-17.309
-1.01,-105.812,-16.645
-0.98,-102.338,-15.946
-0.94,-98.758,-15.35
-0.91,-95.284,-14.743
-0.88,-91.844,-13.987
-0.85,-88.124,-13.231
-0.81,-84.404,-12.601
-0.78,-80.719,-11.914
-0.75,-77.139,-11.364
-0.72,-73.77,-10.86
-0.68,-70.331,-10.367
-0.65,-66.997,-9.875
-0.62,-63.838,-9.394
-0.59,-60.294,-8.844
-0.55,-56.854,-8.523
-0.52,-53.52,-8.225
-0.49,-50.467,-7.79
-0.46,-47.238,-7.32
-0.42,-44.08,-6.896
-0.39,-40.5,-6.266
-0.36,-36.99,-5.9
-0.33,-35.551,-5.144
-0.29,-40.675,-2.681
-0.26,-41.553,1.455
-0.23,-28.918,1.512
-0.2,-25.409,-0.023
-0.16,-24.496,0.699
-0.13,-16.986,1.294
-0.1,-6.914,1.42
-0.07,2.141,1.065
-0.03,8.037,0.802
0.0,13.512,0.859
0.03,18.565,0.756
0.07,21.338,0.126
0.1,15.933,0.916
0.13,15.056,2.944
0.16,21.233,2.818
0.2,25.409,1.673
0.23,27.409,1.1
0.26,28.462,1.226
0.29,31.024,2.177
0.33,35.411,3.345
0.36,40.605,3.906
0.39,44.571,4.078
0.42,47.168,4.41
0.46,49.379,5.075
0.49,52.327,5.877
0.52,55.907,6.461
0.55,59.451,6.759
0.59,62.505,7.057
0.62,65.593,7.526
0.65,68.787,8.145
0.68,72.296,8.683
0.72,75.595,9.233
0.75,78.859,9.829
0.78,81.947,10.402
0.81,84.966,10.974
0.85,88.089,11.559
0.88,91.283,12.005
0.91,94.336,12.372
0.94,97.108,12.796
0.98,99.916,13.243
1.01,103.04,13.781
1.04,106.549,14.297
1.07,109.848,14.617
1.11,112.621,15.133
1.14,115.639,15.832
1.17,118.762,16.324
1.2,121.886,16.851
1.24,124.799,17.412
1.27,127.817,17.871
1.3,130.835,18.317
1.33,134.239,18.982
1.37,137.573,19.589
1.4,140.135,19.887
1.43,142.908,20.654
1.46,145.996,21.193
1.5,149.225,21.628
1.53,152.103,21.972
1.56,154.805,22.361
1.6,157.542,23.037
1.63,160.596,23.576
1.66,163.579,23.942
1.69,166.211,24.4
1.73,168.948,24.962
1.76,171.616,25.374
1.79,174.423,25.855
1.82,177.582,26.439
1.86,180.495,26.806
1.89,182.951,27.207
1.92,185.373,27.871
1.95,188.11,28.272
1.99,190.497,28.478
2.02,192.638,28.857
2.05,194.919,29.143
2.08,197.165,29.361
2.12,199.446,29.601
2.15,201.587,29.796
2.18,203.412,30.048
2.21,205.237,30.243
2.25,207.132,30.346
2.28,208.817,30.529
2.31,210.782,30.85
2.34,212.852,31.01
2.38,214.677,31.228
2.41,216.362,31.64
2.44,218.292,31.995
2.47,220.012,32.03
2.51,221.416,32.167
2.54,223.311,32.728
2.57,225.381,33.015
2.6,226.891,33.175
2.64,228.365,33.679
2.67,230.26,34.138
2.7,232.085,34.367
2.73,233.699,34.573
2.77,235.243,34.939
2.8,236.682,35.226
2.83,238.297,35.558
2.86,240.157,35.993
2.9,241.701,36.165
2.93,243.14,36.44
2.96,244.859,36.83
3.0,246.158,36.979
3.03,247.246,37.299
3.06,248.965,37.803
3.09,250.72,38.124
3.13,251.949,38.445
3.16,253.563,38.914
3.19,255.388,39.189
3.22,256.651,39.338
3.26,257.353,39.59
3.29,258.441,39.9
3.32,259.985,40.094
3.35,261.389,40.255
3.39,262.302,40.518
3.42,263.354,40.782
3.45,264.653,40.942
3.48,265.846,41.229
3.52,267.004,41.492
3.55,267.987,41.71
3.58,269.005,41.985
3.61,270.198,42.225
3.65,271.146,42.534
3.68,272.339,42.912
3.71,273.708,43.038
3.74,274.69,43.13
3.78,275.217,43.348
3.81,275.813,43.543
3.84,276.515,43.52
3.87,276.971,43.691
3.91,277.954,43.932
3.94,278.831,44.035
3.97,279.253,44.218
4.0,279.814,44.31
4.04,280.235,44.31
4.07,280.481,44.379
4.1,280.937,44.402
4.13,281.323,44.448
4.17,282.201,44.871
4.2,283.183,45.1
4.23,283.043,44.86
4.26,282.762,44.94
4.3,283.008,44.94
4.33,282.973,44.791
4.36,282.446,44.551
4.39,281.85,44.241
4.43,281.358,44.069
4.46,280.902,43.806
4.49,280.2,43.451
4.53,279.253,43.187
4.56,278.551,42.89
4.59,277.357,42.615
4.62,276.164,42.397
4.66,275.462,42.145
4.69,274.936,41.939
4.72,274.164,41.675
4.75,273.181,41.389
4.79,271.988,41.183
4.82,270.689,40.988
4.85,269.286,40.782
4.88,268.022,40.621
4.92,266.934,40.392
4.95,265.706,40.152
4.98,264.513,39.934
5.01,263.039,39.774
5.05,261.74,39.602
5.08,260.406,39.327
5.11,258.897,39.121
5.14,257.494,38.892
5.18,255.879,38.651
5.21,254.16,38.514
5.24,252.686,38.296
5.27,251.212,38.032
5.31,249.562,37.872
5.34,247.772,37.7
5.37,246.193,37.448
5.4,244.859,37.208
5.44,242.894,36.956
5.47,240.718,36.612
5.5,239.42,36.589
5.53,237.946,36.348
5.57,235.524,35.867
5.6,232.997,35.684
5.63,231.348,35.363
5.66,229.628,35.077
5.7,227.698,34.894
5.73,225.838,34.607
5.76,224.013,34.298
5.79,222.258,34.241
5.83,220.573,34.16
5.86,218.643,33.943
5.89,216.573,33.851
5.92,214.572,33.771
5.96,212.817,33.656
5.99,211.308,33.439
6.02,209.659,33.061
6.06,207.413,32.9
6.09,205.342,32.889
6.12,203.447,32.557
6.15,201.482,32.305
6.19,199.692,32.076
6.22,197.34,31.537
6.25,195.059,31.4
6.28,193.304,31.388
6.32,191.269,30.873
6.35,188.918,30.598
6.38,186.707,30.426
6.41,184.25,29.933
6.45,182.039,29.658
6.48,179.863,29.372
6.51,177.301,28.902
6.54,175.125,28.742
6.58,173.16,28.41
6.61,170.422,27.757
6.64,167.474,27.539
6.67,165.263,27.23
6.71,162.807,26.474
6.74,159.999,26.05
6.77,157.297,25.764
6.8,154.594,25.282
6.84,151.822,24.79
6.87,148.804,24.171
6.9,145.75,23.702
6.93,143.048,23.335
6.97,140.381,22.716
7.0,137.433,22.166
7.03,134.485,21.754
7.06,131.467,21.239
7.1,128.308,20.62
7.13,124.974,20.139
7.16,121.815,19.669
7.19,118.727,19.016
7.23,115.463,18.295
7.26,111.884,17.699
7.29,108.585,17.275
7.32,105.637,16.702
7.36,102.232,15.935
7.39,98.547,15.328
7.42,94.897,14.709
7.46,91.283,14.067
7.49,87.808,13.426
7.52,84.229,12.761
7.55,80.754,12.166
7.59,77.385,11.616
7.62,73.946,11.1
7.65,70.647,10.631
7.68,67.242,10.195
7.72,63.768,9.726
7.75,60.223,9.279
7.78,56.995,8.798
7.81,53.801,8.237
7.85,50.467,7.755
7.88,47.028,7.332
7.91,43.694,6.942
7.94,40.254,6.621
7.98,37.447,6.232
8.01,36.885,5.075
8.04,41.272,2.429
8.07,41.447,-1.18
8.11,31.024,-1.317
8.14,27.48,-0.115
8.17,26.146,-0.664
8.2,19.197,-1.237
8.24,9.265,-1.432
8.27,0.035,-1.111
8.3,-6.598,-0.882
8.33,-12.248,-0.882
8.37,-18.074,-0.836
8.4,-20.917,-0.286
8.43,-16.003,-1.26
8.46,-16.881,-2.795
8.5,-22.321,-2.6
8.53,-26.427,-1.81
8.56,-28.217,-1.249
8.59,-29.375,-1.478
8.63,-31.831,-2.44
8.66,-35.938,-3.494
8.69,-40.71,-4.044
8.72,-44.431,-4.239
8.76,-46.782,-4.502
8.79,-49.028,-5.086
8.82,-52.222,-5.716
8.85,-55.696,-6.049
8.89,-58.855,-6.323
8.92,-61.768,-6.782
8.95,-64.856,-7.32
8.99,-68.26,-7.904
9.02,-71.84,-8.466
9.05,-75.209,-8.924
9.08,-78.262,-9.474
9.12,-81.316,-10.092
9.15,-84.65,-10.734
9.18,-88.089,-11.249
9.21,-91.212,-11.582
9.25,-94.055,-12.063
9.28,-96.898,-12.59
9.31,-99.881,-13.048
9.34,-103.145,-13.586
9.38,-106.374,-14.033
9.41,-109.357,-14.411
9.44,-112.445,-14.995
9.47,-115.569,-15.522
9.51,-118.376,-16.003
9.54,-121.184,-16.691
9.57,-124.553,-17.298
9.6,-127.747,-17.722
9.64,-130.905,-18.329
9.67,-134.274,-19.073
9.7,-137.433,-19.463
9.73,-140.135,-20.024
9.77,-142.943,-20.517
9.8,-146.031,-21.135
9.83,-149.19,-21.674
9.86,-152.103,-22.006
9.9,-154.77,-22.464
9.93,-157.613,-23.152
9.96,-160.841,-23.839
9.99,-163.86,-24.194
10.03,-166.457,-24.664
10.06,-169.334,-25.259
10.09,-172.247,-25.534
10.12,-174.844,-25.867
10.16,-177.687,-26.531
10.19,-180.565,-26.966
10.22,-183.197,-27.344
10.25,-185.864,-27.894
10.29,-188.321,-28.181
10.32,-190.497,-28.433
10.35,-192.673,-28.811
10.38,-194.954,-29.028
10.42,-197.13,-29.269
10.45,-199.411,-29.59
10.48,-201.657,-29.739
10.52,-203.482,-29.91
10.55,-205.167,-30.208
10.58,-207.132,-30.426
10.61,-209.132,-30.644
10.65,-211.028,-30.941
10.68,-213.028,-31.228
10.71,-214.993,-31.514
10.74,-216.994,-31.869
10.78,-218.889,-32.19
10.81,-220.503,-32.476
10.84,-222.047,-32.751
10.87,-223.732,-33.118
10.91,-225.627,-33.439
10.94,-227.382,-33.645
10.97,-228.996,-33.954
11.0,-230.716,-34.355
11.04,-232.365,-34.573
11.07,-233.875,-34.813
11.1,-235.524,-35.065
11.13,-237.033,-35.34
11.17,-238.507,-35.661
11.2,-239.946,-35.948
11.23,-241.525,-36.28
11.26,-243.14,-36.669
11.3,-244.614,-36.933
11.33,-246.017,-37.242
11.36,-247.527,-37.677
11.39,-249.176,-37.929
11.43,-250.475,-38.262
11.46,-251.984,-38.674
11.49,-253.809,-38.903
11.52,-255.072,-39.167
11.56,-256.125,-39.51
11.59,-257.423,-39.739
11.62,-258.617,-39.911
11.65,-259.775,-40.129
11.69,-260.863,-40.392
11.72,-262.056,-40.69
11.75,-263.284,-40.919
11.78,-264.337,-41.217
11.82,-265.601,-41.469
11.85,-266.724,-41.744
11.88,-267.952,-42.042
11.92,-268.864,-42.271
11.95,-269.917,-42.569
11.98,-271.181,-42.844
12.01,-272.198,-43.107
12.05,-273.286,-43.313
12.08,-274.129,-43.462
12.11,-274.901,-43.623
12.14,-275.638,-43.749
12.18,-276.234,-43.852
12.21,-276.901,-43.921
12.24,-277.673,-44.184
12.27,-278.481,-44.402
12.31,-279.042,-44.482
12.34,-279.463,-44.619
12.37,-279.884,-44.642
12.4,-280.235,-44.528
12.44,-280.586,-44.619
12.47,-280.516,-44.574
12.5,-280.867,-44.665
12.53,-281.534,-44.745
12.57,-281.744,-44.7
12.6,-281.393,-44.711
12.63,-281.393,-44.677
12.66,-281.288,-44.608
12.7,-280.867,-44.436
12.73,-280.762,-44.218
12.76,-280.762,-44.138
12.79,-280.446,-44.035
12.83,-279.744,-43.886
12.86,-279.042,-43.749
12.89,-278.516,-43.543
12.92,-277.708,-43.302
12.96,-276.585,-43.016
12.99,-275.708,-42.798
13.02,-275.217,-42.626
13.05,-274.515,-42.363
13.09,-273.111,-42.134
13.12,-271.812,-42.053
13.15,-270.83,-41.778
13.18,-269.566,-41.423
13.22,-268.163,-41.103
13.25,-266.969,-40.828
13.28,-265.952,-40.53
13.31,-264.442,-40.312
13.35,-263.004,-40.198
13.38,-261.775,-39.98
13.41,-260.301,-39.613
13.45,-258.617,-39.361
13.48,-257.072,-39.109
13.51,-255.423,-38.8
13.54,-253.703,-38.674
13.58,-252.405,-38.502
13.61,-251.001,-38.147
13.64,-249.106,-38.055
13.67,-247.351,-37.883
13.71,-245.877,-37.528
13.74,-244.368,-37.379
13.77,-242.648,-37.173
13.8,-240.683,-36.887
13.84,-239.104,-36.83
13.87,-237.84,-36.704
13.9,-235.945,-36.314
13.93,-233.699,-36.096
13.97,-231.874,-35.993
14.0,-230.435,-35.73
14.03,-228.54,-35.501
14.06,-226.469,-35.249
14.1,-224.574,-34.928
14.13,-222.855,-34.768
14.16,-220.889,-34.516
14.19,-218.819,-34.172
14.23,-216.713,-33.931
14.26,-214.537,-33.748
14.29,-212.396,-33.576
14.32,-210.431,-33.29
14.36,-208.781,-32.958
14.39,-207.167,-32.66
14.42,-204.886,-32.362
14.45,-202.219,-32.236
14.49,-200.148,-32.167
14.52,-198.639,-31.95
14.55,-196.849,-31.606
14.58,-194.638,-31.319
14.62,-192.322,-31.171
14.65,-190.462,-31.067
14.68,-188.531,-30.77
14.71,-186.11,-30.38
14.75,-183.934,-30.117
14.78,-181.653,-29.681
14.81,-179.301,-29.166
14.84,-176.985,-28.925
14.88,-174.669,-28.605
14.91,-172.212,-28.112
14.94,-169.51,-27.837
14.98,-167.053,-27.459
15.01,-164.561,-26.989
15.04,-162.21,-26.497
15.07,-159.508,-25.878
15.11,-156.665,-25.489
15.14,-154.243,-25.259
15.17,-151.787,-24.687
15.2,-148.698,-24.183
15.24,-145.47,-23.77
15.27,-142.487,-23.381
15.3,-139.679,-22.774
15.33,-136.696,-22.121
15.37,-133.853,-21.766
15.4,-131.186,-21.181
15.43,-128.168,-20.597
15.46,-124.939,-20.15
15.5,-121.815,-19.715
15.53,-118.692,-19.096
15.56,-115.393,-18.409
15.59,-112.024,-17.848
15.63,-108.83,-17.229
15.66,-105.426,-16.553
15.69,-101.952,-15.992
15.72,-98.512,-15.419
15.76,-94.933,-14.743
15.79,-91.493,-14.079
15.82,-88.054,-13.334
15.85,-84.264,-12.578
15.89,-80.403,-12.074
15.92,-77.069,-11.616
15.95,-73.63,-10.917
15.98,-70.331,-10.447
16.02,-67.278,-9.966
16.05,-63.803,-9.29
16.08,-60.013,-8.924
16.11,-56.819,-8.775
16.15,-53.696,-8.214
16.18,-50.572,-7.71
16.21,-46.992,-7.366
16.24,-43.764,-6.885
16.28,-40.079,-6.358
16.31,-36.885,-6.037
16.34,-36.008,-4.972
16.38,-41.202,-2.073
16.41,-39.833,1.73
16.44,-27.866,1.157
16.47,-25.935,0.0
16.51,-24.461,0.745
16.54,-17.091,1.272
16.57,-7.3,1.375
16.6,1.263,0.997
16.64,6.773,0.768
16.67,12.073,0.882
16.7,17.477,0.825
16.73,20.706,0.183
16.77,15.407,0.939
16.8,14.529,2.91
16.83,20.636,2.749
16.86,24.883,1.684
16.9,27.304,1.18
16.93,28.568,1.272
16.96,31.059,2.131
16.99,35.236,3.311
17.03,40.5,3.987
17.06,44.501,4.239
17.09,46.992,4.605
17.12,49.133,5.373
17.16,52.362,6.22
17.19,56.117,6.759
17.22,59.732,7.011
17.25,62.645,7.297
17.29,65.628,7.79
17.32,68.857,8.363
17.35,72.366,8.844
17.38,75.63,9.302
17.42,78.754,9.852
17.45,81.702,10.367
17.48,84.825,10.917
17.51,88.124,11.444
17.55,91.212,11.834
17.58,94.125,12.223
17.61,97.073,12.75
17.64,100.056,13.208
17.68,102.934,13.666
17.71,105.988,14.239
17.74,109.111,14.709
17.77,112.234,15.293
17.81,115.533,15.912
17.84,118.517,16.359
17.87,121.605,16.874
17.91,124.869,17.458
17.94,127.817,17.928
17.97,130.554,18.398
18.0,133.678,19.188
18.04,137.187,19.887
18.07,140.311,20.082
18.1,143.188,20.677
18.13,146.101,21.227
18.17,149.19,21.766
18.2,151.962,22.212
18.23,154.84,22.705
18.26,157.858,23.266
18.3,160.771,23.679
18.33,163.614,24.148
18.36,166.316,24.629
18.39,169.089,25.065
18.43,171.756,25.534
18.46,174.599,25.993
18.49,177.406,26.462
18.52,180.389,26.966
18.56,183.162,27.39
18.59,185.583,27.757
18.62,188.075,28.284
18.65,190.532,28.65
18.69,192.638,28.788
18.72,194.814,29.212
18.75,197.235,29.487
18.78,199.13,29.498
18.82,201.271,29.853
18.85,203.517,30.082
18.88,205.061,30.048
18.91,206.781,30.403
18.95,208.852,30.724
18.98,210.852,30.85
19.01,212.747,31.182
19.04,214.467,31.48
19.08,216.362,31.755
19.11,218.398,32.11
19.14,219.907,32.167
19.17,220.959,32.35
19.21,222.89,32.866
19.24,225.136,33.061
19.27,226.785,33.244
19.31,228.365,33.805
19.34,230.119,34.069
19.37,231.734,34.378
19.4,233.524,34.894
19.44,235.068,35.088
19.47,236.577,35.34
19.5,238.647,35.867
19.53,240.227,35.959
19.57,241.28,36.234
19.6,243.175,36.967
19.63,245.035,37.059
19.66,245.877,37.127
19.7,247.456,37.757
19.73,249.457,37.861
19.76,250.194,37.964
19.79,251.492,38.571
19.83,253.493,38.892
19.86,254.861,39.121
19.89,256.055,39.636
19.92,257.423,39.831
19.96,258.301,39.98
19.99,259.634,40.358
20.02,261.249,40.495
20.05,262.056,40.69
20.09,263.214,41.057
20.12,264.583,41.217
20.15,265.565,41.481
20.18,266.724,41.813
20.22,268.092,41.985
20.25,268.97,42.145
20.28,269.917,42.512
20.31,271.146,42.832
20.35,272.339,43.038
20.38,273.286,43.279
20.41,274.164,43.577
20.44,274.971,43.68
20.48,275.568,43.806
20.51,276.41,43.817
20.54,276.936,43.909
20.57,277.744,44.138
20.61,278.516,44.322
20.64,279.042,44.425
20.67,279.463,44.585
20.7,280.13,44.734
20.74,280.937,44.906
20.77,281.253,44.619
20.8,281.078,44.722
20.84,281.779,45.1
20.87,282.797,45.158
20.9,282.552,44.963
20.93,282.201,45.009
20.97,282.236,44.94
21.0,282.481,44.814
21.03,281.955,44.585
21.06,281.113,44.333
21.1,280.762,44.344
21.13,280.797,44.173
21.16,280.27,43.875
21.19,279.218,43.623
21.23,278.41,43.405
21.26,277.954,43.073
21.29,276.726,42.821
21.32,275.848,42.672
21.36,275.322,42.489
21.39,274.339,42.328
21.42,273.357,42.145
21.45,272.339,41.847
21.49,271.111,41.595
21.52,269.672,41.389
21.55,268.338,41.148
21.58,267.355,40.896
21.62,266.197,40.633
21.65,264.688,40.392
21.68,263.319,40.186
21.71,262.407,39.923
21.75,260.898,39.522
21.78,258.757,39.35
21.81,257.353,39.281
21.84,256.16,38.972
21.88,254.405,38.617
21.91,252.686,38.491
21.94,251.422,38.273
21.97,249.702,37.803
22.01,247.807,37.643
22.04,246.017,37.528
22.07,244.087,37.139
22.1,242.438,37.013
22.14,240.788,36.852
22.17,238.718,36.532
22.2,236.858,36.406
22.23,235.419,36.154
22.27,233.278,35.615
22.3,231.067,35.409
22.33,229.488,35.455
22.37,227.873,35.054
22.4,225.732,34.905
22.43,223.802,34.928
22.46,222.188,34.653
22.5,220.714,34.527
22.53,219.029,34.367
22.56,216.783,34.0
22.59,214.502,34.0
22.63,213.063,34.023
22.66,211.343,33.542
22.69,209.448,33.381
22.72,207.553,33.267
22.76,205.272,32.797
22.79,203.377,32.717
22.82,201.622,32.522
22.85,199.06,31.801
22.89,196.674,31.801
22.92,195.375,31.755
22.95,192.989,30.953
22.98,190.286,31.079
23.02,188.672,31.171
23.05,186.496,30.277
23.08,184.32,30.231
23.11,182.565,30.014
23.15,179.652,29.131
23.18,176.95,29.292
23.21,175.441,29.2
23.24,173.125,28.284
23.28,170.036,28.089
23.31,167.615,27.94
23.34,165.263,27.207
23.37,162.666,26.817
23.41,160.104,26.359
23.44,157.121,25.764
23.47,154.524,25.512
23.5,151.857,24.973
23.54,148.734,24.309
23.57,145.821,24.08
23.6,143.259,23.392
23.63,140.346,22.671
23.67,136.836,22.121
23.7,133.783,21.743
23.73,131.291,21.422
23.77,128.378,20.849
23.8,125.044,20.276
23.83,121.991,19.887
23.86,119.043,19.36
23.9,115.779,18.615
23.93,112.445,18.031
23.96,109.181,17.538
23.99,105.812,16.954
24.03,103.11,16.794
24.06,101.109,16.668
24.09,98.337,16.084
24.12,95.003,15.74
24.16,92.125,15.602
24.19,89.388,15.098
24.22,86.264,14.457
24.25,82.755,13.976
24.29,78.719,13.231
24.32,74.648,12.372
24.35,70.506,11.673
24.38,66.927,10.688
24.42,62.996,9.554
24.45,59.065,8.706
24.48,55.099,7.973
24.51,51.379,7.217
24.55,47.589,6.679
24.58,44.009,5.968
24.61,39.868,5.361
24.64,36.464,4.834
24.68,35.902,3.7
24.71,39.587,0.504
24.74,32.603,-2.005
24.77,22.285,-0.642
24.81,21.584,-0.263
24.84,17.337,-0.962
24.87,9.897,-1.157
24.9,1.86,-1.088
24.94,-4.352,-0.813
24.97,-8.598,-0.573
25.0,-11.967,-0.745
25.03,-16.776,-0.527
25.07,-14.284,-0.848
25.1,-13.371,-2.429
25.13,-19.022,-2.451
25.16,-23.373,-1.604
25.2,-25.795,-1.1
25.23,-27.374,-1.203
25.26,-30.042,-2.016
25.3,-34.218,-3.001
25.33,-39.272,-3.597
25.36,-43.413,-3.815
25.39,-46.08,-4.055
25.43,-48.08,-4.777
25.46,-51.169,-5.579
25.49,-54.819,-6.094
25.52,-58.258,-6.346
25.56,-60.925,-6.667
25.59,-63.557,-7.228
25.62,-66.716,-7.881
25.65,-70.261,-8.363
25.69,-73.63,-8.729
25.72,-76.718,-9.164
25.75,-79.842,-9.714
25.78,-82.965,-10.253
25.82,-86.194,-10.711
25.85,-89.317,-11.272
25.88,-92.406,-11.856
25.91,-95.459,-12.269
25.95,-98.267,-12.75
25.98,-101.355,-13.46
26.01,-104.724,-13.953
26.04,-107.988,-14.262
26.08,-111.041,-14.709
26.11,-113.814,-15.282
26.14,-116.621,-15.854
26.17,-119.64,-16.45
26.21,-122.728,-16.885
26.24,-125.781,-17.367
26.27,-128.94,-18.054
26.3,-132.133,-18.547
26.34,-135.327,-19.062
26.37,-138.696,-19.795
26.4,-141.714,-20.322
26.43,-144.452,-20.815
26.47,-147.014,-21.365
26.5,-148.172,-20.918
26.53,-148.032,-20.162
26.56,-148.944,-20.322
26.6,-151.331,-20.104
26.63,-153.296,-19.429
26.66,-154.875,-19.612
26.69,-156.735,-19.887
26.73,-159.227,-20.23
26.76,-162.421,-21.17
26.79,-165.93,-22.04
26.83,-168.633,-22.751
26.86,-171.405,-24.011
26.89,-175.055,-25.282
26.92,-178.494,-25.924
26.96,-181.442,-26.909
26.99,-184.531,-28.055
27.02,-187.373,-28.547
27.05,-190.181,-29.349
27.09,-193.62,-30.277
27.12,-196.533,-30.426
27.15,-198.814,-30.804
27.18,-201.587,-31.503
27.22,-204.079,-31.652
27.25,-205.939,-31.858
27.28,-208.115,-32.385
27.31,-210.641,-32.568
27.35,-212.747,-32.797
27.38,-214.958,-33.255
27.41,-217.099,-33.439
27.44,-219.24,-33.714
27.48,-221.381,-34.034
27.51,-222.995,-34.138
27.54,-224.89,-34.458
27.57,-227.031,-34.676
27.61,-228.575,-34.722
27.64,-229.944,-35.157
27.67,-231.909,-35.512
27.7,-233.594,-35.535
27.74,-235.208,-35.787
27.77,-236.682,-35.97
27.8,-238.121,-36.085
27.83,-239.806,-36.566
27.87,-241.56,-36.818
27.9,-242.824,-36.887
27.93,-244.193,-37.391
27.96,-246.017,-37.654
28.0,-247.351,-37.586
28.03,-248.439,-37.929
28.06,-249.983,-38.342
28.09,-251.598,-38.445
28.13,-252.931,-38.766
28.16,-254.195,-39.155
28.19,-255.423,-39.407
28.23,-256.792,-39.693
28.26,-258.09,-39.877
28.29,-259.038,-40.003
28.32,-260.126,-40.22
28.36,-261.494,-40.45
28.39,-262.617,-40.633
28.42,-263.46,-40.919
28.45,-264.688,-41.297
28.49,-265.811,-41.618
28.52,-267.075,-41.87
28.55,-268.268,-41.996
28.58,-269.215,-42.271
28.62,-270.338,-42.512
28.65,-271.356,-42.809
28.68,-272.444,-43.13
28.71,-273.532,-43.348
28.75,-274.374,-43.508
28.78,-275.006,-43.634
28.81,-275.603,-43.795
28.84,-276.27,-43.886
28.88,-276.866,-44.001
28.91,-277.708,-44.184
28.94,-278.445,-44.322
28.97,-278.972,-44.413
29.01,-279.288,-44.448
29.04,-279.568,-44.448
29.07,-279.779,-44.425
29.1,-279.849,-44.356
29.14,-280.13,-44.299
29.17,-280.376,-44.425
29.2,-280.516,-44.493
29.23,-280.516,-44.402
29.27,-280.411,-44.367
29.3,-280.341,-44.344
29.33,-280.06,-44.161
29.36,-279.568,-44.047
29.4,-279.639,-44.012
29.43,-279.674,-44.035
29.46,-279.428,-44.001
29.49,-278.937,-43.909
29.53,-278.41,-43.852
29.56,-277.814,-43.714
29.59,-277.042,-43.462
29.62,-276.34,-43.222
29.66,-275.813,-43.13
29.69,-275.076,-42.958
29.72,-274.269,-42.764
29.76,-273.392,-42.592
29.79,-272.234,-42.374
29.82,-270.9,-42.099
29.85,-269.812,-41.801
29.89,-268.935,-41.423
29.92,-267.741,-41.091
29.95,-266.338,-40.954
29.98,-264.969,-40.793
30.02,-263.6,-40.621
30.05,-262.512,-40.45
30.08,-261.108,-40.106
30.11,-259.424,-39.751
30.15,-257.985,-39.579
30.18,-256.827,-39.35
30.21,-255.072,-38.914
30.24,-253.107,-38.777
30.28,-251.843,-38.823
30.31,-250.475,-38.376
30.34,-248.369,-38.01
30.37,-246.86,-38.113
30.41,-245.456,-37.7
30.44,-243.21,-37.368
30.47,-241.841,-37.609
30.5,-240.613,-37.173
30.54,-238.332,-36.761
30.57,-236.717,-36.967
30.6,-235.419,-36.543
30.63,-233.278,-36.016
30.67,-231.242,-36.074
30.7,-229.523,-35.799
30.73,-227.417,-35.352
30.76,-225.697,-35.146
30.8,-223.978,-34.962
30.83,-221.907,-34.584
30.86,-219.626,-34.378
30.89,-217.204,-34.034
30.93,-215.134,-33.828
30.96,-213.73,-33.771
30.99,-211.87,-33.198
31.02,-209.518,-32.832
31.06,-207.553,-32.855
31.09,-205.412,-32.454
31.12,-202.991,-32.098
31.15,-200.815,-32.053
31.19,-198.639,-31.56
31.22,-196.358,-31.297
31.25,-194.708,-31.377
31.29,-192.848,-30.815
31.32,-190.637,-30.563
31.35,-188.531,-30.644
31.38,-186.32,-30.151
31.42,-183.759,-29.899
31.45,-181.653,-29.865
31.48,-179.617,-29.235
31.51,-177.126,-28.879
31.55,-174.879,-28.765
31.58,-172.493,-28.249
31.61,-169.931,-27.952
31.64,-167.825,-27.631
31.68,-165.404,-27.104
31.71,-162.315,-26.462
31.74,-159.578,-26.073
31.77,-157.332,-25.638
31.81,-154.735,-25.133
31.84,-151.682,-24.744
31.87,-148.769,-24.389
31.9,-146.136,-23.976
31.94,-143.224,-23.392
31.97,-140.1,-22.785
32.0,-136.977,-22.247
32.03,-133.888,-21.708
32.07,-130.94,-21.17
32.1,-128.168,-20.62
32.13,-124.974,-20.013
32.16,-121.535,-19.486
32.2,-118.411,-18.925
32.23,-115.253,-18.26
32.26,-111.884,-17.653
32.29,-108.479,-17.16
32.33,-105.251,-16.599
32.36,-102.022,-15.98
32.39,-98.653,-15.396
32.42,-94.933,-14.801
32.46,-91.388,-14.102
32.49,-87.843,-13.414
32.52,-84.264,-12.865
32.55,-80.649,-12.235
32.59,-77.385,-11.639
32.62,-74.261,-11.169
32.65,-70.998,-10.573
32.69,-67.313,-9.955
32.72,-63.698,-9.668
32.75,-60.399,-9.268
32.78,-57.31,-8.741
32.82,-54.082,-8.328
32.85,-50.783,-7.859
32.88,-47.238,-7.412
32.91,-44.22,-7.091
32.95,-40.71,-6.564
32.98,-37.306,-5.98
33.01,-36.674,-4.96
33.04,-42.535,-2.085
33.08,-41.026,1.81
33.11,-27.971,1.283
33.14,-26.111,-0.103
33.17,-25.339,0.722
33.21,-17.302,1.42
33.24,-6.703,1.398
33.27,1.404,0.916
33.3,6.668,0.768
33.34,12.108,0.916
33.37,17.723,0.802
33.4,20.285,0.126
33.43,14.494,0.928
33.47,14.389,2.807
33.5,20.636,2.669
33.53,24.847,1.695
33.56,27.094,1.111
33.6,28.532,1.294
33.63,31.27,2.268
33.66,35.657,3.322
33.69,40.57,3.861
33.73,44.29,4.021
33.76,46.606,4.502
33.79,48.888,5.315
33.82,52.081,5.991
33.86,55.626,6.564
33.89,59.206,6.942
33.92,62.119,7.194
33.95,64.961,7.721
33.99,68.33,8.385
34.02,71.875,8.878
34.05,75.279,9.313
34.08,78.543,9.772
34.12,81.702,10.31
34.15,84.755,10.837
34.18,87.703,11.341
34.22,90.826,11.948
34.25,94.02,12.441
34.28,96.968,12.773
34.31,99.916,13.231
34.35,103.075,13.735
34.38,106.058,14.171
34.41,109.251,14.709
34.44,112.515,15.316
34.48,115.569,15.763
34.51,118.376,16.278
34.54,121.359,16.782
34.57,124.413,17.286
34.61,127.361,17.779
34.64,130.344,18.432
34.67,133.537,18.982
34.7,136.696,19.589
34.74,139.784,20.162
34.77,142.838,20.631
34.8,145.856,21.227
34.83,148.769,21.72
34.87,151.436,22.109
34.9,154.243,22.705
34.93,157.297,23.209
34.96,160.21,23.541
35.0,162.877,24.011
35.03,165.755,24.538
35.06,168.773,24.927
35.09,171.545,25.363
35.13,174.213,25.935
35.16,176.985,26.508
35.19,179.933,27.035
35.22,182.846,27.493
35.26,185.268,27.883
35.29,187.514,28.261
35.32,189.795,28.639
35.35,192.357,28.937
35.39,194.708,29.166
35.42,196.919,29.487
35.45,199.2,29.762
35.48,201.411,29.979
35.52,203.447,30.22
35.55,205.412,30.392
35.58,207.062,30.506
35.61,208.852,30.804
35.65,210.887,31.113
35.68,212.817,31.262
35.71,214.502,31.503
35.75,216.432,31.904
35.78,218.362,32.156
35.81,219.872,32.293
35.84,221.451,32.648
35.88,223.346,32.946
35.91,225.206,33.21
35.94,226.961,33.553
35.97,228.716,33.863
36.01,230.47,34.206
36.04,232.155,34.619
36.07,233.559,34.756
36.1,235.349,35.191
36.14,237.068,35.512
36.17,238.332,35.73
36.2,239.981,36.085
36.23,241.841,36.394
36.27,243.14,36.578
36.3,244.473,36.979
36.33,245.947,37.288
36.36,247.211,37.46
36.4,248.65,37.918
36.43,250.51,38.262
36.46,252.019,38.433
36.49,253.352,38.869
36.53,254.861,39.327
36.56,256.23,39.556
36.59,257.143,39.808
36.62,258.687,40.014
36.66,260.02,40.106
36.69,260.828,40.415
36.72,262.161,40.782
36.75,263.495,40.931
36.79,264.513,41.206
36.82,265.776,41.481
36.85,266.829,41.675
36.88,267.847,41.95
36.92,269.075,42.111
36.95,270.093,42.34
36.98,271.146,42.718
37.01,272.444,43.038
37.05,273.357,43.268
37.08,274.199,43.439
37.11,274.936,43.623
37.15,275.743,43.726
37.18,276.34,43.806
37.21,277.042,43.978
37.24,277.989,44.173
37.28,278.726,44.253
37.31,279.323,44.39
37.34,279.884,44.459
37.37,280.095,44.551
37.41,280.586,44.826
37.44,280.832,44.551
37.47,280.902,44.562
37.5,281.639,44.883
37.54,282.236,44.929
37.57,282.13,44.963
37.6,282.236,45.02
37.63,282.306,44.94
37.67,282.025,44.722
37.7,281.674,44.425
37.73,281.323,44.23
37.76,281.148,44.138
37.8,280.902,43.921
37.83,280.13,43.634
37.86,279.007,43.52
37.89,278.551,43.348
37.93,277.884,43.061
37.96,276.761,42.821
37.99,275.989,42.66
38.02,275.497,42.512
38.06,274.655,42.248
38.09,273.567,42.007
38.12,272.198,41.801
38.15,270.865,41.629
38.19,269.601,41.343
38.22,268.478,40.999
38.25,267.426,40.69
38.28,266.302,40.427
38.32,264.899,40.14
38.35,263.249,39.98
38.38,262.021,39.831
38.41,260.547,39.499
38.45,258.617,39.281
38.48,257.178,39.155
38.51,256.02,38.903
38.54,254.265,38.559
38.58,252.51,38.33
38.61,251.036,38.158
38.64,249.492,37.883
38.68,247.632,37.666
38.71,246.017,37.471
38.74,244.438,37.219
38.77,242.964,37.013
38.81,241.104,36.692
38.84,239.139,36.6
38.87,237.489,36.578
38.9,235.594,36.268
38.94,233.488,35.97
38.97,231.804,35.844
39.0,230.26,35.466
39.03,228.014,35.077
39.07,226.013,34.974
39.1,224.153,34.768
39.13,222.258,34.584
39.16,220.714,34.527
39.2,219.099,34.241
39.23,216.818,33.977
39.26,214.818,33.874
39.29,213.063,33.702
39.33,211.168,33.485
39.36,209.167,33.244
39.39,207.237,32.992
39.42,205.272,32.74
39.46,202.956,32.454
39.49,200.92,32.167
39.52,199.236,31.972
39.55,197.06,31.629
39.59,194.673,31.297
39.62,192.813,31.365
39.65,191.058,31.159
39.68,188.602,30.689
39.72,186.356,30.609
39.75,184.566,30.277
39.78,182.039,29.647
39.81,179.477,29.464
39.85,177.301,29.223
39.88,175.23,28.742
39.91,173.055,28.375
39.94,170.493,27.826
39.98,167.72,27.367
40.01,165.053,27.127
40.04,162.561,26.6
40.07,159.718,26.13
40.11,157.227,25.878
40.14,154.77,25.271
40.17,151.857,24.733
40.21,148.874,24.354
40.24,146.031,23.965
40.27,142.978,23.392
40.3,140.03,22.934
40.34,137.222,22.373
40.37,134.485,21.834
40.4,131.677,21.365
40.43,128.659,20.803
40.47,125.676,20.334
40.5,122.588,19.795
40.53,119.148,19.188
40.56,115.674,18.65
40.6,112.445,18.1
40.63,109.532,17.527
40.66,106.374,16.92
40.69,102.864,16.324
40.73,99.46,15.82
40.76,96.091,15.259
40.79,92.546,14.606
40.82,88.791,13.918
40.86,85.211,13.266
40.89,81.631,12.452
40.92,77.841,11.627
40.95,74.016,11.02
40.99,70.436,10.47
41.02,66.997,9.863
41.05,63.733,9.348
41.08,60.223,8.798
41.12,56.644,8.328
41.15,53.415,7.973
41.18,50.291,7.538
41.21,46.922,7.08
41.25,43.518,6.782
41.28,40.219,6.392
41.31,36.955,5.957
41.34,35.446,5.178
41.38,38.885,3.276
41.41,41.623,-0.573
41.44,31.551,-1.764
41.47,24.918,-0.241
41.51,24.567,-0.458
41.54,18.214,-1.249
41.57,8.423,-1.409
41.61,-0.912,-1.134
41.64,-7.265,-0.836
41.67,-12.529,-0.813
41.7,-17.548,-0.79
41.74,-20.671,-0.229
41.77,-15.968,-0.928
41.8,-15.582,-2.658
41.83,-21.127,-2.635
41.87,-25.304,-1.741
41.9,-27.444,-1.18
41.93,-28.708,-1.317
41.96,-31.41,-2.268
42.0,-35.902,-3.414
42.03,-41.132,-4.009
42.06,-45.027,-4.181
42.09,-47.484,-4.662
42.13,-49.8,-5.361
42.16,-52.818,-6.06
42.19,-56.468,-6.621
42.22,-59.908,-6.782
42.26,-62.61,-6.931
42.29,-65.137,-7.423
42.32,-68.295,-8.042
42.35,-71.84,-8.489
42.39,-75.314,-8.844
42.42,-78.333,-9.302
42.45,-81.351,-9.852
42.48,-84.474,-10.39
42.52,-87.668,-11.009
42.55,-91.107,-11.639
42.58,-94.266,-12.12
42.61,-97.284,-12.624
42.65,-100.372,-13.174
42.68,-103.566,-13.666
42.71,-106.654,-14.09
42.74,-109.462,-14.549
42.78,-112.199,-15.098
42.81,-115.218,-15.66
42.84,-118.376,-16.141
42.87,-121.429,-16.542
42.91,-124.237,-16.931
42.94,-127.22,-17.596
42.97,-130.484,-18.146
43.0,-133.678,-18.707
43.04,-136.661,-19.303
43.07,-139.468,-19.784
43.1,-142.381,-20.322
43.14,-145.224,-20.712
43.17,-147.61,-20.952
43.2,-150.278,-21.388
43.23,-153.226,-21.846
43.27,-156.139,-22.201
43.3,-158.736,-22.659
43.33,-161.473,-23.255
43.36,-164.421,-23.793
43.4,-167.58,-24.412
43.43,-170.738,-24.985
43.46,-173.476,-25.523
43.49,-176.459,-26.336
43.53,-179.933,-27.092
43.56,-182.986,-27.551
43.59,-185.759,-28.135
43.62,-188.496,-28.639
43.66,-191.023,-28.914
43.69,-193.199,-29.303
43.72,-195.48,-29.75
43.75,-197.937,-30.094
43.79,-200.429,-30.334
43.82,-202.605,-30.449
43.85,-204.43,-30.586
43.88,-206.255,-30.804
43.92,-208.22,-30.919
43.95,-210.255,-30.93
43.98,-211.905,-31.056
44.01,-213.203,-31.274
44.05,-215.028,-31.56
44.08,-217.239,-31.835
44.11,-218.994,-31.984
44.14,-220.468,-32.144
44.18,-221.977,-32.454
44.21,-223.697,-32.751
44.24,-225.417,-33.084
44.27,-227.206,-33.244
44.31,-228.716,-33.553
44.34,-230.4,-34.103
44.37,-232.295,-34.412
44.4,-233.839,-34.504
44.44,-235.278,-34.894
44.47,-236.787,-35.329
44.5,-238.367,-35.466
44.53,-240.157,-35.684
44.57,-241.595,-35.925
44.6,-242.824,-36.2
44.63,-244.438,-36.589
44.67,-245.702,-36.875
44.7,-246.79,-37.196
44.73,-248.439,-37.643
44.76,-250.404,-37.929
44.8,-251.703,-38.181
44.83,-252.931,-38.674
44.86,-254.546,-39.063
44.89,-255.844,-39.258
44.93,-256.862,-39.533
44.96,-258.02,-39.842
44.99,-259.459,-40.094
45.02,-260.968,-40.255
45.06,-262.056,-40.53
45.09,-262.828,-40.747
45.12,-263.846,-40.954
45.15,-265.179,-41.171
45.19,-266.338,-41.4
45.22,-267.355,-41.71
45.25,-268.478,-42.042
45.28,-269.777,-42.282
45.32,-270.9,-42.592
45.35,-272.023,-43.038
45.38,-273.006,-43.187
45.41,-273.778,-43.439
45.45,-274.901,-43.68
45.48,-275.778,-43.886
45.51,-276.129,-43.863
45.54,-276.761,-44.012
45.58,-277.989,-44.299
45.61,-278.867,-44.367
45.64,-278.796,-44.344
45.67,-279.288,-44.528
45.71,-280.235,-44.608
45.74,-280.516,-44.505
45.77,-280.551,-44.505
45.8,-281.078,-44.642
45.84,-281.709,-44.803
45.87,-281.92,-44.848
45.9,-282.06,-44.848
45.93,-282.376,-44.894
45.97,-282.552,-44.768
46.0,-282.13,-44.619
46.03,-281.499,-44.505
46.07,-281.358,-44.516
46.1,-281.569,-44.436
46.13,-281.042,-44.264
46.16,-280.305,-44.161
46.2,-279.955,-43.966
46.23,-279.498,-43.588
46.26,-278.481,-43.256
46.29,-277.428,-42.947
46.33,-276.585,-42.66
46.36,-275.568,-42.557
46.39,-274.725,-42.408
46.42,-273.602,-42.134
46.46,-272.304,-41.87
46.49,-271.075,-41.595
46.52,-269.707,-41.251
46.55,-268.338,-40.873
46.59,-267.11,-40.633
46.62,-266.127,-40.381
46.65,-264.548,-40.129
46.68,-262.968,-40.003
46.72,-262.126,-39.705
46.75,-260.687,-39.235
46.78,-258.617,-39.018
46.81,-256.967,-38.926
46.85,-255.704,-38.766
46.88,-254.37,-38.536
46.91,-252.861,-38.342
46.94,-251.247,-38.158
46.98,-249.527,-37.906
47.01,-247.772,-37.54
47.04,-245.667,-37.242
47.07,-243.701,-37.07
47.11,-242.297,-36.864
47.14,-240.648,-36.486
47.17,-238.542,-36.211
47.2,-236.717,-36.177
47.24,-235.138,-36.039
47.27,-233.278,-35.741
47.3,-231.242,-35.501
47.33,-229.628,-35.329
47.37,-228.154,-35.043
47.4,-226.013,-34.756
47.43,-223.978,-34.607
47.46,-222.118,-34.493
47.5,-220.258,-34.286
47.53,-218.362,-34.034
47.56,-216.467,-33.863
47.6,-214.713,-33.668
47.63,-212.677,-33.462
47.66,-210.641,-33.359
47.69,-208.746,-33.152
47.73,-206.921,-32.9
47.76,-204.991,-32.534
47.79,-202.464,-32.144
47.82,-200.113,-32.007
47.86,-198.428,-31.812
47.89,-196.533,-31.308
47.92,-194.287,-31.148
47.95,-192.252,-31.067
47.99,-190.076,-30.747
48.02,-187.935,-30.518
48.05,-186.005,-30.357
48.08,-183.618,-29.681
48.12,-181.337,-29.544
48.15,-179.477,-29.452
48.18,-177.266,-28.96
48.21,-174.634,-28.593
48.25,-172.388,-28.41
48.28,-170.212,-27.848
48.31,-167.404,-27.402
48.34,-164.456,-26.921
48.38,-161.684,-26.531
48.41,-159.543,-26.13
48.44,-157.332,-25.638
48.47,-154.349,-24.881
48.51,-151.12,-24.469
48.54,-148.137,-24.183
48.57,-145.575,-23.759
48.6,-142.978,-23.255
48.64,-139.819,-22.59
48.67,-136.731,-22.121
48.7,-133.958,-21.754
48.73,-131.186,-21.17
48.77,-128.168,-20.643
48.8,-125.114,-20.219
48.83,-122.131,-19.692
48.86,-118.938,-19.131
48.9,-115.674,-18.592
48.93,-112.48,-18.008
48.96,-109.322,-17.47
48.99,-106.058,-16.851
49.03,-102.583,-16.175
49.06,-99.004,-15.637
49.09,-95.564,-14.984
49.13,-91.985,-14.148
49.16,-88.264,-13.403
49.19,-84.65,-12.75
49.22,-81.07,-11.994
49.26,-77.42,-11.421
49.29,-74.191,-10.94
49.32,-70.787,-10.253
49.35,-67.137,-9.749
49.39,-63.663,-9.428
49.42,-60.329,-8.924
49.45,-57.065,-8.557
49.48,-53.941,-8.145
49.52,-50.572,-7.606
49.55,-47.063,-7.206
49.58,-43.799,-6.942
49.61,-40.465,-6.381
49.65,-36.955,-5.934
49.68,-35.411,-5.212
49.71,-39.342,-3.116
49.74,-41.974,0.951
49.78,-30.463,1.753
49.81,-25.058,0.08
49.84,-24.953,0.538
49.87,-18.25,1.249
49.91,-8.458,1.42
49.94,0.948,1.123
49.97,7.159,0.848
50.0,12.74,0.813
50.04,17.723,0.848
50.07,21.794,0.241
50.1,16.986,0.561
50.13,14.214,2.784
50.17,20.636,3.265
50.2,25.83,2.177
50.23,28.392,1.26
50.26,29.269,1.18
50.3,31.48,2.177
50.33,35.551,3.437
50.36,40.64,4.032
50.39,44.431,4.284
50.43,46.922,4.731
50.46,49.028,5.361
50.49,52.116,6.026
50.53,55.731,6.564
50.56,59.381,6.805
50.59,62.434,7.011
50.62,65.207,7.515
50.66,68.365,8.214
50.69,71.98,8.786
50.72,75.56,9.256
50.75,78.683,9.726
50.79,81.737,10.299
50.82,84.79,10.871
50.85,87.984,11.398
50.88,91.142,11.834
50.92,94.02,12.257
50.95,96.933,12.739
50.98,99.916,13.231
51.01,103.18,13.644
51.05,106.268,14.022
51.08,109.111,14.526
51.11,112.129,15.11
51.14,115.147,15.648
51.18,118.236,16.129
51.21,121.219,16.714
51.24,124.237,17.286
51.27,127.466,17.848
51.31,130.589,18.34
51.34,133.958,19.051
51.37,137.222,19.681
51.4,140.17,20.093
51.44,143.153,20.723
51.47,146.172,21.193
51.5,149.12,21.766
51.53,151.857,22.155
51.57,154.665,22.648
51.6,157.858,23.266
51.63,160.876,23.633
51.66,163.333,23.999
51.7,166.0,24.595
51.73,169.054,25.088
51.76,171.826,25.34
51.79,174.493,25.832
51.83,177.406,26.451
51.86,180.144,26.806
51.89,182.881,27.356
51.92,185.759,27.917
51.96,188.145,28.089
51.99,190.286,28.421
52.02,192.673,28.879
52.06,194.778,29.005
52.09,196.919,29.338
52.12,199.411,29.693
52.15,201.622,29.716
52.19,203.342,29.945
52.22,205.096,30.197
52.25,206.992,30.288
52.28,208.922,30.575
52.32,210.957,30.815
52.35,212.747,30.93
52.38,214.572,31.262
52.41,216.502,31.594
52.45,218.187,31.755
52.48,219.521,31.972
52.51,221.17,32.305
52.54,223.1,32.545
52.58,224.96,32.82
52.61,226.434,33.061
52.64,227.979,33.416
52.67,230.19,34.103
52.71,232.33,34.332
52.74,233.769,34.493
52.77,234.927,34.974
52.8,236.577,35.352
52.84,238.437,35.707
52.87,240.402,36.165
52.9,241.736,36.28
52.93,242.894,36.6
52.97,244.859,37.082
53.0,246.333,36.979
53.03,246.79,37.162
53.06,248.334,37.849
53.1,250.72,38.044
53.13,252.019,38.193
53.16,253.352,38.788
53.19,255.037,39.155
53.23,256.195,39.338
53.26,257.423,39.625
53.29,258.792,39.808
53.32,259.95,39.877
53.36,261.038,40.152
53.39,262.196,40.484
53.42,263.109,40.782
53.46,264.197,41.103
53.49,265.53,41.389
53.52,266.724,41.572
53.55,268.022,41.744
53.59,269.005,41.985
53.62,269.917,42.282
53.65,271.075,42.569
53.68,272.339,42.809
53.72,273.427,42.993
53.75,274.304,43.187
53.78,275.006,43.359
53.81,275.673,43.508
53.85,276.199,43.588
53.88,276.866,43.783
53.91,277.814,43.966
53.94,278.726,44.047
53.98,279.182,44.161
54.01,279.639,44.264
54.04,280.235,44.344
54.07,280.762,44.574
54.11,280.902,44.425
54.14,281.253,44.425
54.17,281.92,44.654
54.2,282.516,44.86
54.24,282.411,44.734
54.27,282.411,44.722
54.3,282.657,44.493
54.33,282.306,44.379
54.37,281.499,44.253
54.4,281.078,44.092
54.43,281.113,44.081
54.46,280.902,43.932
54.5,280.2,43.691
54.53,279.393,43.474
54.56,278.831,43.268
54.59,278.094,43.016
54.63,277.007,42.752
54.66,276.199,42.58
54.69,275.743,42.42
54.72,274.866,42.134
54.76,273.848,41.836
54.79,272.549,41.584
54.82,271.111,41.366
54.85,270.023,41.125
54.89,268.97,40.724
54.92,267.566,40.358
54.95,266.092,40.198
54.99,264.899,40.014
55.02,263.53,39.785
55.05,262.056,39.579
55.08,260.617,39.304
55.12,259.038,39.029
55.15,257.353,38.8
55.18,255.949,38.64
55.21,254.37,38.456
55.25,252.756,38.216
55.28,251.282,38.044
55.31,249.843,37.883
55.34,247.807,37.425
55.38,245.631,37.253
55.41,244.403,37.311
55.44,242.824,36.83
55.47,240.437,36.463
55.51,239.174,36.635
55.54,237.981,36.188
55.57,235.419,35.695
55.6,232.962,35.718
55.64,231.593,35.478
55.67,230.049,35.088
55.7,228.084,34.917
55.73,226.048,34.687
55.77,224.118,34.561
55.8,222.433,34.481
55.83,220.503,34.195
55.86,218.327,33.782
55.9,216.537,33.656
55.93,214.642,33.439
55.96,212.537,33.301
55.99,210.606,33.255
56.03,209.027,33.015
56.06,207.588,32.866
56.09,205.588,32.66
56.12,203.096,32.19
56.16,200.885,32.247
56.19,199.376,32.179
56.22,197.13,31.48
56.25,194.849,31.537
56.29,193.48,31.514
56.32,191.304,30.77
56.35,188.847,30.747
56.38,186.952,30.609
56.42,184.355,29.83
56.45,181.793,29.75
56.48,179.863,29.544
56.52,177.441,28.879
56.55,175.195,28.845
56.58,173.09,28.524
56.61,170.317,27.768
56.65,167.685,27.677
56.68,165.369,27.218
56.71,162.631,26.371
56.74,159.789,26.13
56.78,157.437,25.741
56.81,154.91,25.099
56.84,151.892,24.79
56.87,148.979,24.32
56.91,145.961,23.828
56.94,142.978,23.495
56.97,140.276,23.014
57.0,137.503,22.258
57.04,134.836,21.766
57.07,131.958,21.158
57.1,128.659,20.586
57.13,125.29,20.242
57.17,122.131,19.749
57.2,119.008,19.188
57.23,115.709,18.604
57.26,112.34,17.962
57.3,109.111,17.47
57.33,105.988,16.897
57.36,102.618,16.187
57.39,99.214,15.614
57.43,95.845,14.984
57.46,92.16,14.216
57.49,88.194,13.621
57.52,84.65,13.082
57.56,81.105,12.338
57.59,77.35,11.65
57.62,73.77,11.112
57.65,70.366,10.482
57.69,66.856,9.886
57.72,63.557,9.416
57.75,60.118,8.844
57.78,56.573,8.363
57.82,53.169,8.042
57.85,50.046,7.675
57.88,46.782,7.16
57.92,43.588,6.759
57.95,40.184,6.415
57.98,36.85,6.049
58.01,35.762,5.281
58.05,40.254,3.127
58.08,42.606,-0.825
58.11,31.902,-1.684
58.14,26.041,-0.195
58.18,25.725,-0.458
58.21,19.688,-1.226
58.24,9.756,-1.443
58.27,0.281,-1.134
58.31,-5.931,-0.79
58.34,-10.844,-0.779
58.37,-16.249,-0.882
58.4,-20.25,-0.321
58.44,-15.793,-0.928
58.47,-15.407,-2.577
58.5,-20.917,-2.692
58.53,-25.444,-1.97
58.57,-28.146,-1.398
58.6,-29.515,-1.501
58.63,-31.937,-2.314
58.66,-36.043,-3.425
58.7,-40.921,-4.067
58.73,-44.325,-4.25
58.76,-46.396,-4.571
58.79,-48.642,-5.35
58.83,-51.976,-5.98
58.86,-55.626,-6.243
58.89,-58.855,-6.507
58.92,-61.943,-6.896
58.96,-64.926,-7.366
58.99,-68.225,-8.007
59.02,-71.945,-8.603
59.05,-75.525,-9.073
59.09,-78.683,-9.554
59.12,-81.561,-10.173
59.15,-84.825,-10.894
59.18,-88.194,-11.387
59.22,-91.212,-11.788
59.25,-94.16,-12.315
59.28,-97.038,-12.727
59.31,-100.092,-13.22
59.35,-103.426,-13.724
59.38,-106.549,-13.987
59.41,-109.357,-14.354
59.45,-112.305,-15.041
59.48,-115.358,-15.545
59.51,-118.481,-15.992
59.54,-121.64,-16.656
59.58,-124.588,-17.08
59.61,-127.431,-17.619
59.64,-130.695,-18.317
59.67,-134.064,-18.89
59.71,-137.187,-19.394
59.74,-140.03,-19.978
59.77,-142.627,-20.288
59.8,-145.399,-20.78
59.84,-148.383,-21.273
59.87,-151.26,-21.651
59.9,-153.682,-21.995
59.93,-156.384,-22.728
59.97,-159.859,-23.392
60.0,-163.017,-23.61
60.03,-165.579,-24.206
60.06,-168.562,-24.996
60.1,-171.581,-25.351
60.13,-174.458,-25.958
60.16,-177.687,-26.795
60.19,-180.705,-27.138
60.23,-183.478,-27.654
60.26,-186.356,-28.398
60.29,-188.812,-28.593
60.32,-191.058,-28.948
60.36,-193.655,-29.475
60.39,-195.796,-29.429
60.42,-197.586,-29.601
60.45,-199.867,-30.002
60.49,-201.973,-29.968
60.52,-203.728,-30.071
60.55,-205.693,-30.426
60.58,-207.623,-30.437
60.62,-209.378,-30.609
60.65,-211.378,-30.999
60.68,-213.309,-31.182
60.71,-214.888,-31.457
60.75,-216.748,-31.904
60.78,-218.608,-32.064
60.81,-220.433,-32.385
60.84,-222.223,-32.694
60.88,-223.592,-32.751
60.91,-225.066,-33.141
60.94,-227.242,-33.565
60.98,-229.102,-33.691
61.01,-230.4,-34.069
61.04,-232.05,-34.47
61.07,-233.734,-34.676
61.11,-235.313,-34.974
61.14,-236.752,-35.306
61.17,-238.261,-35.512
61.2,-240.016,-35.89
61.24,-241.736,-36.314
61.27,-242.964,-36.52
61.3,-244.368,-36.887
61.33,-246.053,-37.311
61.37,-247.176,-37.494
61.4,-248.544,-37.803
61.43,-250.369,-38.158
61.46,-251.703,-38.422
61.5,-252.966,-38.811
61.53,-254.405,-39.235
61.56,-255.984,-39.441
61.59,-257.213,-39.613
61.63,-258.371,-39.854
61.66,-259.354,-40.094
61.69,-260.582,-40.404
61.72,-262.021,-40.724
61.76,-263.214,-40.931
61.79,-264.337,-41.16
61.82,-265.495,-41.412
61.85,-266.689,-41.733
61.89,-267.812,-42.03
61.92,-268.864,-42.294
61.95,-270.128,-42.534
61.98,-271.321,-42.741
62.02,-272.234,-43.05
62.05,-273.146,-43.382
62.08,-273.988,-43.543
62.11,-274.725,-43.657
62.15,-275.462,-43.84
62.18,-276.129,-43.898
62.21,-276.691,-44.035
62.24,-277.708,-44.276
62.28,-278.621,-44.367
62.31,-279.042,-44.448
62.34,-279.358,-44.562
62.38,-279.674,-44.654
62.41,-279.779,-44.482
62.44,-280.376,-44.677
62.47,-281.148,-44.791
62.51,-281.113,-44.516
62.54,-281.183,-44.894
62.57,-281.85,-45.089
62.6,-281.885,-44.848
62.64,-281.429,-44.78
62.67,-281.534,-44.7
62.7,-281.429,-44.425
62.73,-280.727,-44.253
62.77,-280.446,-44.264
62.8,-280.446,-44.207
62.83,-279.99,-43.978
62.86,-279.147,-43.772
62.9,-278.516,-43.531
62.93,-277.919,-43.199
62.96,-276.726,-42.867
62.99,-275.603,-42.729
63.03,-275.111,-42.603
63.06,-274.409,-42.328
63.09,-273.076,-42.122
63.12,-272.023,-41.973
63.16,-270.9,-41.618
63.19,-269.531,-41.286
63.22,-268.268,-40.999
63.25,-267.039,-40.713
63.29,-265.636,-40.53
63.32,-264.513,-40.369
63.35,-263.144,-40.152
63.38,-261.565,-39.991
63.42,-260.442,-39.728
63.45,-259.108,-39.441
63.48,-257.213,-39.201
63.51,-255.634,-39.029
63.55,-254.51,-38.857
63.58,-252.826,-38.445
63.61,-250.72,-38.296
63.64,-249.352,-38.342
63.68,-247.842,-37.803
63.71,-245.667,-37.334
63.74,-244.122,-37.368
63.77,-242.473,-36.979
63.81,-240.227,-36.543
63.84,-238.507,-36.704
63.87,-237.454,-36.578
63.91,-235.664,-36.154
63.94,-233.629,-36.051
63.97,-231.874,-35.833
64.0,-230.084,-35.604
64.04,-228.4,-35.489
64.07,-226.294,-35.169
64.1,-224.223,-34.985
64.13,-222.855,-34.951
64.17,-221.205,-34.516
64.2,-218.748,-34.195
64.23,-216.818,-34.172
64.26,-215.204,-33.897
64.3,-213.098,-33.507
64.33,-210.817,-33.359
64.36,-208.817,-33.072
64.39,-206.676,-32.786
64.43,-204.781,-32.591
64.46,-202.85,-32.236
64.49,-200.148,-31.72
64.52,-197.832,-31.778
64.56,-196.428,-31.732
64.59,-194.989,-31.228
64.62,-192.883,-31.079
64.65,-190.602,-30.941
64.69,-188.461,-30.644
64.72,-186.531,-30.518
64.75,-184.145,-30.151
64.78,-181.337,-29.658
64.82,-179.301,-29.441
64.85,-177.406,-29.074
64.88,-174.774,-28.524
64.91,-172.037,-28.261
64.95,-169.791,-27.848
64.98,-167.439,-27.264
65.01,-164.737,-26.783
65.04,-161.684,-26.325
65.08,-158.701,-25.947
65.11,-156.735,-25.752
65.14,-154.279,-25.099
65.17,-150.769,-24.274
65.21,-147.33,-24.137
65.24,-144.873,-23.713
65.27,-142.802,-23.175
65.3,-139.925,-22.533
65.34,-136.731,-22.006
65.37,-133.818,-21.8
65.4,-131.432,-21.502
65.44,-128.624,-20.987
65.47,-125.43,-20.368
65.5,-122.096,-19.761
65.53,-118.622,-19.108
65.57,-115.112,-18.478
65.6,-111.743,-17.859
65.63,-108.479,-17.183
65.66,-105.321,-16.439
65.7,-101.636,-15.774
65.73,-97.951,-15.213
65.76,-94.476,-14.652
65.79,-91.142,-14.022
65.83,-87.598,-13.243
65.86,-83.878,-12.532
65.89,-80.333,-12.051
65.92,-76.964,-11.433
65.96,-73.454,-10.768
65.99,-70.19,-10.447
66.02,-66.856,-9.955
66.05,-63.277,-9.348
66.09,-59.943,-9.073
66.12,-56.854,-8.718
66.15,-53.52,-8.076
66.18,-50.432,-7.755
66.22,-47.203,-7.332
66.25,-43.729,-6.873
66.28,-40.289,-6.564
66.31,-37.236,-6.289
66.35,-35.657,-5.292
66.38,-39.938,-2.933
66.41,-42.149,1.088
66.44,-30.814,1.627
66.48,-25.83,0.103
66.51,-25.479,0.515
66.54,-18.951,1.26
66.57,-8.563,1.501
66.61,1.334,1.146
66.64,7.581,0.848
66.67,13.266,0.859
66.7,18.039,0.768
66.74,21.689,0.229
66.77,17.407,0.664
66.8,14.6,2.589
66.84,20.18,2.887
66.87,24.672,1.879
66.9,27.164,1.203
66.93,28.146,1.18
66.97,30.779,2.131
67.0,35.201,3.402
67.03,40.675,4.113
67.06,44.992,4.387
67.1,47.729,4.754
67.13,49.94,5.579
67.16,53.38,6.53
67.19,57.205,7.137
67.23,60.574,7.503
67.26,63.593,7.893
67.29,66.576,8.363
67.32,69.664,8.89
67.36,72.858,9.199
67.39,76.086,9.577
67.42,78.999,9.886
67.45,81.596,10.024
67.49,84.544,10.562
67.52,87.773,10.997
67.55,90.721,11.158
67.58,92.932,11.456
67.62,95.459,12.017
67.65,98.688,12.532
67.68,101.987,12.979
67.71,104.935,13.414
67.75,107.567,13.93
67.78,110.831,14.697
67.81,114.41,15.362
67.84,117.709,15.763
67.88,120.657,16.393
67.91,123.535,17.149
67.94,126.588,17.802
67.97,129.817,18.455
68.01,133.502,19.211
68.04,136.906,19.715
68.07,139.679,20.139
68.1,142.451,20.952
68.14,145.821,21.491
68.17,149.084,22.029
68.2,151.927,22.373
68.23,154.665,22.797
68.27,157.613,23.392
68.3,160.526,23.816
68.33,163.228,24.194
68.37,166.035,24.664
68.4,168.878,25.133
68.43,171.545,25.534
68.46,174.318,25.97
68.5,177.336,26.577
68.53,180.249,27.069
68.56,182.846,27.447
68.59,185.408,27.986
68.63,188.075,28.41
68.66,190.286,28.536
68.69,192.322,28.902
68.72,194.884,29.372
68.76,197.2,29.429
68.79,199.095,29.647
68.82,201.411,30.094
68.85,203.552,30.151
68.89,205.202,30.231
68.92,207.027,30.575
68.95,208.992,30.689
68.98,210.852,30.873
69.02,212.677,31.239
69.05,214.397,31.457
69.08,216.257,31.824
69.11,218.257,32.156
69.15,219.591,32.179
69.18,221.065,32.476
69.21,223.241,32.889
69.24,225.136,33.038
69.28,226.645,33.336
69.31,228.365,33.737
69.34,230.225,34.126
69.37,232.12,34.47
69.41,233.664,34.836
69.44,234.927,34.928
69.47,236.612,35.409
69.5,238.858,35.89
69.54,240.192,35.879
69.57,241.35,36.337
69.6,243.315,36.795
69.63,244.684,36.795
69.67,245.702,37.231
69.7,247.491,37.643
69.73,248.755,37.689
69.76,250.053,38.136
69.8,251.984,38.559
69.83,253.423,38.628
69.86,254.475,39.098
69.9,255.949,39.567
69.93,257.248,39.648
69.96,258.09,39.934
69.99,259.494,40.346
70.03,261.038,40.495
70.06,262.056,40.736
70.09,263.179,41.034
70.12,264.267,41.206
70.16,265.355,41.515
70.19,266.724,41.721
70.22,267.566,41.95
70.25,268.513,42.34
70.29,269.987,42.512
70.32,271.075,42.683
70.35,272.234,43.061
70.38,273.286,43.348
70.42,274.164,43.565
70.45,274.831,43.772
70.48,275.603,43.932
70.51,276.199,44.035
70.55,276.901,44.207
70.58,277.954,44.356
70.61,278.761,44.425
70.64,279.112,44.551
70.68,279.568,44.7
70.71,280.305,44.722
70.74,280.972,44.814
70.77,281.113,44.654
70.81,281.218,44.7
70.84,281.779,44.952
70.87,282.446,45.146
70.9,282.411,44.94
70.94,282.306,44.906
70.97,282.341,44.768
71.0,282.166,44.631
71.03,281.534,44.436
71.07,281.042,44.333
71.1,281.078,44.367
71.13,281.148,44.15
71.16,280.341,43.909
71.2,279.393,43.783
71.23,278.726,43.543
71.26,277.849,43.325
71.3,277.252,43.061
71.33,276.515,42.718
71.36,275.603,42.546
71.39,274.655,42.374
71.43,273.672,42.134
71.46,272.374,41.95
71.49,271.181,41.698
71.52,270.093,41.297
71.56,268.619,40.908
71.59,267.075,40.679
71.62,265.811,40.518
71.65,264.653,40.289
71.69,263.284,40.072
71.72,262.056,39.785
71.75,260.477,39.441
71.78,258.827,39.212
71.82,257.353,39.018
71.85,255.914,38.743
71.88,254.23,38.559
71.91,252.65,38.456
71.95,251.212,38.181
71.98,249.667,37.918
72.01,247.772,37.803
72.04,245.807,37.494
72.08,243.947,37.276
72.11,242.613,37.288
72.14,241.069,36.852
72.17,238.963,36.578
72.21,237.384,36.658
72.24,235.805,36.291
72.27,233.664,35.799
72.3,231.804,35.661
72.34,230.084,35.386
72.37,227.663,35.008
72.4,225.487,34.997
72.43,224.083,34.894
72.47,222.293,34.596
72.5,220.258,34.47
72.53,218.257,34.069
72.56,216.362,33.828
72.6,214.783,33.84
72.63,212.852,33.507
72.66,210.501,33.278
72.69,208.957,33.381
72.73,207.343,33.084
72.76,205.167,32.694
72.79,202.991,32.717
72.83,200.92,32.35
72.86,198.709,31.984
72.89,197.025,32.064
72.92,195.235,31.56
72.96,192.778,31.159
72.99,191.129,31.365
73.02,189.163,30.77
73.05,186.32,30.277
73.09,184.215,30.518
73.12,182.355,29.933
73.15,179.652,29.303
73.18,177.547,29.464
73.22,175.476,28.994
73.25,172.739,28.433
73.28,170.387,28.375
73.31,168.001,27.734
73.35,165.018,27.15
73.38,162.245,26.943
73.41,159.824,26.279
73.44,157.156,25.809
73.48,154.77,25.512
73.51,151.927,24.847
73.54,148.769,24.458
73.57,146.031,24.206
73.61,143.364,23.518
73.64,140.521,23.071
73.67,137.363,22.453
73.7,134.239,21.914
73.74,131.537,21.536
73.77,128.624,20.883
73.8,125.255,20.322
73.83,122.131,19.91
73.87,119.043,19.314
73.9,115.674,18.615
73.93,112.34,18.1
73.96,109.146,17.561
74.0,105.988,16.874
74.03,102.618,16.21
74.06,99.004,15.534
74.09,95.178,14.915
74.13,91.563,14.377
74.16,88.089,13.655
74.19,84.369,12.819
74.22,80.789,12.28
74.26,77.42,11.696
74.29,73.77,10.906
74.32,70.296,10.493
74.36,67.242,10.127
74.39,63.873,9.462
74.42,60.223,9.073
74.45,56.96,8.832
74.49,53.871,8.305
74.52,50.572,7.927
74.55,47.308,7.561
74.58,44.009,7.057
74.62,40.675,6.644
74.65,37.587,6.335
74.68,36.534,5.235
74.71,40.465,2.772
74.75,41.904,-0.974
74.78,31.34,-1.524
74.81,26.427,-0.16
74.84,25.549,-0.584
74.88,19.092,-1.226
74.91,9.16,-1.455
74.94,-0.421,-1.157
74.97,-6.703,-0.768
75.01,-11.441,-0.813
75.04,-16.951,-0.859
75.07,-20.215,-0.263
75.1,-15.547,-1.134
75.14,-15.968,-2.692
75.17,-21.443,-2.555
75.2,-25.584,-1.764
75.23,-27.655,-1.26
75.27,-28.954,-1.489
75.3,-31.516,-2.303
75.33,-35.622,-3.368
75.36,-40.289,-4.021
75.4,-44.044,-4.273
75.43,-46.571,-4.571
75.46,-48.817,-5.189
75.49,-51.976,-5.877
75.53,-55.731,-6.312
75.56,-59.171,-6.541
75.59,-62.048,-6.885
75.62,-65.031,-7.458
75.66,-68.471,-8.088
75.69,-71.84,-8.615
75.72,-75.069,-9.176
75.76,-78.227,-9.817
75.79,-81.456,-10.333
75.82,-84.755,-10.768
75.85,-88.019,-11.261
75.89,-91.002,-11.673
75.92,-93.845,-12.097
75.95,-96.793,-12.635
75.98,-99.706,-13.14
76.02,-102.794,-13.575
76.05,-105.952,-14.01
76.08,-108.9,-14.457
76.11,-111.708,-14.915
76.15,-114.656,-15.442
76.18,-117.92,-15.992
76.21,-121.043,-16.519
76.24,-124.062,-17.0
76.28,-127.045,-17.71
76.31,-130.133,-18.272
76.34,-133.362,-18.936
76.37,-136.836,-19.612
76.41,-139.714,-19.978
76.44,-142.241,-20.483
76.47,-145.399,-21.296
76.5,-148.734,-21.72
76.54,-151.471,-22.04
76.57,-154.349,-22.659
76.6,-157.648,-23.232
76.63,-160.806,-23.679
76.67,-163.754,-24.286
76.7,-166.527,-24.859
76.73,-169.194,-25.317
76.76,-172.142,-26.004
76.8,-175.195,-26.439
76.83,-177.827,-26.749
76.86,-180.916,-27.539
76.89,-184.215,-27.917
76.93,-186.707,-28.089
76.96,-189.198,-28.96
76.99,-192.111,-29.487
77.02,-194.603,-29.498
77.06,-196.849,-30.082
77.09,-199.306,-30.483
77.12,-201.482,-30.483
77.15,-203.763,-30.953
77.19,-206.57,-31.354
77.22,-209.027,-31.48
77.25,-211.133,-32.007
77.29,-213.414,-32.568
77.32,-215.59,-32.866
77.35,-217.871,-33.278
77.38,-220.117,-33.507
77.42,-221.837,-33.656
77.45,-223.486,-33.908
77.48,-225.171,-33.977
77.51,-226.891,-33.966
77.55,-228.68,-34.172
77.58,-229.944,-34.229
77.61,-230.962,-34.378
77.64,-232.681,-34.768
77.68,-234.471,-34.825
77.71,-235.594,-34.894
77.74,-237.033,-35.226
77.77,-238.577,-35.237
77.81,-239.876,-35.512
77.84,-241.49,-36.016
77.87,-242.894,-36.028
77.9,-243.842,-36.257
77.94,-245.526,-36.715
77.97,-247.246,-36.795
78.0,-248.123,-37.024
78.03,-249.387,-37.551
78.07,-251.001,-37.838
78.1,-252.58,-38.124
78.13,-254.019,-38.525
78.16,-255.247,-38.8
78.2,-256.406,-39.075
78.23,-257.739,-39.407
78.26,-258.792,-39.499
78.29,-259.529,-39.705
78.33,-260.863,-40.152
78.36,-262.337,-40.392
78.39,-263.214,-40.564
78.42,-264.372,-41.011
78.46,-266.057,-41.183
78.49,-266.934,-41.412
78.52,-267.812,-41.859
78.55,-268.935,-42.122
78.59,-269.987,-42.408
78.62,-271.181,-42.832
78.65,-272.585,-43.13
78.68,-273.848,-43.382
78.72,-274.725,-43.646
78.75,-275.638,-43.806
78.78,-276.375,-43.795
78.82,-276.691,-44.012
78.85,-277.463,-44.218
78.88,-278.375,-44.23
78.91,-279.182,-44.402
78.95,-279.779,-44.654
78.98,-280.235,-44.711
79.01,-280.586,-44.631
79.04,-280.727,-44.654
79.08,-280.902,-44.619
79.11,-281.007,-44.619
79.14,-281.429,-44.757
79.17,-282.025,-44.791
79.21,-282.236,-44.78
79.24,-282.095,-44.871
79.27,-282.13,-44.826
79.3,-282.411,-44.631
79.34,-280.972,-44.012
79.37,-275.322,-41.412
79.4,-268.584,-38.869
79.43,-266.302,-38.227
79.47,-266.373,-37.379
79.5,-262.793,-35.547
79.53,-257.88,-34.825
79.56,-257.072,-35.306
79.6,-257.915,-35.455
79.63,-255.809,-35.684
79.66,-254.475,-37.013
79.69,-257.388,-38.078
79.73,-259.705,-38.227
79.76,-259.248,-38.869
79.79,-259.424,-40.083
79.82,-260.091,-40.908
79.86,-260.336,-41.503
79.89,-260.512,-42.088
79.92,-260.793,-42.477
79.95,-260.687,-42.603
79.99,-260.091,-42.649
80.02,-259.494,-42.752
80.05,-259.178,-42.741
80.08,-258.336,-42.489
80.12,-256.967,-42.271
80.15,-256.125,-42.202
80.18,-255.458,-41.973
80.22,-254.124,-41.584
80.25,-252.896,-41.343
80.28,-251.913,-41.137
80.31,-250.404,-40.724
80.35,-248.895,-40.438
80.38,-247.807,-40.198
80.41,-246.263,-39.716
80.44,-244.438,-39.648
80.48,-243.456,-39.59
80.51,-242.017,-38.926
80.54,-240.367,-38.685
80.57,-239.244,-38.662
80.61,-237.279,-38.055
80.64,-234.892,-37.838
80.67,-233.629,-37.803
80.7,-232.225,-37.07
80.74,-229.803,-36.497
80.77,-227.452,-36.268
80.8,-225.768,-35.902
80.83,-224.223,-35.478
80.87,-221.837,-35.123
80.9,-219.45,-34.71
80.93,-217.555,-34.458
80.96,-215.8,-33.989
81.0,-213.239,-33.542
81.03,-210.922,-33.404
81.06,-209.062,-33.233
81.09,-207.132,-32.809
81.13,-204.956,-32.568
81.16,-202.675,-32.247
81.19,-200.288,-31.801
81.22,-198.393,-31.766
81.26,-196.638,-31.434
81.29,-193.761,-30.896
81.32,-191.479,-30.953
81.35,-189.655,-30.586
81.39,-187.128,-29.888
81.42,-184.846,-29.704
81.45,-182.706,-29.303
81.48,-180.038,-28.776
81.52,-177.722,-28.788
81.55,-175.722,-28.49
81.58,-173.265,-27.963
81.61,-170.563,-27.791
81.65,-168.106,-27.402
81.68,-165.579,-26.84
81.71,-162.772,-26.462
81.75,-159.929,-25.993
81.78,-157.332,-25.592
81.81,-154.91,-25.168
81.84,-152.243,-24.584
81.88,-149.33,-24.045
81.91,-146.242,-23.553
81.94,-143.048,-22.991
81.97,-139.819,-22.464
82.01,-136.836,-21.857
82.04,-133.572,-21.181
82.07,-130.203,-20.643
82.1,-127.185,-20.185
82.14,-124.413,-19.612
82.17,-121.465,-18.959
82.2,-117.99,-18.386
82.23,-114.656,-17.916
82.27,-111.462,-17.527
82.3,-108.339,-17.08
82.33,-105.145,-16.519
82.36,-101.881,-15.958
82.4,-98.547,-15.408
82.43,-95.108,-14.812
82.46,-91.563,-14.193
82.49,-88.159,-13.563
82.53,-84.615,-12.956
82.56,-81.175,-12.326
82.59,-77.806,-11.696
82.62,-74.367,-11.238
82.66,-71.208,-10.803
82.69,-67.909,-10.264
82.72,-64.47,-9.863
82.75,-61.171,-9.405
82.79,-57.697,-9.004
82.82,-54.327,-8.649
82.85,-51.169,-8.225
82.88,-48.08,-7.71
82.92,-45.027,-7.274
82.95,-41.447,-6.667
82.98,-37.833,-6.209
83.01,-36.534,-5.384
83.05,-41.939,-2.898
83.08,-43.202,1.42
83.11,-29.901,1.673
83.15,-26.041,-0.092
83.18,-26.111,0.596
83.21,-18.706,1.375
83.24,-8.142,1.466
83.28,1.018,1.02
83.31,6.493,0.756
83.34,11.897,0.871
83.37,17.477,0.882
83.41,21.198,0.172
83.44,15.933,0.802
83.47,14.565,2.795
83.5,20.776,2.875
83.54,25.198,1.787
83.57,27.339,1.077
83.6,28.357,1.191
83.63,30.708,2.051
83.67,34.569,3.127
83.7,39.482,3.861
83.73,43.694,4.147
83.76,46.642,4.422
83.8,48.677,5.029
83.83,51.66,5.819
83.86,55.345,6.495
83.89,58.995,6.885
83.93,61.873,7.183
83.96,64.61,7.79
83.99,67.979,8.5
84.02,71.664,9.05
84.06,74.893,9.371
84.09,78.227,9.909
84.12,81.631,10.459
84.15,84.685,10.78
84.19,87.457,11.249
84.22,90.37,11.811
84.25,93.529,12.315
84.28,96.582,12.681
84.32,99.39,13.162
84.35,102.267,13.655
84.38,105.602,14.308
84.41,109.041,14.823
84.45,112.094,15.236
84.48,114.902,15.763
84.51,117.99,16.393
84.54,121.114,16.828
84.58,123.991,17.229
84.61,126.799,17.745
84.64,129.852,18.26
84.68,132.87,18.787
84.71,136.064,19.474
84.74,139.398,20.059
84.77,142.627,20.62
84.81,145.715,21.204
84.84,148.488,21.674
84.87,151.085,22.189
84.9,154.068,22.831
84.94,157.227,23.266
84.97,160.034,23.621
85.0,162.772,24.148
85.03,165.579,24.629
85.07,168.457,25.019
85.1,171.335,25.534
85.13,174.072,26.016
85.16,176.88,26.52
85.2,179.828,27.058
85.23,182.565,27.459
85.26,185.022,27.814
85.29,187.408,28.272
85.33,189.83,28.593
85.36,191.936,28.834
85.39,194.217,29.257
85.42,196.814,29.532
85.46,199.165,29.624
85.49,201.201,29.876
85.52,203.166,30.174
85.55,205.026,30.266
85.59,206.711,30.483
85.62,208.43,30.815
85.65,210.536,31.102
85.68,212.642,31.274
85.72,214.291,31.571
85.75,216.257,32.007
85.78,218.398,32.316
85.81,220.187,32.385
85.85,221.591,32.648
85.88,223.135,33.038
85.91,225.241,33.404
85.94,227.242,33.611
85.98,228.68,33.897
86.01,230.26,34.378
86.04,232.295,34.802
86.07,233.945,34.871
86.11,235.489,35.272
86.14,237.384,35.741
86.17,239.034,35.821
86.21,240.157,36.074
86.24,241.595,36.612
86.27,243.385,36.944
86.3,245.0,37.036
86.34,246.123,37.185
86.37,247.141,37.54
86.4,248.72,38.01
86.43,250.65,38.25
86.47,252.159,38.445
86.5,253.247,38.892
86.53,254.967,39.258
86.56,256.406,39.441
86.6,257.248,39.671
86.63,258.441,39.957
86.66,259.845,40.152
86.69,261.073,40.392
86.73,262.302,40.633
86.76,263.354,40.793
86.79,264.442,41.034
86.82,265.636,41.32
86.86,266.653,41.595
86.89,267.741,41.813
86.92,268.689,42.053
86.95,269.882,42.328
86.99,271.075,42.489
87.02,271.988,42.901
87.05,273.146,43.279
87.08,274.023,43.428
87.12,274.831,43.68
87.15,275.813,43.886
87.18,276.691,43.921
87.21,277.217,43.978
87.25,278.059,44.367
87.28,279.007,44.436
87.31,279.007,44.218
87.34,279.323,44.551
87.38,280.2,44.505
87.41,280.481,44.493
87.44,280.621,44.654
87.47,281.148,44.608
87.51,281.569,44.745
87.54,282.095,44.894
87.57,282.166,44.848
87.61,282.06,44.848
87.64,281.85,44.745
87.67,281.709,44.596
87.7,281.569,44.31
87.74,281.042,44.15
87.77,280.832,44.195
87.8,280.797,44.081
87.83,280.305,43.863
87.87,279.533,43.703
87.9,278.972,43.462
87.93,278.094,43.153
87.96,277.042,42.924
88.0,276.024,42.832
88.03,275.392,42.729
88.06,274.725,42.523
88.09,273.988,42.214
88.13,272.865,41.801
88.16,271.251,41.492
88.19,269.777,41.251
88.22,268.408,40.954
88.26,267.075,40.759
88.29,266.022,40.553
88.32,264.758,40.255
88.35,263.354,40.003
88.39,261.951,39.785
88.42,260.442,39.522
88.45,258.757,39.293
88.48,257.423,39.132
88.52,256.3,38.857
88.55,254.335,38.502
88.58,252.229,38.422
88.61,251.001,38.376
88.65,249.738,38.032
88.68,247.913,37.746
88.71,246.053,37.505
88.74,244.228,37.219
88.78,242.648,37.059
88.81,240.999,36.841
88.84,239.209,36.6
88.87,237.595,36.474
88.91,235.945,36.303
88.94,234.015,35.97
88.97,232.05,35.81
89.0,230.26,35.661
89.04,228.575,35.329
89.07,226.364,35.031
89.1,224.469,34.905
89.14,222.784,34.687
89.17,220.714,34.493
89.2,218.433,34.08
89.23,216.537,33.863
89.27,215.063,33.782
89.3,213.203,33.473
89.33,210.922,33.278
89.36,208.957,33.324
89.4,207.343,33.233
89.43,205.553,32.877
89.46,203.236,32.568
89.49,200.99,32.373
89.53,199.095,32.213
89.56,197.34,31.858
89.59,195.2,31.526
89.62,193.129,31.423
89.66,191.164,31.205
89.69,188.988,30.85
89.72,186.917,30.644
89.75,184.636,30.277
89.79,182.004,29.865
89.82,179.898,29.681
89.85,178.003,29.315
89.88,175.757,28.788
89.92,173.335,28.467
89.95,170.808,27.963
89.98,168.036,27.482
90.01,165.439,27.15
90.05,162.701,26.565
90.08,159.859,26.164
90.11,157.156,25.752
90.14,154.489,25.133
90.18,151.997,24.79
90.21,149.26,24.263
90.24,146.207,23.816
90.27,143.118,23.369
90.31,140.381,22.957
90.34,137.679,22.419
90.37,134.801,21.88
90.4,131.747,21.422
90.44,128.624,20.861
90.47,125.571,20.334
90.5,122.552,19.726
90.53,119.183,19.096
90.57,115.779,18.489
90.6,112.34,17.905
90.63,108.971,17.378
90.67,105.707,16.828
90.7,102.338,16.106
90.73,98.793,15.408
90.76,95.143,14.801
90.8,91.563,14.09
90.83,87.914,13.369
90.86,84.369,12.807
90.89,80.789,12.212
90.93,77.35,11.57
90.96,74.016,11.135
90.99,70.717,10.642
91.02,67.418,10.104
91.06,64.224,9.714
91.09,60.89,9.233
91.12,57.486,8.741
91.15,54.082,8.466
91.19,50.923,8.088
91.22,47.449,7.606
91.25,44.15,7.194
91.28,40.605,6.679
91.32,37.411,6.083
91.35,36.815,4.937
91.38,41.798,2.188
91.41,40.921,-1.524
91.45,29.024,-1.283
91.48,26.743,0.057
91.51,25.76,-0.722
91.54,18.074,-1.34
91.58,8.212,-1.317
91.61,0.0,-1.008
91.64,-5.931,-0.813
91.67,-11.16,-0.894
91.71,-17.126,-0.825
91.74,-19.197,-0.183
91.77,-14.038,-1.26
91.8,-15.933,-2.635
91.84,-21.127,-2.222
91.87,-24.707,-1.455
91.9,-26.602,-1.111
91.93,-28.322,-1.466
91.97,-31.2,-2.303
92.0,-35.587,-3.23
92.03,-40.184,-3.757
92.07,-43.834,-4.021
92.1,-46.536,-4.399
92.13,-48.923,-5.063
92.16,-52.011,-5.785
92.2,-55.591,-6.323
92.23,-59.03,-6.621
92.26,-62.013,-6.965
92.29,-64.996,-7.492
92.33,-68.541,-7.985
92.36,-72.05,-8.397
92.39,-75.104,-8.924
92.42,-78.017,-9.588
92.46,-81.245,-10.195
92.49,-84.615,-10.711
92.52,-87.984,-11.158
92.55,-90.932,-11.536
92.59,-93.669,-11.983
92.62,-96.477,-12.567
92.65,-99.53,-13.094
92.68,-102.689,-13.529
92.72,-105.847,-13.918
92.75,-108.725,-14.377
92.78,-111.638,-14.892
92.81,-114.761,-15.419
92.85,-117.955,-15.912
92.88,-121.043,-16.45
92.91,-123.956,-16.931
92.94,-126.799,-17.63
92.98,-129.993,-18.26
93.01,-133.537,-18.925
93.04,-137.047,-19.474
93.07,-139.925,-19.875
93.11,-142.522,-20.494
93.14,-145.61,-21.124
93.17,-148.734,-21.571
93.2,-151.717,-22.086
93.24,-154.7,-22.636
93.27,-157.823,-23.14
93.3,-160.841,-23.713
93.33,-163.895,-24.309
93.37,-166.702,-24.744
93.4,-169.65,-25.248
93.43,-172.423,-25.786
93.46,-175.441,-26.348
93.5,-179.091,-27.23
93.53,-182.671,-27.78
93.56,-185.338,-28.135
93.6,-187.935,-28.857
93.63,-190.813,-29.429
93.66,-193.234,-29.532
93.69,-195.094,-29.739
93.73,-197.095,-30.014
93.76,-199.236,-30.14
93.79,-201.376,-30.22
93.82,-203.342,-30.185
93.86,-204.851,-30.105
93.89,-206.184,-30.117
93.92,-207.729,-30.105
93.95,-209.238,-30.082
93.99,-210.712,-30.094
94.02,-212.151,-30.117
94.05,-213.554,-30.334
94.08,-215.239,-30.609
94.12,-216.959,-30.827
94.15,-218.573,-31.113
94.18,-220.082,-31.48
94.21,-221.872,-31.824
94.25,-223.732,-32.236
94.28,-225.452,-32.534
94.31,-227.206,-33.049
94.34,-229.242,-33.691
94.38,-231.137,-34.08
94.41,-232.401,-34.218
94.44,-233.98,-34.768
94.47,-236.226,-35.306
94.51,-237.91,-35.363
94.54,-239.034,-35.73
94.57,-240.929,-36.28
94.6,-242.859,-36.555
94.64,-244.193,-36.887
94.67,-245.456,-37.299
94.7,-247.105,-37.597
94.73,-248.755,-37.895
94.77,-250.194,-38.147
94.8,-251.317,-38.514
94.83,-252.756,-38.96
94.86,-254.546,-39.27
94.9,-255.949,-39.464
94.93,-257.108,-39.774
94.96,-258.371,-40.083
94.99,-259.705,-40.22
95.03,-260.863,-40.381
95.06,-261.845,-40.702
95.09,-262.968,-40.976
95.13,-264.337,-41.103
95.16,-265.601,-41.332
95.19,-266.759,-41.755
95.22,-267.987,-42.088
95.26,-269.145,-42.248
95.29,-270.058,-42.477
95.32,-271.181,-42.798
95.35,-272.339,-42.947
95.39,-272.971,-43.279
95.42,-273.918,-43.588
95.45,-274.866,-43.68
95.48,-275.462,-43.909
95.52,-276.375,-43.966
95.55,-277.007,-43.989
95.58,-277.708,-44.253
95.61,-278.621,-44.356
95.65,-279.112,-44.413
95.68,-279.533,-44.493
95.71,-280.305,-44.677
95.74,-280.937,-44.768
95.78,-280.902,-44.493
95.81,-281.007,-44.7
95.84,-281.815,-44.711
95.87,-281.99,-44.688
95.91,-281.744,-44.78
95.94,-281.323,-44.413
95.97,-280.516,-43.806
96.0,-279.182,-43.302
96.04,-278.059,-42.981
96.07,-277.568,-42.638
96.1,-277.147,-42.431
96.13,-276.62,-42.34
96.17,-276.305,-42.282
96.2,-275.954,-42.317
96.23,-275.638,-42.5
96.26,-275.533,-42.672
96.3,-275.497,-42.832
96.33,-275.392,-43.05
96.36,-275.427,-43.222
96.39,-275.076,-43.336
96.43,-274.515,-43.405
96.46,-274.094,-43.325
96.49,-273.146,-43.096
96.53,-271.812,-42.878
96.56,-270.724,-42.626
96.59,-269.637,-42.351
96.62,-268.408,-42.053
96.66,-267.145,-41.629
96.69,-265.741,-41.217
96.72,-264.407,-40.747
96.75,-262.582,-40.22
96.79,-260.547,-39.865
96.82,-259.108,-39.567
96.85,-257.634,-39.178
96.88,-255.844,-38.846
96.92,-254.195,-38.525
96.95,-252.405,-38.124
96.98,-250.229,-37.803
97.01,-248.193,-37.609
97.05,-246.579,-37.185
97.08,-244.719,-36.807
97.11,-242.648,-36.681
97.14,-240.718,-36.44
97.18,-238.788,-36.096
97.21,-237.103,-35.97
97.24,-235.454,-35.718
97.27,-233.453,-35.329
97.31,-231.277,-35.157
97.34,-229.453,-35.077
97.37,-227.838,-34.917
97.4,-225.803,-34.687
97.44,-223.872,-34.504
97.47,-222.188,-34.367
97.5,-220.644,-33.989
97.53,-218.327,-33.633
97.57,-215.8,-33.565
97.6,-213.905,-33.507
97.63,-212.291,-33.267
97.66,-210.466,-32.981
97.7,-208.536,-32.74
97.73,-206.36,-32.58
97.76,-204.219,-32.442
97.79,-202.429,-32.224
97.83,-200.148,-31.778
97.86,-198.042,-31.709
97.89,-196.358,-31.594
97.92,-194.568,-31.297
97.96,-192.673,-31.193
97.99,-190.707,-31.01
98.02,-188.672,-30.735
98.06,-186.32,-30.472
98.09,-183.829,-30.117
98.12,-181.477,-29.727
98.15,-179.372,-29.338
98.19,-177.196,-28.857
98.22,-174.704,-28.513
98.25,-172.072,-28.226
98.28,-169.615,-27.837
98.32,-167.229,-27.505
98.35,-164.807,-27.012
98.38,-162.14,-26.382
98.41,-159.332,-25.97
98.45,-157.051,-25.741
98.48,-154.63,-25.191
98.51,-151.366,-24.446
98.54,-148.242,-24.16
98.58,-145.47,-23.713
98.61,-143.048,-23.369
98.64,-140.24,-22.797
98.67,-137.257,-22.27
98.71,-134.415,-22.04
98.74,-131.818,-21.536
98.77,-128.975,-20.987
98.8,-125.746,-20.471
98.84,-122.552,-19.967
98.87,-119.359,-19.36
98.9,-116.2,-18.65
98.93,-112.936,-17.985
98.97,-109.462,-17.367
99.0,-105.847,-16.748
99.03,-102.303,-16.095
99.06,-98.828,-15.442
99.1,-95.424,-14.755
99.13,-91.844,-13.964
99.16,-88.159,-13.277
99.19,-84.544,-12.647
99.23,-80.965,-11.983
99.26,-77.631,-11.433
99.29,-74.226,-10.894
99.32,-70.612,-10.299
99.36,-66.821,-9.966
99.39,-63.628,-9.646
99.42,-60.434,-9.016
99.45,-57.31,-8.557
99.49,-53.976,-8.088
99.52,-50.467,-7.561
99.55,-46.992,-7.297
99.59,-44.22,-6.988
99.62,-40.781,-6.323
99.65,-37.341,-5.877
99.68,-36.288,-4.972
99.72,-42.009,-2.177
99.75,-40.5,1.821
99.78,-27.48,1.249
99.81,-25.69,-0.069
99.85,-24.11,0.836
99.88,-16.074,1.329
99.91,-6.247,1.34
99.94,1.965,0.962
99.98,7.23,0.745
100.01,12.073,0.802
100.04,16.916,0.733
100.07,19.688,0.183
100.11,14.529,1.02
100.14,14.494,2.887
100.17,20.776,2.738
100.2,24.918,1.673
100.24,27.094,1.1
100.27,28.392,1.363
100.3,31.34,2.383
100.33,35.973,3.505
100.37,40.991,3.975
100.4,44.887,4.261
100.43,47.449,4.674
100.46,49.449,5.178
100.5,52.081,5.945
100.53,55.486,6.621
100.56,58.925,6.816
100.59,61.873,6.999
100.63,64.961,7.343
100.66,68.05,7.813
100.69,71.419,8.385
100.72,74.823,8.947
100.76,78.227,9.554
100.79,81.386,10.138
100.82,84.474,10.699
100.85,87.703,11.341
100.89,90.967,11.879
100.92,94.125,12.235
100.95,96.863,12.716
100.99,99.776,13.288
101.02,102.899,13.792
101.05,106.128,14.262
101.08,109.216,14.72
101.12,112.305,15.19
101.15,115.393,15.74
101.18,118.411,16.301
101.21,121.57,16.851
101.25,124.728,17.412
101.28,127.782,17.951
101.31,130.624,18.455
101.34,133.853,19.165
101.38,137.328,19.738
101.41,140.627,20.173
101.44,143.469,20.735
101.47,146.312,21.239
101.51,149.155,21.731
101.54,151.997,22.201
101.57,154.805,22.682
101.6,157.648,23.175
101.64,160.666,23.633
101.67,163.474,24.034
101.7,166.316,24.492
101.73,169.019,24.973
101.77,171.686,25.408
101.8,174.564,25.935
101.83,177.547,26.474
101.86,180.284,26.863
101.9,183.022,27.39
101.93,185.724,27.883
101.96,188.075,28.158
101.99,190.427,28.593
102.03,192.848,28.868
102.06,195.024,28.971
102.09,197.095,29.383
102.12,199.2,29.658
102.16,201.201,29.762
102.19,203.342,30.048
102.22,205.167,30.117
102.25,206.816,30.174
102.29,208.852,30.472
102.32,210.887,30.667
102.35,212.572,30.884
102.38,214.397,31.308
102.42,216.327,31.583
102.45,218.011,31.789
102.48,219.415,32.087
102.52,221.03,32.328
102.55,222.96,32.534
102.58,224.785,32.809
102.61,226.259,33.038
102.65,227.803,33.336
102.68,229.839,33.966
102.71,231.839,34.195
102.74,233.418,34.458
102.78,234.682,34.836
102.81,236.086,35.077
102.84,237.84,35.535
102.87,239.841,35.982
102.91,241.35,35.982
102.94,242.543,36.417
102.97,244.403,37.047
103.0,245.842,37.059
103.04,246.965,37.299
103.07,248.685,37.849
103.1,250.369,38.124
103.13,251.843,38.456
103.17,253.458,38.96
103.2,255.142,39.212
103.23,256.441,39.396
103.26,257.318,39.716
103.3,258.476,39.98
103.33,259.915,40.117
103.36,261.214,40.301
103.39,262.302,40.518
103.43,263.249,40.713
103.46,264.337,41.045
103.49,265.706,41.309
103.52,266.934,41.4
103.56,267.741,41.744
103.59,268.759,42.122
103.62,269.882,42.317
103.65,271.146,42.523
103.69,272.304,42.798
103.72,273.322,43.027
103.75,274.234,43.13
103.78,274.796,43.359
103.82,275.497,43.52
103.85,276.27,43.52
103.88,277.007,43.623
103.91,277.849,43.852
103.95,278.691,44.081
103.98,279.218,44.195
104.01,279.568,44.264
104.05,280.165,44.333
104.08,280.797,44.516
104.11,280.972,44.322
104.14,280.937,44.367
104.18,281.639,44.7
104.21,282.236,44.642
104.24,281.99,44.642
104.27,282.025,44.7
104.31,282.271,44.631
104.34,281.955,44.448
104.37,281.358,44.299
104.4,281.393,44.173
104.44,281.253,44.047
104.47,280.692,43.921
104.5,280.13,43.806
104.53,279.709,43.646
104.57,279.042,43.382
104.6,278.059,43.199
104.63,277.287,42.935
104.66,276.515,42.706
104.7,275.778,42.592
104.73,275.252,42.282
104.76,274.199,41.859
104.79,272.62,41.629
104.83,271.532,41.4
104.86,270.409,40.965
104.89,268.689,40.621
104.92,267.32,40.438
104.96,266.232,40.243
104.99,264.864,39.98
105.02,263.319,39.785
105.05,262.056,39.613
105.09,260.687,39.338
105.12,258.897,39.075
105.15,257.388,38.869
105.18,256.16,38.685
105.22,254.475,38.365
105.25,252.51,38.136
105.28,251.036,38.113
105.31,249.948,37.815
105.35,247.772,37.276
105.38,245.561,37.231
105.41,244.228,37.185
105.45,242.789,36.715
105.48,240.894,36.406
105.51,239.174,36.474
105.54,237.454,36.234
105.58,235.419,35.959
105.61,233.664,35.741
105.64,231.734,35.317
105.67,229.663,35.111
105.71,227.663,34.962
105.74,225.943,34.676
105.77,224.294,34.527
105.8,222.609,34.367
105.84,220.328,34.092
105.87,218.047,34.069
105.9,216.467,33.931
105.93,214.818,33.553
105.97,212.712,33.37
106.0,210.606,33.267
106.03,208.641,32.923
106.06,207.167,32.855
106.1,205.307,32.694
106.13,202.815,32.27
106.16,200.92,32.35
106.19,199.516,32.11
106.23,197.27,31.48
106.26,195.094,31.675
106.29,193.445,31.491
106.32,191.234,30.884
106.36,189.198,30.987
106.39,187.233,30.598
106.42,184.39,29.922
106.45,181.969,30.094
106.49,180.038,29.647
106.52,177.617,28.948
106.55,175.406,28.937
106.58,173.3,28.41
106.62,170.528,27.711
106.65,167.896,27.631
106.68,165.439,27.058
106.71,162.631,26.382
106.75,159.894,26.164
106.78,157.402,25.695
106.81,154.735,25.179
106.84,151.962,24.893
106.88,149.049,24.274
106.91,146.207,23.931
106.94,143.329,23.495
106.98,140.416,22.785
107.01,137.468,22.292
107.04,134.59,21.823
107.07,131.747,21.307
107.11,128.835,20.78
107.14,125.676,20.253
107.17,122.307,19.715
107.2,119.148,19.257
107.24,115.919,18.604
107.27,112.305,17.962
107.3,108.936,17.538
107.33,105.777,16.989
107.37,102.478,16.233
107.4,99.109,15.591
107.43,95.634,14.858
107.46,91.809,14.09
107.5,87.878,13.529
107.53,84.474,12.979
107.56,81.21,12.235
107.59,77.876,11.616
107.63,74.437,11.123
107.66,70.857,10.551
107.69,67.278,10.092
107.72,63.979,9.772
107.76,60.68,9.233
107.79,57.381,8.718
107.82,54.117,8.363
107.85,51.028,7.893
107.89,47.519,7.4
107.92,44.185,7.011
107.95,40.43,6.575
107.98,37.341,6.014
108.02,37.236,4.846
108.05,42.57,1.867
108.08,40.359,-1.673
108.11,28.848,-1.111
108.15,27.199,0.023
108.18,25.655,-0.756
108.21,17.969,-1.352
108.24,7.826,-1.34
108.28,-0.211,-0.985
108.31,-6.212,-0.813
108.34,-11.301,-0.859
108.37,-17.162,-0.779
108.41,-18.811,-0.229
108.44,-13.968,-1.306
108.47,-16.319,-2.497
108.51,-21.268,-2.096
108.54,-24.812,-1.489
108.57,-26.743,-1.203
108.6,-28.603,-1.524
108.64,-31.691,-2.463
108.67,-36.324,-3.482
108.7,-41.237,-3.998
108.73,-44.536,-4.124
108.77,-46.677,-4.685
108.8,-49.344,-5.59
108.83,-52.678,-6.026
108.86,-56.047,-6.243
108.9,-59.065,-6.61
108.93,-61.873,-6.908
108.96,-64.751,-7.228
108.99,-68.015,-7.732
109.03,-71.419,-8.214
109.06,-74.472,-8.626
109.09,-77.455,-9.21
109.12,-80.824,-9.863
109.16,-84.334,-10.402
109.19,-87.527,-10.803
109.22,-90.546,-11.307
109.25,-93.423,-11.96
109.29,-96.512,-12.509
109.32,-99.53,-13.002
109.35,-102.654,-13.552
109.38,-105.672,-13.907
109.42,-108.725,-14.388
109.45,-111.884,-14.995
109.48,-115.007,-15.385
109.51,-117.99,-15.854
109.55,-121.078,-16.588
109.58,-124.132,-17.023
109.61,-127.08,-17.619
109.64,-130.414,-18.306
109.68,-133.783,-18.821
109.71,-136.906,-19.394
109.74,-140.065,-20.15
109.77,-142.873,-20.46
109.81,-145.68,-21.021
109.84,-148.839,-21.788
109.87,-151.892,-22.224
109.91,-154.594,-22.567
109.94,-157.472,-23.323
109.97,-160.806,-23.919
110.0,-163.684,-24.171
110.04,-166.422,-24.824
110.07,-169.65,-25.351
110.1,-172.282,-25.5
110.13,-174.879,-26.164
110.17,-178.214,-26.932
110.2,-181.232,-27.195
110.23,-183.864,-27.791
110.26,-186.636,-28.364
110.3,-188.953,-28.49
110.33,-191.234,-29.028
110.36,-194.006,-29.452
110.39,-196.112,-29.235
110.43,-197.937,-29.578
110.46,-200.288,-29.968
110.49,-202.148,-29.819
110.52,-203.552,-29.968
110.56,-205.412,-30.266
110.59,-207.378,-30.14
110.62,-208.887,-30.185
110.65,-210.396,-30.46
110.69,-212.115,-30.609
110.72,-214.046,-30.941
110.75,-215.941,-31.285
110.78,-217.415,-31.549
110.82,-219.205,-31.961
110.85,-221.275,-32.27
110.88,-223.1,-32.488
110.91,-224.785,-32.935
110.95,-226.329,-33.233
110.98,-228.049,-33.668
111.01,-230.26,-34.229
111.04,-232.26,-34.344
111.08,-233.067,-34.435
111.11,-234.401,-35.077
111.14,-236.472,-35.466
111.17,-238.086,-35.524
111.21,-239.384,-35.982
111.24,-241.209,-36.383
111.27,-242.683,-36.612
111.3,-244.228,-37.139
111.34,-245.947,-37.471
111.37,-247.246,-37.574
111.4,-248.65,-37.987
111.44,-250.334,-38.307
111.47,-251.808,-38.491
111.5,-253.177,-38.903
111.53,-254.616,-39.35
111.57,-255.914,-39.567
111.6,-257.213,-39.797
111.63,-258.406,-40.06
111.66,-259.564,-40.198
111.7,-260.582,-40.392
111.73,-261.705,-40.747
111.76,-263.039,-40.931
111.79,-264.302,-41.022
111.83,-265.39,-41.297
111.86,-266.583,-41.687
111.89,-267.741,-41.962
111.92,-268.794,-42.202
111.96,-269.812,-42.523
111.99,-271.075,-42.809
112.02,-272.198,-42.981
112.05,-273.041,-43.359
112.09,-273.988,-43.611
112.12,-274.866,-43.714
112.15,-275.638,-43.863
112.18,-276.234,-43.989
112.22,-276.901,-44.127
112.25,-277.814,-44.264
112.28,-278.481,-44.31
112.31,-279.007,-44.413
112.35,-279.288,-44.493
112.38,-279.884,-44.734
112.41,-280.165,-44.734
112.44,-280.06,-44.619
112.48,-280.516,-44.654
112.51,-281.148,-44.654
112.54,-281.393,-44.631
112.57,-281.218,-44.654
112.61,-281.358,-44.654
112.64,-281.113,-44.47
112.67,-280.481,-44.195
112.7,-280.025,-44.047
112.74,-279.955,-44.047
112.77,-280.06,-43.921
112.8,-279.674,-43.817
112.83,-279.182,-43.875
112.87,-279.007,-43.875
112.9,-278.902,-43.691
112.93,-278.024,-43.669
112.97,-277.357,-43.634
113.0,-277.147,-43.474
113.03,-276.55,-43.325
113.06,-275.673,-43.13
113.1,-274.655,-42.855
113.13,-273.462,-42.569
113.16,-272.058,-42.202
113.19,-270.619,-41.847
113.23,-269.286,-41.503
113.26,-267.952,-41.091
113.29,-266.548,-40.736
113.32,-265.179,-40.472
113.36,-263.67,-40.209
113.39,-262.161,-39.968
113.42,-260.933,-39.682
113.45,-259.354,-39.27
113.49,-257.213,-38.926
113.52,-255.493,-38.846
113.55,-254.44,-38.697
113.58,-252.721,-38.181
113.62,-250.51,-38.055
113.65,-249.281,-38.113
113.68,-247.632,-37.471
113.71,-245.421,-37.185
113.75,-244.368,-37.448
113.78,-242.824,-36.761
113.81,-240.157,-36.36
113.84,-238.542,-36.704
113.88,-237.454,-36.394
113.91,-235.454,-36.016
113.94,-233.594,-36.062
113.97,-231.909,-35.764
114.01,-230.119,-35.432
114.04,-228.329,-35.375
114.07,-226.329,-34.985
114.1,-224.083,-34.733
114.14,-222.433,-34.745
114.17,-220.644,-34.39
114.2,-218.362,-34.103
114.23,-216.292,-34.023
114.27,-214.467,-33.656
114.3,-212.431,-33.404
114.33,-210.536,-33.347
114.37,-208.676,-32.912
114.4,-206.851,-32.763
114.43,-204.886,-32.614
114.46,-202.429,-32.27
114.5,-200.218,-32.076
114.53,-198.428,-31.95
114.56,-196.498,-31.491
114.59,-194.533,-31.239
114.63,-192.603,-31.205
114.66,-190.286,-30.77
114.69,-188.11,-30.701
114.72,-186.461,-30.598
114.76,-184.215,-29.91
114.79,-181.372,-29.567
114.82,-179.266,-29.441
114.85,-177.126,-28.925
114.89,-174.599,-28.605
114.92,-172.072,-28.352
114.95,-169.37,-27.848
114.98,-167.123,-27.493
115.02,-165.018,-27.024
115.05,-162.245,-26.29
115.08,-159.122,-25.901
115.11,-156.49,-25.741
115.15,-154.279,-25.328
115.18,-151.682,-24.744
115.21,-148.558,-24.274
115.24,-145.505,-23.736
115.28,-142.943,-23.427
115.31,-140.276,-22.797
115.34,-137.152,-22.155
115.37,-134.169,-21.926
115.41,-131.396,-21.445
115.44,-128.484,-20.849
115.47,-125.36,-20.334
115.5,-122.272,-19.749
115.54,-118.973,-19.096
115.57,-115.569,-18.512
115.6,-112.234,-17.939
115.63,-109.041,-17.367
115.67,-105.882,-16.748
115.7,-102.443,-16.038
115.73,-98.828,-15.408
115.76,-95.284,-14.812
115.8,-91.669,-14.079
115.83,-87.914,-13.346
115.86,-84.334,-12.716
115.9,-80.93,-12.086
115.93,-77.35,-11.398
115.96,-73.875,-10.86
115.99,-70.787,-10.459
116.03,-67.278,-9.852
116.06,-63.593,-9.371
116.09,-60.223,-9.119
116.12,-57.1,-8.672
116.16,-53.836,-8.088
116.19,-50.537,-7.767
116.22,-47.308,-7.286
116.25,-44.009,-6.793
116.29,-40.57,-6.449
116.32,-37.411,-6.003
116.35,-36.218,-4.926
116.38,-40.43,-2.52
116.42,-41.237,1.203
116.45,-29.796,1.524
116.48,-25.374,0.092
116.51,-24.847,0.538
116.55,-18.285,1.283
116.58,-8.037,1.455
116.61,1.088,1.042
116.64,6.738,0.768
