Trigger_Date,2023/06/19
Trigger_Time,T 13:00:04.255 PDT
Samples_Per_Cycle,512
Microseconds_Per_Sample,32.570
Time (ms),Voltage (V),Current (A)
-16.68,-15.547,-0.493
-16.64,-14.529,-0.962
-16.61,-11.476,-1.604
-16.58,-16.249,-1.833
-16.55,-20.601,-1.363
-16.51,-23.338,-0.836
-16.48,-25.058,-0.733
-16.45,-27.304,-0.962
-16.42,-30.498,-1.604
-16.38,-34.955,-2.096
-16.35,-39.728,-2.497
-16.32,-44.36,-2.669
-16.28,-48.291,-2.577
-16.25,-51.625,-2.577
-16.22,-54.608,-2.738
-16.19,-57.626,-2.956
-16.15,-60.68,-3.162
-16.12,-63.873,-3.391
-16.09,-67.242,-3.574
-16.06,-70.401,-3.712
-16.02,-73.489,-3.826
-15.99,-76.543,-4.044
-15.96,-79.666,-4.284
-15.93,-82.965,-4.399
-15.89,-86.299,-4.72
-15.86,-89.774,-4.983
-15.83,-92.932,-5.04
-15.8,-95.529,-5.258
-15.76,-98.267,-5.625
-15.73,-100.969,-5.854
-15.7,-103.847,-6.186
-15.67,-106.9,-6.472
-15.63,-109.813,-6.724
-15.6,-112.796,-7.137
-15.57,-115.955,-7.492
-15.54,-119.043,-7.698
-15.5,-121.991,-7.973
-15.47,-124.834,-8.294
-15.44,-127.852,-8.626
-15.41,-130.94,-8.912
-15.37,-134.064,-9.302
-15.34,-137.187,-9.508
-15.31,-140.065,-9.749
-15.28,-143.048,-10.161
-15.24,-146.031,-10.459
-15.21,-149.049,-10.86
-15.18,-152.032,-11.261
-15.14,-154.98,-11.547
-15.11,-157.928,-11.902
-15.08,-160.841,-12.154
-15.05,-163.719,-12.429
-15.01,-166.457,-12.647
-14.98,-169.299,-12.956
-14.95,-172.037,-13.174
-14.92,-174.599,-13.288
-14.88,-177.301,-13.747
-14.85,-180.214,-14.056
-14.82,-182.846,-14.182
-14.79,-185.443,-14.434
-14.75,-188.04,-14.617
-14.72,-190.392,-14.686
-14.69,-192.673,-14.904
-14.66,-195.059,-15.156
-14.62,-197.305,-15.19
-14.59,-199.516,-15.408
-14.56,-201.868,-15.637
-14.53,-204.044,-15.591
-14.49,-205.974,-15.728
-14.46,-208.009,-15.877
-14.43,-210.01,-15.9
-14.4,-211.905,-16.118
-14.36,-213.835,-16.278
-14.33,-215.871,-16.404
-14.3,-217.871,-16.507
-14.27,-219.696,-16.656
-14.23,-221.346,-16.84
-14.2,-223.03,-17.023
-14.17,-225.031,-17.126
-14.14,-226.75,-17.218
-14.1,-228.47,-17.332
-14.07,-230.19,-17.538
-14.04,-231.944,-17.756
-14.01,-233.594,-17.905
-13.97,-235.103,-18.111
-13.94,-236.542,-18.214
-13.91,-238.121,-18.398
-13.87,-239.911,-18.65
-13.84,-241.595,-18.707
-13.81,-243.14,-18.97
-13.78,-244.403,-19.131
-13.74,-245.596,-19.177
-13.71,-246.965,-19.452
-13.68,-248.544,-19.543
-13.65,-249.843,-19.612
-13.61,-251.106,-19.921
-13.58,-252.51,-20.104
-13.55,-254.019,-20.23
-13.52,-255.283,-20.494
-13.48,-256.546,-20.666
-13.45,-257.669,-20.769
-13.42,-258.652,-20.861
-13.39,-259.74,-21.055
-13.35,-260.898,-21.25
-13.32,-262.056,-21.376
-13.29,-263.319,-21.582
-13.26,-264.442,-21.788
-13.22,-265.636,-21.995
-13.19,-266.829,-22.109
-13.16,-267.776,-22.292
-13.13,-268.759,-22.51
-13.09,-269.917,-22.705
-13.06,-271.146,-22.968
-13.03,-272.339,-23.14
-13.0,-273.286,-23.381
-12.96,-274.164,-23.553
-12.93,-274.971,-23.587
-12.9,-275.813,-23.793
-12.87,-276.585,-24.034
-12.83,-277.463,-24.011
-12.8,-278.235,-24.022
-12.77,-278.796,-24.08
-12.73,-279.463,-24.24
-12.7,-280.165,-24.297
-12.67,-280.656,-24.354
-12.64,-281.007,-24.469
-12.6,-281.218,-24.412
-12.57,-281.604,-24.503
-12.54,-282.095,-24.526
-12.51,-282.411,-24.4
-12.47,-282.516,-24.435
-12.44,-282.587,-24.389
-12.41,-282.552,-24.309
-12.38,-282.306,-24.183
-12.34,-281.885,-23.976
-12.31,-281.604,-23.885
-12.28,-281.464,-23.885
-12.25,-281.288,-23.828
-12.21,-280.972,-23.69
-12.18,-280.376,-23.53
-12.15,-279.498,-23.255
-12.12,-278.796,-23.255
-12.08,-278.13,-23.129
-12.05,-277.287,-22.797
-12.02,-276.515,-22.785
-11.99,-275.743,-22.59
-11.95,-274.76,-22.27
-11.92,-273.532,-22.132
-11.89,-272.163,-21.869
-11.86,-270.83,-21.662
-11.82,-269.672,-21.502
-11.79,-268.408,-21.284
-11.76,-267.11,-21.204
-11.73,-265.706,-21.055
-11.69,-264.372,-20.872
-11.66,-263.039,-20.872
-11.63,-261.53,-20.609
-11.59,-259.845,-20.46
-11.56,-258.16,-20.391
-11.53,-256.651,-20.162
-11.5,-255.247,-20.024
-11.46,-253.633,-19.875
-11.43,-251.843,-19.566
-11.4,-250.089,-19.532
-11.37,-248.439,-19.44
-11.33,-246.579,-19.268
-11.3,-244.684,-19.142
-11.27,-242.929,-19.142
-11.24,-241.209,-19.062
-11.2,-239.349,-19.005
-11.17,-237.665,-19.142
-11.14,-236.05,-18.947
-11.11,-234.225,-18.741
-11.07,-232.436,-18.73
-11.04,-230.576,-18.558
-11.01,-228.505,-18.512
-10.98,-226.364,-18.352
-10.94,-224.329,-18.295
-10.91,-222.574,-18.352
-10.88,-220.679,-18.1
-10.85,-218.468,-17.951
-10.81,-216.432,-18.042
-10.78,-214.537,-17.882
-10.75,-212.431,-17.871
-10.72,-210.431,-17.745
-10.68,-208.571,-17.584
-10.65,-206.641,-17.538
-10.62,-204.359,-17.309
-10.59,-202.078,-17.321
-10.55,-199.797,-17.092
-10.52,-197.797,-16.966
-10.49,-195.972,-17.011
-10.45,-194.041,-16.828
-10.42,-191.69,-16.782
-10.39,-189.549,-16.828
-10.36,-187.514,-16.748
-10.32,-185.443,-16.588
-10.29,-183.302,-16.53
-10.26,-181.056,-16.37
-10.23,-178.529,-16.152
-10.19,-176.318,-16.141
-10.16,-174.107,-15.98
-10.13,-171.686,-15.706
-10.1,-169.229,-15.545
-10.06,-166.772,-15.224
-10.03,-164.281,-14.961
-10.0,-161.613,-14.743
-9.97,-158.946,-14.423
-9.93,-156.49,-14.251
-9.9,-153.998,-14.113
-9.87,-151.295,-13.77
-9.84,-148.418,-13.518
-9.8,-145.68,-13.334
-9.77,-142.943,-12.933
-9.74,-139.995,-12.693
-9.71,-137.187,-12.464
-9.67,-134.309,-12.166
-9.64,-131.572,-11.971
-9.61,-128.764,-11.593
-9.58,-125.816,-11.215
-9.54,-122.552,-10.929
-9.51,-119.254,-10.585
-9.48,-115.884,-10.31
-9.45,-112.901,-9.955
-9.41,-109.883,-9.531
-9.38,-106.689,-9.096
-9.35,-103.285,-8.718
-9.31,-99.811,-8.363
-9.28,-96.231,-7.973
-9.25,-92.686,-7.549
-9.22,-89.177,-7.171
-9.18,-85.667,-6.747
-9.15,-82.088,-6.346
-9.12,-78.613,-5.888
-9.09,-75.104,-5.51
-9.05,-71.524,-5.304
-9.02,-68.05,-5.052
-8.99,-64.435,-4.708
-8.96,-60.925,-4.445
-8.92,-57.697,-4.284
-8.89,-54.433,-3.906
-8.86,-50.888,-3.677
-8.83,-47.343,-3.528
-8.79,-43.974,-3.276
-8.76,-40.43,-3.001
-8.73,-37.376,-2.795
-8.7,-38.78,-1.821
-8.66,-43.939,-0.057
-8.63,-38.57,1.409
-8.6,-28.568,0.882
-8.57,-25.409,0.206
-8.53,-23.654,0.355
-8.5,-18.039,1.18
-8.47,-6.387,1.558
-8.44,4.282,1.146
-8.4,10.529,0.47
-8.37,13.301,0.573
-8.34,18.951,0.515
-8.31,15.863,0.962
-8.27,12.389,1.821
-8.24,18.179,2.119
-8.21,22.18,1.627
-8.18,24.883,0.722
-8.14,26.041,0.642
-8.11,28.006,0.962
-8.08,30.919,1.661
-8.04,35.516,2.257
-8.01,40.43,2.52
-7.98,45.062,2.543
-7.95,48.572,2.543
-7.91,51.765,2.543
-7.88,54.643,2.749
-7.85,57.661,2.91
-7.82,60.75,3.127
-7.78,64.014,3.391
-7.75,67.278,3.528
-7.72,70.471,3.7
-7.69,73.56,3.849
-7.65,76.683,3.975
-7.62,79.877,4.181
-7.59,83.105,4.422
-7.56,86.264,4.662
-7.52,89.598,4.892
-7.49,92.792,5.052
-7.46,95.705,5.235
-7.43,98.267,5.487
-7.39,100.934,5.819
-7.36,103.882,6.175
-7.33,106.9,6.507
-7.3,109.918,6.782
-7.26,112.901,7.091
-7.23,116.06,7.503
-7.2,119.324,7.836
-7.17,122.342,8.145
-7.13,125.36,8.534
-7.1,128.554,8.821
-7.07,131.572,9.21
-7.04,134.731,9.68
-7.0,137.784,10.047
-6.97,140.767,10.31
-6.94,143.715,10.573
-6.9,146.558,10.883
-6.87,149.576,11.089
-6.84,152.524,11.261
-6.81,155.507,11.616
-6.77,158.49,11.879
-6.74,161.333,12.177
-6.71,164.07,12.487
-6.68,166.843,12.693
-6.64,169.65,12.876
-6.61,172.388,13.14
-6.58,175.336,13.609
-6.55,178.529,14.067
-6.51,181.793,14.388
-6.48,184.846,14.801
-6.45,187.514,15.064
-6.42,190.076,15.362
-6.38,192.673,15.637
-6.35,195.059,15.637
-6.32,197.305,15.797
-6.29,199.516,15.969
-6.25,201.622,15.832
-6.22,203.658,15.854
-6.19,205.553,15.832
-6.16,207.202,15.614
-6.12,208.711,15.58
-6.09,210.291,15.476
-6.06,211.729,15.385
-6.03,213.379,15.465
-5.99,215.169,15.499
-5.96,216.783,15.465
-5.93,218.257,15.648
-5.9,219.872,15.832
-5.86,221.451,15.832
-5.83,223.135,16.026
-5.8,224.82,16.187
-5.76,226.294,16.347
-5.73,227.908,16.645
-5.7,229.698,16.977
-5.67,231.699,17.286
-5.63,233.418,17.516
-5.6,234.822,17.756
-5.57,236.436,18.077
-5.54,238.297,18.455
-5.5,239.911,18.501
-5.47,241.174,18.581
-5.44,242.754,19.028
-5.41,244.438,19.096
-5.37,245.667,19.165
-5.34,246.895,19.543
-5.31,248.439,19.646
-5.28,249.878,19.749
-5.24,251.141,20.082
-5.21,252.65,20.345
-5.18,254.23,20.563
-5.15,255.634,20.803
-5.11,256.932,20.952
-5.08,258.02,21.147
-5.05,259.319,21.296
-5.02,260.652,21.422
-4.98,261.67,21.502
-4.95,262.617,21.685
-4.92,263.846,21.96
-4.89,265.355,22.189
-4.85,266.689,22.338
-4.82,267.706,22.522
-4.79,268.619,22.751
-4.76,269.707,22.911
-4.72,270.9,23.049
-4.69,272.058,23.197
-4.66,273.041,23.358
-4.62,274.129,23.553
-4.59,275.146,23.633
-4.56,275.989,23.782
-4.53,276.585,24.034
-4.49,277.287,24.125
-4.46,278.059,24.194
-4.43,278.796,24.446
-4.4,279.533,24.458
-4.36,280.2,24.4
-4.33,280.762,24.481
-4.3,281.358,24.607
-4.27,281.779,24.526
-4.23,281.885,24.446
-4.2,282.376,24.572
-4.17,282.973,24.675
-4.14,283.218,24.572
-4.1,282.622,24.366
-4.07,281.779,24.102
-4.04,281.183,23.736
-4.01,280.832,23.369
-3.97,280.341,22.98
-3.94,279.639,22.705
-3.91,278.972,22.625
-3.88,278.516,22.613
-3.84,278.094,22.545
-3.81,277.603,22.545
-3.78,277.287,22.648
-3.75,276.901,22.739
-3.71,276.55,22.911
-3.68,276.445,23.071
-3.65,276.27,23.094
-3.62,275.743,23.14
-3.58,274.901,23.209
-3.55,274.059,23.026
-3.52,273.041,22.819
-3.48,271.848,22.625
-3.45,270.795,22.419
-3.42,269.672,22.235
-3.39,268.408,22.018
-3.35,266.829,21.708
-3.32,265.215,21.502
-3.29,263.811,21.227
-3.26,262.126,20.929
-3.22,260.442,20.712
-3.19,258.792,20.402
-3.16,257.108,20.127
-3.13,255.318,19.864
-3.09,253.458,19.635
-3.06,251.527,19.417
-3.03,249.597,19.268
-3.0,247.702,19.165
-2.96,245.596,18.833
-2.93,243.456,18.65
-2.9,241.595,18.604
-2.87,239.735,18.352
-2.83,237.665,18.203
-2.8,235.594,18.214
-2.77,233.594,18.02
-2.74,231.488,17.871
-2.7,229.593,17.974
-2.67,227.873,17.836
-2.64,225.978,17.722
-2.61,223.907,17.745
-2.57,221.837,17.63
-2.54,219.696,17.573
-2.51,217.59,17.55
-2.48,215.555,17.447
-2.44,213.625,17.355
-2.41,211.694,17.458
-2.38,209.659,17.321
-2.35,207.623,17.321
-2.31,205.833,17.493
-2.28,203.973,17.241
-2.25,201.833,17.195
-2.21,199.692,17.298
-2.18,197.446,17.046
-2.15,195.41,17.011
-2.12,193.62,17.069
-2.08,191.725,16.828
-2.05,189.69,16.782
-2.02,187.759,16.817
-1.99,185.478,16.53
-1.95,183.092,16.645
-1.92,180.916,16.588
-1.89,178.67,16.347
-1.86,176.599,16.29
-1.82,174.493,16.129
-1.79,172.107,15.866
-1.76,169.685,15.751
-1.73,167.264,15.58
-1.69,164.772,15.339
-1.66,162.14,14.949
-1.63,159.543,14.778
-1.6,156.911,14.514
-1.56,154.349,14.319
-1.53,151.822,14.159
-1.5,149.33,13.838
-1.47,146.698,13.632
-1.43,143.82,13.392
-1.4,140.942,12.956
-1.37,138.029,12.704
-1.34,135.081,12.441
-1.3,132.239,12.154
-1.27,129.466,11.845
-1.24,126.553,11.467
-1.21,123.5,11.112
-1.17,120.131,10.688
-1.14,116.656,10.31
-1.11,113.463,10.035
-1.07,110.339,9.703
-1.04,107.076,9.336
-1.01,103.671,8.878
-0.98,100.267,8.5
-0.94,96.758,8.156
-0.91,93.213,7.606
-0.88,89.633,7.217
-0.85,85.983,6.805
-0.81,82.439,6.461
-0.78,79.105,6.152
-0.75,75.595,5.67
-0.72,71.875,5.407
-0.68,68.401,5.178
-0.65,65.067,4.857
-0.62,61.662,4.548
-0.59,58.258,4.296
-0.55,54.749,3.987
-0.52,51.309,3.746
-0.49,47.835,3.551
-0.46,44.431,3.322
-0.42,40.921,3.196
-0.39,37.903,2.967
-0.36,37.657,2.245
-0.33,42.676,0.928
-0.29,42.921,-0.916
-0.26,33.27,-1.375
-0.23,25.655,-0.699
-0.2,22.461,-0.344
-0.16,18.706,-0.871
-0.13,9.125,-1.512
-0.1,-2.597,-1.455
-0.07,-11.371,-0.79
-0.03,-14.705,-0.447
0.0,-18.46,-0.458
0.03,-17.442,-0.722
0.07,-13.477,-1.546
0.1,-17.793,-2.073
0.13,-22.672,-1.753
0.16,-25.76,-1.168
0.2,-27.374,-0.859
0.23,-29.129,-1.008
0.26,-31.761,-1.604
0.29,-35.902,-2.28
0.33,-40.605,-2.6
0.36,-45.062,-2.669
0.39,-48.853,-2.635
0.42,-52.011,-2.6
0.46,-54.959,-2.738
0.49,-57.942,-2.933
0.52,-61.136,-3.208
0.55,-64.47,-3.46
0.59,-67.839,-3.631
0.62,-71.208,-3.757
0.65,-74.402,-3.883
0.68,-77.525,-4.032
0.72,-80.579,-4.204
0.75,-83.737,-4.365
0.78,-86.755,-4.582
0.81,-89.949,-4.766
0.85,-92.932,-4.914
0.88,-95.845,-5.132
0.91,-98.477,-5.292
0.94,-101.004,-5.43
0.98,-103.636,-5.67
1.01,-106.549,-6.014
1.04,-109.673,-6.346
1.07,-112.726,-6.724
1.11,-115.709,-7.068
1.14,-118.762,-7.515
1.17,-121.851,-8.007
1.21,-125.079,-8.363
1.24,-128.343,-8.615
1.27,-131.467,-8.947
1.3,-134.555,-9.348
1.34,-137.503,-9.68
1.37,-140.451,-10.047
1.4,-143.504,-10.413
1.43,-146.663,-10.642
1.47,-149.681,-10.963
1.5,-152.454,-11.261
1.53,-155.367,-11.559
1.56,-158.244,-11.948
1.6,-161.192,-12.189
1.63,-163.965,-12.429
1.66,-166.772,-12.739
1.69,-169.545,-12.899
1.73,-172.177,-13.105
1.76,-174.915,-13.414
1.79,-177.687,-13.609
1.82,-180.565,-13.838
1.86,-183.232,-14.102
1.89,-185.689,-14.285
1.92,-188.181,-14.583
1.95,-190.532,-14.869
1.99,-192.848,-14.927
2.02,-195.164,-15.041
2.05,-197.551,-15.224
2.08,-199.832,-15.305
2.12,-201.938,-15.419
2.15,-203.973,-15.602
2.18,-205.904,-15.66
2.21,-207.799,-15.706
2.25,-209.834,-15.946
2.28,-211.8,-16.026
2.31,-213.8,-16.141
2.35,-215.871,-16.255
2.38,-217.696,-16.324
2.41,-219.415,-16.565
2.44,-220.995,-16.656
2.48,-222.574,-16.725
2.51,-224.294,-17.0
2.54,-226.083,-17.011
2.57,-227.803,-17.149
2.61,-229.558,-17.458
2.64,-231.277,-17.538
2.67,-232.997,-17.813
2.7,-234.682,-18.077
2.74,-236.261,-18.065
2.77,-237.77,-18.26
2.8,-239.244,-18.558
2.83,-240.718,-18.673
2.87,-242.297,-18.959
2.9,-244.017,-19.199
2.93,-245.386,-19.154
2.96,-246.614,-19.348
3.0,-247.983,-19.612
3.03,-249.457,-19.726
3.06,-250.931,-20.047
3.09,-252.44,-20.288
3.13,-253.879,-20.448
3.16,-255.072,-20.597
3.19,-256.23,-20.872
3.22,-257.388,-20.941
3.26,-258.546,-20.987
3.29,-259.74,-21.204
3.32,-260.898,-21.33
3.35,-261.916,-21.422
3.39,-262.968,-21.605
3.42,-264.302,-21.8
3.45,-265.601,-21.926
3.48,-266.689,-22.132
3.52,-267.706,-22.419
3.55,-268.829,-22.567
3.58,-269.812,-22.739
3.62,-270.9,-23.106
3.65,-272.128,-23.392
3.68,-273.216,-23.53
3.71,-274.059,-23.69
3.75,-275.076,-23.828
3.78,-276.059,-23.862
3.81,-276.515,-23.816
3.84,-276.866,-24.057
3.88,-277.814,-24.263
3.91,-279.007,-24.274
3.94,-279.428,-24.08
3.97,-279.639,-24.091
4.01,-280.305,-24.354
4.04,-280.867,-24.332
4.07,-281.007,-24.228
4.1,-281.218,-24.366
4.14,-281.779,-24.423
4.17,-282.341,-24.458
4.2,-282.376,-24.446
4.23,-282.236,-24.423
4.27,-282.306,-24.458
4.3,-282.306,-24.343
4.33,-282.13,-24.16
4.36,-281.885,-24.102
4.4,-281.779,-24.034
4.43,-281.639,-23.908
4.46,-281.288,-23.862
4.49,-280.551,-23.747
4.53,-279.884,-23.53
4.56,-279.288,-23.415
4.59,-278.375,-23.106
4.62,-277.533,-22.991
4.66,-276.796,-22.854
4.69,-275.919,-22.625
4.72,-274.796,-22.579
4.76,-273.637,-22.292
4.79,-272.339,-22.052
4.82,-271.075,-21.869
4.85,-269.742,-21.571
4.89,-268.373,-21.399
4.92,-267.145,-21.25
4.95,-266.022,-21.078
4.98,-264.723,-20.872
5.02,-263.179,-20.7
5.05,-261.459,-20.483
5.08,-259.74,-20.322
5.11,-258.266,-20.15
5.15,-256.757,-19.944
5.18,-255.107,-19.875
5.21,-253.387,-19.83
5.24,-251.808,-19.738
5.28,-250.124,-19.6
5.31,-248.264,-19.486
5.34,-246.439,-19.348
5.37,-244.649,-19.211
5.41,-242.894,-19.108
5.44,-241.174,-18.959
5.47,-239.384,-18.821
5.5,-237.489,-18.707
5.54,-235.524,-18.695
5.57,-233.629,-18.673
5.6,-231.734,-18.524
5.63,-229.874,-18.478
5.67,-227.908,-18.512
5.7,-226.118,-18.306
5.73,-224.188,-18.203
5.76,-222.223,-18.214
5.8,-220.222,-18.077
5.83,-218.292,-17.905
5.86,-216.257,-17.848
5.9,-214.186,-17.871
5.93,-212.115,-17.825
5.96,-210.115,-17.733
5.99,-208.185,-17.745
6.03,-206.29,-17.493
6.06,-204.149,-17.298
6.09,-202.078,-17.264
6.12,-199.797,-17.126
6.16,-197.516,-17.057
6.19,-195.656,-17.126
6.22,-193.796,-16.931
6.25,-191.479,-16.725
6.29,-189.268,-16.828
6.32,-187.128,-16.633
6.35,-184.952,-16.485
6.38,-182.741,-16.393
6.42,-180.46,-16.164
6.45,-178.214,-16.061
6.48,-176.213,-16.049
6.51,-174.072,-15.877
6.55,-171.616,-15.854
6.58,-169.264,-15.763
6.61,-166.667,-15.431
6.64,-164.035,-15.27
6.68,-161.543,-14.927
6.71,-158.911,-14.526
6.74,-156.7,-14.411
6.77,-154.279,-14.136
6.81,-151.295,-13.678
6.84,-148.207,-13.54
6.87,-145.47,-13.357
6.9,-142.978,-13.071
6.94,-140.311,-12.761
6.97,-137.363,-12.464
7.0,-134.239,-12.223
7.04,-131.467,-12.04
7.07,-128.799,-11.719
7.1,-125.816,-11.33
7.13,-122.763,-11.032
7.17,-119.499,-10.711
7.2,-116.341,-10.436
7.23,-113.463,-10.081
7.26,-110.41,-9.726
7.3,-107.04,-9.416
7.33,-103.566,-9.05
7.36,-100.162,-8.626
7.39,-96.722,-8.271
7.43,-93.178,-7.767
7.46,-89.668,-7.228
7.49,-85.983,-6.873
7.52,-82.439,-6.369
7.56,-78.929,-5.9
7.59,-75.314,-5.648
7.62,-71.77,-5.315
7.65,-68.225,-4.96
7.69,-64.68,-4.617
7.72,-61.241,-4.365
7.75,-57.942,-4.204
7.78,-54.468,-3.906
7.82,-50.923,-3.643
7.85,-47.484,-3.505
7.88,-44.115,-3.219
7.91,-40.535,-3.093
7.95,-37.166,-2.818
7.98,-37.376,-1.959
8.01,-43.062,-0.412
8.04,-39.798,1.306
8.08,-29.059,1.134
8.11,-24.181,0.332
8.14,-22.461,0.275
8.18,-18.074,1.02
8.21,-6.984,1.535
8.24,4.001,1.237
8.27,11.055,0.515
8.31,13.512,0.493
8.34,18.636,0.458
8.37,16.565,0.928
8.4,12.073,1.993
8.44,17.793,2.234
8.47,22.25,1.741
8.5,25.304,0.882
8.53,26.567,0.687
8.57,28.462,0.916
8.6,31.27,1.558
8.63,35.551,2.199
8.66,40.079,2.463
8.7,44.466,2.463
8.73,47.94,2.451
8.76,51.028,2.406
8.79,53.696,2.474
8.83,56.714,2.772
8.86,59.908,3.047
8.89,63.417,3.311
8.92,66.962,3.551
8.96,70.471,3.723
8.99,73.946,3.895
9.02,77.315,4.101
9.05,80.684,4.307
9.09,83.983,4.525
9.12,87.177,4.754
9.15,90.265,4.972
9.18,93.073,5.201
9.22,95.599,5.418
9.25,98.196,5.762
9.28,101.144,6.106
9.31,104.128,6.358
9.35,107.181,6.656
9.38,110.234,6.885
9.41,113.252,7.228
9.45,116.516,7.664
9.48,119.71,7.893
9.51,122.588,8.214
9.54,125.43,8.523
9.58,128.448,8.809
9.61,131.537,9.061
9.64,134.695,9.474
9.67,137.854,9.886
9.71,140.837,10.127
9.74,143.715,10.482
9.77,146.698,10.814
9.8,149.646,11.078
9.84,152.559,11.398
9.87,155.647,11.719
9.9,158.56,11.822
9.93,161.368,12.028
9.97,164.035,12.487
10.0,166.667,12.693
10.03,169.334,12.922
10.06,172.247,13.323
10.1,175.23,13.449
10.13,178.073,13.735
10.16,180.986,14.239
10.19,183.829,14.319
10.23,186.32,14.571
10.26,188.847,14.938
10.29,191.269,14.915
10.32,193.34,15.121
10.36,195.761,15.465
10.39,198.077,15.385
10.42,200.183,15.408
10.45,202.219,15.58
10.49,204.149,15.442
10.52,205.869,15.454
10.55,207.588,15.568
10.59,209.413,15.58
10.62,211.414,15.671
10.65,213.449,15.843
10.68,215.239,15.854
10.72,216.888,15.935
10.75,218.573,16.21
10.78,220.258,16.233
10.81,221.942,16.347
10.85,223.732,16.691
10.88,225.522,16.874
10.91,227.312,17.034
10.94,229.102,17.286
10.98,230.856,17.458
11.01,232.506,17.642
11.04,234.155,17.882
11.07,235.629,17.997
11.11,236.998,18.168
11.14,238.647,18.478
11.17,240.332,18.638
11.2,241.946,18.89
11.24,243.385,19.199
11.27,244.824,19.268
11.3,246.123,19.474
11.33,247.491,19.623
11.37,248.72,19.704
11.4,250.124,20.036
11.43,251.738,20.15
11.46,253.177,20.299
11.5,254.581,20.563
11.53,255.984,20.826
11.56,257.178,20.987
11.59,258.231,21.181
11.63,259.389,21.456
11.66,260.582,21.559
11.69,261.775,21.628
11.73,262.898,21.8
11.76,264.091,21.949
11.79,265.32,22.155
11.82,266.583,22.419
11.86,267.741,22.476
11.89,268.619,22.682
11.92,269.637,22.991
11.95,270.865,23.106
11.99,271.953,23.312
12.02,273.006,23.541
12.05,273.918,23.724
12.08,274.796,23.908
12.12,275.673,23.999
12.15,276.41,24.022
12.18,277.217,24.011
12.21,278.094,24.057
12.25,278.937,24.263
12.28,279.533,24.286
12.31,279.919,24.412
12.34,280.27,24.526
12.38,280.867,24.526
12.41,281.464,24.618
12.44,281.85,24.595
12.47,281.99,24.607
12.51,282.411,24.801
12.54,282.797,24.698
12.57,282.797,24.549
12.6,282.516,24.435
12.64,282.095,24.171
12.67,281.534,23.999
12.7,281.323,23.999
12.73,281.429,23.908
12.77,281.253,23.782
12.8,280.867,23.77
12.83,280.27,23.69
12.87,279.99,23.61
12.9,279.709,23.576
12.93,279.147,23.495
12.96,278.375,23.335
13.0,277.708,23.312
13.03,277.042,23.209
13.06,276.164,23.026
13.09,275.111,22.888
13.13,273.813,22.648
13.16,272.479,22.281
13.19,271.111,22.018
13.22,269.707,21.743
13.26,268.303,21.514
13.29,267.004,21.261
13.32,265.671,20.987
13.35,264.267,20.792
13.39,262.582,20.586
13.42,260.757,20.368
13.45,259.003,20.334
13.48,257.458,20.208
13.52,255.774,19.99
13.55,254.089,19.978
13.58,252.405,19.738
13.61,250.545,19.463
13.65,248.825,19.406
13.68,246.965,19.177
13.71,244.93,18.902
13.74,243.069,18.902
13.78,241.28,18.856
13.81,239.174,18.547
13.84,237.173,18.604
13.87,235.349,18.73
13.91,233.418,18.421
13.94,231.418,18.375
13.97,229.733,18.386
14.01,227.908,18.123
14.04,225.943,18.123
14.07,223.943,18.134
14.1,221.872,17.894
14.14,219.872,17.928
14.17,217.801,17.848
14.2,215.765,17.687
14.23,214.011,17.871
14.27,212.291,17.813
14.3,210.501,17.733
14.33,208.817,17.871
14.36,206.992,17.802
14.4,204.71,17.687
14.43,202.499,17.745
14.46,200.429,17.607
14.49,198.393,17.47
14.53,196.498,17.561
14.56,194.498,17.355
14.59,192.357,17.172
14.62,190.392,17.252
14.66,188.286,16.977
14.69,185.829,16.737
14.72,183.548,16.782
14.75,181.126,16.473
14.79,178.775,16.21
14.82,176.599,16.29
14.85,174.529,16.049
14.88,172.212,15.854
14.92,169.72,15.706
14.95,167.264,15.396
14.98,164.667,15.144
15.01,161.964,14.835
15.05,159.157,14.514
15.08,156.49,14.354
15.11,153.998,14.148
15.14,151.26,13.792
15.18,148.523,13.586
15.21,145.891,13.403
15.24,143.118,13.048
15.28,140.03,12.739
15.31,137.117,12.544
15.34,134.45,12.349
15.37,131.677,11.971
15.41,128.764,11.696
15.44,125.711,11.398
15.47,122.588,10.986
15.5,119.324,10.677
15.54,116.235,10.333
15.57,113.147,9.955
15.6,109.848,9.703
15.63,106.374,9.371
15.67,103.04,8.993
15.7,99.741,8.637
15.73,96.477,8.214
15.76,93.037,7.778
15.8,89.423,7.343
15.83,85.808,6.919
15.86,82.158,6.564
15.89,78.789,6.22
15.93,75.42,5.877
15.96,71.875,5.579
15.99,68.401,5.212
16.02,65.137,4.949
16.06,61.557,4.674
16.09,57.942,4.456
16.12,54.538,4.33
16.15,51.169,4.009
16.19,47.835,3.757
16.22,44.501,3.494
16.25,40.921,3.047
16.28,37.727,3.07
16.32,38.605,2.726
16.35,44.255,0.504
16.38,41.377,-1.306
16.42,30.743,-1.214
16.45,25.514,-0.389
16.48,23.584,-0.344
16.51,18.846,-1.077
16.55,7.686,-1.638
16.58,-3.72,-1.294
16.61,-10.95,-0.619
16.64,-13.512,-0.458
16.68,-18.144,-0.596
16.71,-16.144,-0.103
16.74,-12.564,-2.142
16.77,-18.214,-2.257
16.81,-22.391,-1.18
16.84,-25.058,-1.1
16.87,-26.427,-0.745
16.9,-28.287,-1.008
16.94,-31.2,-1.741
16.97,-35.657,-2.291
17.0,-40.324,-2.532
17.03,-44.817,-2.623
17.07,-48.502,-2.589
17.1,-51.59,-2.566
17.13,-54.257,-2.543
17.16,-57.065,-2.784
17.2,-59.978,-3.036
17.23,-63.136,-3.208
17.26,-66.225,-3.368
17.29,-69.524,-3.54
17.33,-72.682,-3.689
17.36,-75.946,-3.906
17.39,-79.35,-4.147
17.42,-82.79,-4.353
17.46,-86.264,-4.605
17.49,-89.738,-4.88
17.52,-93.213,-5.132
17.56,-96.336,-5.304
17.59,-99.074,-5.602
17.62,-101.741,-5.9
17.65,-104.303,-6.14
17.69,-107.04,-6.564
17.72,-110.094,-6.931
17.75,-113.217,-7.24
17.78,-116.411,-7.572
17.82,-119.604,-7.893
17.85,-122.517,-8.099
17.88,-125.395,-8.363
17.91,-128.378,-8.775
17.95,-131.607,-9.187
17.98,-135.011,-9.554
18.01,-138.065,-9.898
18.04,-140.837,-10.161
18.08,-143.855,-10.493
18.11,-146.944,-10.883
18.14,-149.962,-11.1
18.17,-152.769,-11.352
18.21,-155.542,-11.719
18.24,-158.455,-12.005
18.27,-161.192,-12.223
18.3,-164.0,-12.544
18.34,-166.772,-12.693
18.37,-169.475,-12.83
18.4,-172.282,-13.162
18.43,-175.09,-13.357
18.47,-177.757,-13.563
18.5,-180.53,-13.953
18.53,-183.197,-14.216
18.56,-185.759,-14.411
18.6,-188.216,-14.64
18.63,-190.637,-14.846
18.66,-192.883,-14.892
18.7,-195.129,-15.064
18.73,-197.481,-15.305
18.76,-199.657,-15.305
18.79,-201.868,-15.476
18.83,-204.044,-15.614
18.86,-206.044,-15.625
18.89,-207.869,-15.706
18.92,-209.764,-15.832
18.96,-211.729,-16.026
18.99,-213.695,-16.175
19.02,-215.836,-16.336
19.05,-217.731,-16.53
19.09,-219.38,-16.668
19.12,-221.17,-16.897
19.15,-222.995,-16.931
19.18,-224.68,-17.023
19.22,-226.505,-17.229
19.25,-228.119,-17.275
19.28,-229.698,-17.516
19.31,-231.453,-17.733
19.35,-233.208,-17.882
19.38,-234.612,-18.054
19.41,-236.121,-18.237
19.44,-237.63,-18.421
19.48,-239.244,-18.581
19.51,-240.894,-18.753
19.54,-242.403,-18.925
19.57,-243.982,-19.199
19.61,-245.596,-19.406
19.64,-246.86,-19.44
19.67,-248.123,-19.669
19.7,-249.667,-19.956
19.74,-251.071,-20.001
19.77,-252.335,-20.253
19.8,-253.773,-20.597
19.84,-255.212,-20.7
19.87,-256.476,-20.861
19.9,-257.599,-20.964
19.93,-258.476,-21.055
19.97,-259.599,-21.239
20.0,-260.863,-21.456
20.03,-262.126,-21.559
20.06,-263.214,-21.685
20.1,-264.442,-21.937
20.13,-265.811,-22.178
20.16,-267.004,-22.247
20.19,-267.987,-22.476
20.23,-268.935,-22.739
20.26,-269.987,-22.991
20.29,-271.146,-23.243
20.32,-272.339,-23.358
20.36,-273.427,-23.518
20.39,-274.304,-23.667
20.42,-274.971,-23.816
20.45,-275.708,-23.999
20.49,-276.585,-24.091
20.52,-277.393,-24.16
20.55,-278.165,-24.32
20.58,-278.902,-24.354
20.62,-279.568,-24.481
20.65,-280.2,-24.526
20.68,-280.656,-24.503
20.71,-280.832,-24.458
20.75,-281.183,-24.549
20.78,-281.604,-24.584
20.81,-281.885,-24.469
20.84,-282.306,-24.675
20.88,-282.762,-24.733
20.91,-282.762,-24.492
20.94,-282.622,-24.469
20.97,-282.762,-24.4
21.01,-282.446,-24.171
21.04,-281.955,-24.091
21.07,-281.639,-23.999
21.11,-281.534,-23.999
21.14,-281.253,-23.885
21.17,-280.411,-23.644
21.2,-279.744,-23.679
21.24,-279.112,-23.346
21.27,-278.235,-23.129
21.3,-277.498,-23.152
21.33,-276.901,-22.888
21.37,-276.059,-22.762
21.4,-274.971,-22.533
21.43,-273.743,-22.258
21.46,-272.409,-22.063
21.5,-271.005,-21.834
21.53,-269.707,-21.674
21.56,-268.443,-21.445
21.59,-267.32,-21.342
21.63,-266.092,-21.181
21.66,-264.548,-20.941
21.69,-262.898,-20.803
21.72,-261.319,-20.62
21.76,-259.81,-20.448
21.79,-258.336,-20.368
21.82,-256.932,-20.15
21.85,-255.318,-19.91
21.89,-253.458,-19.887
21.92,-251.773,-19.887
21.95,-250.159,-19.681
21.98,-248.264,-19.555
22.02,-246.439,-19.452
22.05,-244.614,-19.234
22.08,-242.719,-19.108
22.11,-240.894,-19.108
22.15,-239.244,-18.925
22.18,-237.489,-18.867
22.21,-235.524,-18.81
22.25,-233.453,-18.615
22.28,-231.383,-18.535
22.31,-229.558,-18.535
22.34,-227.873,-18.409
22.38,-226.048,-18.168
22.41,-223.978,-18.111
22.44,-221.977,-18.146
22.47,-220.047,-18.123
22.51,-218.152,-18.031
22.54,-216.151,-17.939
22.57,-214.116,-17.871
22.6,-212.151,-17.859
22.64,-210.115,-17.756
22.67,-208.115,-17.71
22.7,-206.149,-17.779
22.73,-204.149,-17.596
22.77,-202.043,-17.447
22.8,-200.078,-17.412
22.83,-197.902,-17.195
22.86,-195.41,-17.103
22.9,-193.41,-17.241
22.93,-191.62,-17.069
22.96,-189.584,-16.851
22.99,-187.479,-16.794
23.03,-185.162,-16.633
23.06,-182.53,-16.324
23.09,-180.319,-16.416
23.12,-178.459,-16.267
23.16,-176.213,-16.003
23.19,-173.686,-15.935
23.22,-171.124,-15.648
23.25,-168.633,-15.465
23.29,-166.351,-15.408
23.32,-163.93,-14.961
23.35,-161.438,-14.778
23.39,-159.122,-14.594
23.42,-156.7,-14.285
23.45,-153.787,-14.022
23.48,-151.05,-13.896
23.52,-148.488,-13.689
23.55,-145.786,-13.495
23.58,-143.083,-13.254
23.61,-140.276,-12.853
23.65,-137.398,-12.567
23.68,-134.66,-12.361
23.71,-131.818,-12.074
23.74,-128.975,-11.719
23.78,-125.851,-11.444
23.81,-122.658,-11.089
23.84,-119.499,-10.665
23.87,-116.235,-10.379
23.91,-113.042,-9.955
23.94,-109.813,-9.623
23.97,-106.584,-9.256
24.0,-103.075,-8.763
24.04,-99.6,-8.477
24.07,-96.336,-8.053
24.1,-92.967,-7.572
24.13,-89.458,-7.228
24.17,-85.773,-6.793
24.2,-81.982,-6.312
24.23,-78.403,-6.014
24.26,-75.069,-5.693
24.3,-71.594,-5.247
24.33,-68.015,-4.949
24.36,-64.61,-4.697
24.39,-61.101,-4.319
24.43,-57.521,-4.078
24.46,-54.117,-3.941
24.49,-50.677,-3.735
24.53,-47.203,-3.414
24.56,-43.974,-3.288
24.59,-40.57,-2.967
24.62,-37.061,-2.715
24.66,-36.464,-2.211
24.69,-42.149,-0.756
24.72,-41.061,1.18
24.75,-30.252,1.272
24.79,-24.216,0.424
24.82,-22.215,0.229
24.85,-18.355,0.905
24.88,-7.932,1.535
24.92,3.545,1.329
24.95,11.371,0.63
24.98,14.073,0.435
25.01,18.6,0.447
25.05,17.863,0.71
25.08,12.459,1.73
25.11,17.197,2.131
25.14,21.935,1.902
25.18,25.304,1.077
25.21,26.778,0.733
25.24,28.603,0.882
25.27,31.094,1.478
25.31,35.376,2.257
25.34,40.254,2.589
25.37,44.887,2.681
25.4,48.747,2.681
25.44,52.046,2.646
25.47,54.959,2.726
25.5,58.012,3.024
25.53,61.346,3.322
25.57,64.891,3.54
25.6,68.33,3.757
25.63,71.735,3.883
25.67,74.893,4.021
25.7,77.946,4.17
25.73,80.789,4.273
25.76,83.632,4.422
25.8,86.44,4.628
25.83,89.493,4.869
25.86,92.546,5.132
25.89,95.424,5.247
25.93,98.267,5.579
25.96,101.285,5.911
25.99,104.233,6.094
26.02,106.9,6.369
26.06,109.673,6.69
26.09,112.656,6.999
26.12,115.849,7.354
26.15,118.832,7.584
26.19,121.921,7.893
26.22,124.939,8.34
26.25,128.027,8.603
26.28,131.081,9.016
26.32,134.274,9.497
26.35,137.398,9.794
26.38,140.381,10.15
26.41,143.364,10.493
26.45,146.382,10.837
26.48,149.471,11.181
26.51,152.348,11.456
26.54,155.226,11.753
26.58,158.174,12.097
26.61,161.122,12.349
26.64,163.895,12.544
26.67,166.632,12.876
26.71,169.475,13.14
26.74,172.177,13.266
26.77,174.985,13.609
26.81,177.933,13.907
26.84,180.775,14.102
26.87,183.478,14.445
26.9,186.11,14.675
26.94,188.461,14.823
26.97,190.813,15.11
27.0,193.304,15.305
27.03,195.48,15.259
27.07,197.726,15.373
27.1,200.008,15.614
27.13,202.148,15.511
27.16,204.114,15.694
27.2,206.009,15.763
27.23,207.799,15.625
27.26,209.554,15.82
27.29,211.378,15.98
27.33,213.168,15.912
27.36,215.028,16.129
27.39,217.064,16.324
27.42,218.924,16.359
27.46,220.538,16.519
27.49,222.293,16.668
27.52,224.048,16.828
27.55,225.838,17.057
27.59,227.487,17.137
27.62,229.031,17.252
27.65,230.927,17.722
27.68,232.927,17.882
27.72,234.436,17.928
27.75,235.77,18.283
27.78,237.384,18.455
27.81,239.139,18.569
27.85,240.858,18.879
27.88,242.368,18.947
27.91,243.771,19.119
27.94,245.386,19.578
27.98,246.895,19.692
28.01,248.088,19.715
28.04,249.352,19.967
28.08,250.755,20.104
28.11,252.159,20.196
28.14,253.493,20.471
28.17,254.791,20.654
28.21,255.949,20.712
28.24,257.213,20.952
28.27,258.371,21.021
28.3,259.354,21.158
28.34,260.442,21.399
28.37,261.775,21.445
28.4,263.039,21.571
28.43,264.162,21.754
28.47,265.215,22.018
28.5,266.338,22.235
28.53,267.426,22.441
28.56,268.513,22.602
28.6,269.531,22.797
28.63,270.654,23.026
28.66,271.848,23.209
28.69,272.971,23.346
28.73,273.848,23.507
28.76,274.62,23.724
28.79,275.497,23.885
28.82,276.34,24.045
28.86,277.147,24.183
28.89,277.919,24.263
28.92,278.796,24.332
28.95,279.323,24.377
28.99,279.814,24.435
29.02,280.305,24.377
29.05,280.797,24.481
29.08,281.253,24.538
29.12,281.674,24.526
29.15,282.13,24.584
29.18,282.552,24.664
29.22,282.832,24.664
29.25,282.867,24.629
29.28,282.797,24.561
29.31,282.762,24.435
29.35,282.516,24.343
29.38,282.201,24.228
29.41,282.06,24.125
29.44,281.99,24.148
29.48,281.709,24.022
29.51,281.148,23.816
29.54,280.446,23.828
29.57,279.814,23.598
29.61,279.077,23.415
29.64,278.445,23.323
29.67,277.884,23.06
29.7,277.077,22.991
29.74,276.55,23.106
29.77,276.445,23.278
29.8,276.234,23.323
29.83,275.533,23.278
29.87,274.62,23.381
29.9,273.883,23.404
29.93,273.181,23.323
29.96,272.269,23.14
30.0,270.935,22.945
30.03,269.321,22.625
30.06,267.741,22.235
30.09,266.197,21.857
30.13,264.372,21.491
30.16,262.477,21.158
30.19,260.547,20.838
30.22,258.687,20.425
30.26,256.792,20.07
30.29,254.791,19.692
30.32,252.335,19.314
30.36,249.983,19.131
30.39,247.948,18.959
30.42,245.842,18.592
30.45,243.666,18.329
30.49,241.736,18.455
30.52,239.735,18.088
30.55,237.489,17.813
30.58,235.208,17.962
30.62,233.208,17.779
30.65,231.067,17.699
30.68,229.102,17.756
30.71,227.101,17.561
30.75,225.066,17.458
30.78,222.925,17.47
30.81,220.714,17.275
30.84,218.573,17.229
30.88,216.467,17.241
30.91,214.362,17.057
30.94,212.326,17.057
30.97,210.185,17.069
31.01,208.044,16.92
31.04,205.904,17.069
31.07,204.114,17.092
31.1,201.797,16.714
31.14,199.446,16.805
31.17,197.621,16.885
31.2,195.656,16.507
31.23,193.69,16.702
31.27,191.936,16.805
31.3,189.584,16.462
31.33,186.952,16.588
31.36,184.811,16.553
31.4,182.741,16.221
31.43,180.495,16.129
31.46,178.178,16.015
31.5,175.827,15.889
31.53,173.721,15.946
31.56,171.545,15.763
31.59,168.948,15.316
31.63,166.141,15.213
31.66,163.614,15.075
31.69,161.017,14.663
31.72,158.42,14.48
31.76,155.963,14.308
31.79,153.471,14.09
31.82,150.699,13.827
31.85,147.681,13.483
31.89,144.838,13.266
31.92,142.276,13.014
31.95,139.644,12.624
31.98,136.52,12.303
32.02,133.537,12.189
32.05,130.73,11.983
32.08,127.887,11.673
32.11,124.834,11.318
32.15,121.71,10.917
32.18,118.13,10.47
32.21,113.568,9.313
32.24,108.058,8.237
32.28,103.11,7.606
32.31,99.495,6.999
32.34,96.021,6.266
32.37,92.336,5.613
32.41,88.545,5.338
32.44,85.211,5.224
32.47,81.982,5.166
32.5,78.578,5.098
32.54,75.209,4.949
32.57,71.98,4.892
32.6,68.787,4.96
32.64,66.084,5.075
32.67,63.487,5.052
32.7,60.504,5.075
32.73,57.451,5.201
32.77,54.643,5.189
32.8,51.73,5.189
32.83,48.888,5.04
32.86,45.694,4.788
32.9,42.606,4.651
32.93,39.342,4.376
32.96,36.569,4.158
32.99,37.727,3.311
33.03,44.36,1.489
33.06,46.677,-0.79
33.09,36.955,-1.478
33.12,29.234,-0.596
33.16,27.199,-0.218
33.19,24.075,-0.859
33.22,13.933,-1.661
33.25,0.702,-1.615
33.29,-8.809,-0.859
33.32,-12.634,-0.47
33.35,-16.425,-0.515
33.38,-18.25,-0.676
33.42,-13.196,-1.363
33.45,-15.266,-1.867
33.48,-19.934,-1.718
33.51,-23.058,-1.054
33.55,-24.953,-0.768
33.58,-26.813,-0.928
33.61,-29.655,-1.466
33.64,-33.797,-2.142
33.68,-38.78,-2.623
33.71,-43.729,-2.715
33.74,-47.905,-2.715
33.77,-51.414,-2.761
33.81,-54.538,-2.795
33.84,-57.521,-3.013
33.87,-60.645,-3.23
33.91,-63.908,-3.471
33.94,-67.137,-3.677
33.97,-70.471,-3.826
34.0,-73.524,-3.975
34.04,-76.613,-4.078
34.07,-79.701,-4.284
34.1,-82.79,-4.479
34.13,-85.878,-4.731
34.17,-89.072,-4.88
34.2,-92.055,-5.075
34.23,-94.862,-5.361
34.26,-97.67,-5.533
34.3,-100.443,-5.819
34.33,-103.496,-6.22
34.36,-106.479,-6.404
34.39,-109.497,-6.667
34.43,-112.445,-7.068
34.46,-115.498,-7.32
34.49,-118.517,-7.629
34.52,-121.535,-7.996
34.56,-124.518,-8.259
34.59,-127.431,-8.58
34.62,-130.449,-8.901
34.65,-133.643,-9.268
34.69,-136.766,-9.577
34.72,-139.854,-9.898
34.75,-142.873,-10.195
34.78,-145.786,-10.528
34.82,-148.663,-10.86
34.85,-151.576,-11.226
34.88,-154.454,-11.616
34.91,-157.507,-11.902
34.95,-160.561,-12.223
34.98,-163.368,-12.349
35.01,-165.965,-12.693
35.05,-168.808,-13.071
35.08,-171.721,-13.231
35.11,-174.564,-13.54
35.14,-177.441,-13.85
35.18,-180.074,-14.01
35.21,-182.741,-14.331
35.24,-185.478,-14.583
35.27,-187.935,-14.697
35.31,-190.356,-14.904
35.34,-192.673,-15.098
35.37,-194.919,-15.133
35.4,-197.305,-15.373
35.44,-199.902,-15.534
35.47,-202.113,-15.419
35.5,-204.008,-15.637
35.53,-206.044,-15.786
35.57,-207.939,-15.889
35.6,-209.799,-15.992
35.63,-211.87,-16.152
35.66,-214.011,-16.278
35.7,-216.081,-16.37
35.73,-217.906,-16.53
35.76,-219.661,-16.714
35.79,-221.416,-16.908
35.83,-223.416,-17.069
35.86,-225.276,-17.229
35.89,-227.031,-17.458
35.92,-228.786,-17.619
35.96,-230.435,-17.733
35.99,-232.155,-17.882
36.02,-233.91,-17.997
36.05,-235.384,-18.1
36.09,-236.752,-18.295
36.12,-238.402,-18.421
36.15,-240.157,-18.627
36.19,-241.876,-18.856
36.22,-243.385,-18.993
36.25,-244.824,-19.257
36.28,-246.228,-19.474
36.32,-247.527,-19.555
36.35,-248.825,-19.669
36.38,-250.264,-19.818
36.41,-251.668,-19.967
36.45,-252.931,-20.127
36.48,-254.195,-20.379
36.51,-255.493,-20.597
36.54,-256.862,-20.7
36.58,-258.125,-20.792
36.61,-259.003,-20.883
36.64,-259.985,-21.101
36.67,-261.073,-21.17
36.71,-262.126,-21.296
36.74,-263.354,-21.536
36.77,-264.758,-21.754
36.8,-265.952,-21.972
36.84,-266.899,-22.098
36.87,-267.847,-22.292
36.9,-268.97,-22.545
36.93,-270.198,-22.625
36.97,-271.181,-22.865
37.0,-272.339,-23.14
37.03,-273.357,-23.346
37.06,-274.199,-23.53
37.1,-275.111,-23.587
37.13,-275.813,-23.621
37.16,-276.445,-23.805
37.19,-277.252,-23.873
37.23,-278.094,-24.022
37.26,-278.972,-24.171
37.29,-279.604,-24.171
37.33,-280.025,-24.332
37.36,-280.516,-24.412
37.39,-280.902,-24.309
37.42,-281.113,-24.206
37.46,-281.148,-24.217
37.49,-281.534,-24.32
37.52,-281.779,-24.309
37.55,-281.815,-24.343
37.59,-281.92,-24.354
37.62,-282.06,-24.171
37.65,-281.85,-23.976
37.68,-281.534,-23.862
37.72,-281.218,-23.713
37.75,-280.902,-23.702
37.78,-280.762,-23.713
37.81,-280.656,-23.644
37.85,-280.165,-23.53
37.88,-279.323,-23.427
37.91,-278.481,-23.312
37.94,-277.814,-23.037
37.98,-277.217,-23.003
38.01,-276.55,-22.888
38.04,-275.603,-22.693
38.07,-274.585,-22.545
38.11,-273.532,-22.315
38.14,-272.339,-22.121
38.17,-271.075,-21.937
38.2,-269.777,-21.754
38.24,-268.549,-21.571
38.27,-267.461,-21.479
38.3,-266.302,-21.319
38.33,-264.828,-21.055
38.37,-263.354,-20.952
38.4,-261.845,-20.78
38.43,-260.266,-20.574
38.47,-258.652,-20.288
38.5,-257.072,-20.23
38.53,-255.598,-20.082
38.56,-253.773,-19.738
38.6,-251.878,-19.761
38.63,-250.229,-19.749
38.66,-248.439,-19.543
38.69,-246.649,-19.44
38.73,-245.14,-19.406
38.76,-243.456,-19.234
38.79,-241.525,-19.085
38.82,-239.7,-19.085
38.86,-237.875,-19.005
38.89,-235.98,-18.867
38.92,-234.225,-18.867
38.95,-232.471,-18.695
38.99,-230.576,-18.558
39.02,-228.786,-18.558
39.05,-226.926,-18.466
39.08,-224.89,-18.295
39.12,-222.925,-18.249
39.15,-221.03,-18.249
39.18,-219.099,-18.123
39.21,-216.888,-17.939
39.25,-214.607,-17.859
39.28,-212.782,-17.871
39.31,-211.203,-17.722
39.34,-209.132,-17.607
39.38,-206.992,-17.619
39.41,-204.886,-17.47
39.44,-202.64,-17.309
39.47,-200.323,-17.298
39.51,-198.253,-17.16
39.54,-196.323,-17.011
39.57,-194.427,-16.931
39.6,-192.216,-16.863
39.64,-189.83,-16.794
39.67,-187.654,-16.714
39.7,-185.548,-16.507
39.74,-183.232,-16.301
39.77,-180.705,-16.244
39.8,-178.284,-15.946
39.83,-175.932,-15.797
39.87,-173.756,-15.671
39.9,-171.545,-15.396
39.93,-169.089,-15.282
39.96,-166.667,-15.075
40.0,-164.105,-14.915
40.03,-161.543,-14.755
40.06,-158.876,-14.457
40.09,-156.454,-14.308
40.13,-153.928,-13.987
40.16,-151.155,-13.678
40.19,-148.277,-13.46
40.22,-145.54,-13.231
40.26,-142.767,-12.979
40.29,-139.96,-12.681
40.32,-137.117,-12.361
40.35,-134.344,-12.12
40.39,-131.432,-11.96
40.42,-128.378,-11.65
40.45,-125.325,-11.307
40.48,-122.307,-11.066
40.52,-119.218,-10.665
40.55,-116.095,-10.23
40.58,-112.936,-9.875
40.61,-109.673,-9.439
40.65,-106.479,-9.13
40.68,-103.25,-8.878
40.71,-99.846,-8.466
40.74,-96.336,-8.042
40.78,-92.686,-7.698
40.81,-89.037,-7.251
40.84,-85.457,-6.828
40.88,-82.088,-6.427
40.91,-78.859,-5.945
40.94,-75.349,-5.705
40.97,-71.805,-5.441
41.01,-68.225,-5.086
41.04,-64.716,-4.731
41.07,-61.311,-4.41
41.1,-57.767,-4.158
41.14,-54.222,-3.929
41.17,-50.783,-3.757
41.2,-47.554,-3.54
41.23,-44.185,-3.276
41.27,-40.43,-3.059
41.3,-37.201,-2.738
41.33,-37.306,-1.97
41.36,-42.044,-0.515
41.4,-39.342,1.203
41.43,-28.918,1.18
41.46,-22.917,0.493
41.49,-20.39,0.309
41.53,-16.003,0.939
41.56,-5.966,1.455
41.59,4.597,1.191
41.62,11.125,0.481
41.66,13.126,0.367
41.69,16.951,0.447
41.72,15.302,0.962
41.75,12.073,1.569
41.79,16.565,1.913
41.82,20.917,1.615
41.85,23.97,0.882
41.88,25.865,0.779
41.92,28.111,0.997
41.95,31.235,1.604
41.98,35.622,2.211
42.02,40.254,2.44
42.05,44.676,2.463
42.08,48.186,2.44
42.11,51.239,2.394
42.15,53.941,2.52
42.18,56.749,2.784
42.21,59.908,3.07
42.24,63.347,3.311
42.28,66.751,3.505
42.31,70.155,3.654
42.34,73.524,3.849
42.37,76.894,4.067
42.41,80.298,4.319
42.44,83.737,4.559
42.47,87.141,4.766
42.5,90.335,4.972
42.54,93.248,5.121
42.57,95.845,5.361
42.6,98.442,5.739
42.63,101.215,6.014
42.67,104.198,6.392
42.7,107.497,6.656
42.73,110.585,6.919
42.76,113.673,7.354
42.8,116.797,7.629
42.83,119.78,7.916
42.86,122.728,8.317
42.89,125.746,8.649
42.93,128.87,8.878
42.96,132.028,9.187
42.99,135.187,9.497
43.02,138.205,9.817
43.06,141.118,10.195
43.09,144.101,10.447
43.12,146.979,10.688
43.16,149.786,11.112
43.19,152.664,11.226
43.22,155.507,11.49
43.25,158.385,11.948
43.29,161.192,12.074
43.32,164.0,12.315
43.35,166.878,12.59
43.38,169.65,12.773
43.42,172.282,13.025
43.45,174.95,13.369
43.48,177.757,13.712
43.51,180.565,14.056
43.55,183.267,14.434
43.58,185.934,14.549
43.61,188.496,14.64
43.64,190.953,14.858
43.68,193.199,14.904
43.71,195.2,15.064
43.74,197.551,15.316
43.77,200.043,15.259
43.81,202.219,15.328
43.84,204.149,15.499
43.87,205.974,15.488
43.9,207.693,15.568
43.94,209.764,15.74
43.97,211.905,15.82
44.0,213.765,15.912
44.03,215.555,16.084
44.07,217.45,16.29
44.1,219.275,16.519
44.13,221.1,16.622
44.16,222.749,16.748
44.2,224.504,16.943
44.23,226.294,17.069
44.26,227.908,17.137
44.3,229.382,17.321
44.33,231.207,17.687
44.36,233.102,17.825
44.39,234.892,17.894
44.43,236.156,18.031
44.46,237.56,18.237
44.49,239.314,18.501
44.52,240.964,18.569
44.56,242.227,18.638
44.59,243.666,19.005
44.62,245.175,19.177
44.65,246.404,19.142
44.69,247.702,19.429
44.72,249.246,19.669
44.75,250.755,19.83
44.78,252.229,20.001
44.82,253.528,20.185
44.85,254.721,20.437
44.88,256.02,20.666
44.91,257.353,20.838
44.95,258.546,20.964
44.98,259.74,21.101
45.01,260.863,21.239
45.04,261.88,21.353
45.08,262.898,21.594
45.11,264.091,21.811
45.14,265.46,22.018
45.17,266.724,22.075
45.21,267.671,22.166
45.24,268.654,22.487
45.27,269.742,22.693
45.3,270.935,22.877
45.34,272.058,23.14
45.37,273.181,23.358
45.4,274.164,23.541
45.43,274.971,23.633
45.47,275.708,23.747
45.5,276.305,23.896
45.53,277.007,23.931
45.57,277.954,23.988
45.6,278.867,24.148
45.63,279.533,24.114
45.66,279.955,24.114
45.7,280.2,24.194
45.73,280.656,24.297
45.76,281.288,24.366
45.79,281.709,24.32
45.83,281.955,24.309
45.86,282.376,24.446
45.89,282.727,24.515
45.92,282.727,24.446
45.96,282.622,24.32
45.99,282.552,24.217
46.02,282.481,24.125
46.05,282.306,24.034
46.09,282.166,23.988
46.12,281.955,23.885
46.15,281.604,23.908
46.18,281.113,23.77
46.22,280.411,23.598
46.25,279.919,23.53
46.28,279.288,23.266
46.31,278.831,23.301
46.35,278.831,23.484
46.38,278.621,23.312
46.41,277.708,23.266
46.44,276.445,23.14
46.48,275.252,22.911
46.51,274.059,22.693
46.54,272.585,22.247
46.57,271.075,21.937
46.61,269.461,21.479
46.64,267.706,21.135
46.67,266.092,20.849
46.71,264.407,20.414
46.74,262.653,20.116
46.77,260.722,19.898
46.8,258.968,19.772
46.84,257.318,19.623
46.87,255.634,19.383
46.9,253.633,19.108
46.93,251.562,19.039
46.97,249.667,18.81
47.0,247.702,18.547
47.03,245.912,18.524
47.06,243.982,18.329
47.1,241.771,18.214
47.13,239.911,18.191
47.16,238.191,18.157
47.19,236.436,18.054
47.23,234.436,18.008
47.26,232.26,18.02
47.29,230.154,17.962
47.32,228.329,17.985
47.36,226.61,17.836
47.39,224.469,17.573
47.42,222.363,17.642
47.45,220.433,17.664
47.49,218.468,17.493
47.52,216.502,17.538
47.55,214.642,17.561
47.58,212.677,17.47
47.62,210.747,17.573
47.65,208.817,17.504
47.68,206.886,17.481
47.71,205.272,17.63
47.75,203.307,17.412
47.78,201.025,17.355
47.81,199.06,17.481
47.85,197.34,17.332
47.88,195.551,17.321
47.91,193.445,17.355
47.94,191.164,17.206
47.98,189.304,17.229
48.01,187.654,17.149
48.04,185.654,16.828
48.07,183.302,16.805
48.11,180.881,16.714
48.14,178.635,16.485
48.17,176.459,16.313
48.2,174.283,16.175
48.24,171.861,15.923
48.27,169.405,15.832
48.3,167.088,15.728
48.33,164.877,15.522
48.37,162.28,15.087
48.4,159.578,14.697
48.43,156.876,14.549
48.46,154.419,14.342
48.5,151.962,14.125
48.53,149.33,13.907
48.56,146.593,13.632
48.59,143.855,13.403
48.63,140.942,13.059
48.66,137.959,12.727
48.69,135.046,12.361
48.72,132.204,12.131
48.76,129.326,11.776
48.79,126.237,11.318
48.82,122.833,10.997
48.85,119.429,10.551
48.89,115.99,10.127
48.92,112.585,9.829
48.95,109.392,9.359
48.99,106.128,8.935
49.02,102.583,8.569
49.05,99.039,8.099
49.08,95.424,7.744
49.12,92.055,7.332
49.15,88.721,6.999
49.18,85.281,6.656
49.21,81.947,6.358
49.25,78.613,6.175
49.28,75.349,5.98
49.31,72.296,5.774
49.34,69.032,5.625
49.38,65.839,5.35
49.41,62.469,5.109
49.44,58.96,4.811
49.47,55.45,4.559
49.51,52.151,4.387
49.54,48.817,4.055
49.57,45.448,3.757
49.6,41.833,3.528
49.64,38.499,3.116
49.67,38.394,2.28
49.7,43.307,0.745
49.73,42.255,-1.088
49.77,32.147,-1.317
49.8,25.269,-0.607
49.83,22.426,-0.367
49.86,18.25,-0.928
49.9,8.423,-1.478
49.93,-2.492,-1.317
49.96,-10.002,-0.653
49.99,-12.564,-0.424
50.03,-16.74,-0.55
50.06,-16.074,-1.042
50.09,-12.88,-1.695
50.13,-17.653,-2.085
50.16,-22.601,-1.925
50.19,-25.9,-1.272
50.22,-27.795,-1.031
50.26,-29.761,-1.26
50.29,-32.603,-1.821
50.32,-36.71,-2.474
50.35,-41.307,-2.852
50.39,-45.589,-2.807
50.42,-49.133,-2.738
50.45,-52.222,-2.749
50.48,-54.994,-2.807
50.52,-57.802,-3.001
50.55,-60.96,-3.253
50.58,-64.33,-3.505
50.61,-67.699,-3.666
50.65,-71.033,-3.769
50.68,-74.226,-3.918
50.71,-77.35,-4.067
50.74,-80.438,-4.25
50.78,-83.632,-4.456
50.81,-86.931,-4.639
50.84,-90.195,-4.834
50.87,-93.388,-5.052
50.91,-96.301,-5.27
50.94,-98.969,-5.487
50.97,-101.601,-5.797
51.0,-104.514,-6.14
51.04,-107.462,-6.381
51.07,-110.374,-6.736
51.1,-113.498,-7.102
51.13,-116.516,-7.343
51.17,-119.394,-7.641
51.2,-122.307,-7.973
51.23,-125.185,-8.259
51.26,-128.203,-8.569
51.3,-131.432,-8.901
51.33,-134.59,-9.187
51.36,-137.608,-9.565
51.4,-140.591,-9.863
51.43,-143.645,-10.161
51.46,-146.768,-10.573
51.49,-149.681,-10.929
51.53,-152.419,-11.215
51.56,-155.261,-11.524
51.59,-158.279,-11.971
51.62,-161.368,-12.166
51.66,-164.14,-12.326
51.69,-166.878,-12.727
51.72,-169.58,-12.933
51.75,-172.423,-13.128
51.79,-175.195,-13.518
51.82,-178.003,-13.689
51.85,-180.74,-13.953
51.88,-183.548,-14.331
51.92,-186.145,-14.4
51.95,-188.426,-14.686
51.98,-190.883,-15.064
52.01,-193.234,-15.11
52.05,-195.445,-15.202
52.08,-197.691,-15.362
52.11,-200.008,-15.396
52.14,-202.289,-15.396
52.18,-204.359,-15.499
52.21,-206.36,-15.637
52.24,-208.115,-15.625
52.27,-209.834,-15.809
52.31,-211.765,-15.946
52.34,-213.8,-16.015
52.37,-215.836,-16.221
52.4,-217.836,-16.359
52.44,-219.661,-16.507
52.47,-221.346,-16.668
52.5,-223.03,-16.817
52.54,-224.82,-16.966
52.57,-226.364,-17.069
52.6,-228.014,-17.218
52.63,-229.733,-17.378
52.67,-231.453,-17.527
52.7,-233.173,-17.699
52.73,-234.857,-17.836
52.76,-236.401,-18.054
52.8,-237.805,-18.26
52.83,-239.314,-18.432
52.86,-240.894,-18.65
52.89,-242.438,-18.799
52.93,-243.842,-18.97
52.96,-245.035,-19.268
52.99,-246.474,-19.417
53.02,-247.913,-19.52
53.06,-249.281,-19.738
53.09,-250.755,-19.99
53.12,-252.089,-20.15
53.15,-253.493,-20.345
53.19,-255.142,-20.654
53.22,-256.511,-20.815
53.25,-257.458,-20.906
53.28,-258.546,-21.158
53.32,-259.845,-21.239
53.35,-261.038,-21.319
53.38,-262.161,-21.514
53.41,-263.319,-21.72
53.45,-264.548,-21.857
53.48,-265.706,-22.086
53.51,-266.934,-22.315
53.54,-268.127,-22.567
53.58,-269.04,-22.693
53.61,-269.847,-22.831
53.64,-270.97,-23.129
53.68,-272.304,-23.358
53.71,-273.567,-23.53
53.74,-274.55,-23.644
53.77,-275.182,-23.656
53.81,-275.848,-23.908
53.84,-276.62,-24.022
53.87,-277.357,-24.057
53.9,-278.2,-24.194
53.94,-279.112,-24.16
53.97,-279.639,-24.286
54.0,-280.165,-24.297
54.03,-280.586,-24.297
54.07,-280.902,-24.4
54.1,-281.218,-24.274
54.13,-281.499,-24.263
54.16,-281.885,-24.366
54.2,-282.306,-24.446
54.23,-282.587,-24.458
54.26,-282.622,-24.366
54.29,-282.622,-24.389
54.33,-282.552,-24.206
54.36,-282.201,-24.068
54.39,-281.885,-24.068
54.42,-281.709,-24.045
54.46,-281.674,-24.068
54.49,-281.393,-23.954
54.52,-280.762,-23.713
54.55,-279.919,-23.587
54.59,-279.147,-23.369
54.62,-278.34,-23.175
54.65,-277.603,-23.037
54.68,-276.796,-22.785
54.72,-275.883,-22.625
54.75,-274.831,-22.464
54.78,-273.708,-22.201
54.82,-272.549,-22.018
54.85,-271.251,-21.8
54.88,-269.882,-21.491
54.91,-268.408,-21.388
54.95,-267.18,-21.204
54.98,-266.057,-20.941
55.01,-264.618,-20.757
55.04,-262.863,-20.62
55.08,-261.038,-20.471
55.11,-259.494,-20.265
55.14,-258.09,-20.104
55.17,-256.546,-19.875
55.21,-254.826,-19.749
55.24,-252.966,-19.52
55.27,-251.282,-19.555
55.3,-249.878,-19.566
55.34,-248.123,-19.268
55.37,-246.088,-19.28
55.4,-244.438,-19.177
55.43,-242.578,-18.902
55.47,-240.683,-18.925
55.5,-238.963,-18.821
55.53,-237.173,-18.753
55.56,-235.278,-18.764
55.6,-233.313,-18.581
55.63,-231.348,-18.478
55.66,-229.558,-18.375
55.69,-227.838,-18.34
55.73,-226.013,-18.352
55.76,-223.978,-18.214
55.79,-221.907,-18.237
55.82,-219.942,-18.123
55.86,-217.976,-17.974
55.89,-216.046,-17.962
55.92,-214.151,-17.836
55.96,-212.115,-17.802
55.99,-210.045,-17.813
56.02,-208.044,-17.642
56.05,-205.939,-17.596
56.09,-204.008,-17.607
56.12,-202.043,-17.344
56.15,-199.973,-17.218
56.18,-197.762,-17.183
56.22,-195.621,-17.023
56.25,-193.515,-17.046
56.28,-191.55,-17.0
56.31,-189.514,-16.908
56.35,-187.444,-16.679
56.38,-185.162,-16.565
56.41,-182.741,-16.37
56.44,-180.319,-16.233
56.48,-178.354,-16.233
56.51,-176.283,-16.106
56.54,-173.862,-15.809
56.57,-171.335,-15.751
56.61,-168.878,-15.637
56.64,-166.386,-15.328
56.67,-163.895,-15.053
56.7,-161.333,-14.789
56.74,-158.701,-14.514
56.77,-156.244,-14.342
56.8,-153.787,-14.09
56.83,-151.015,-13.77
56.87,-148.207,-13.495
56.9,-145.329,-13.266
56.93,-142.557,-12.979
56.96,-139.819,-12.578
57.0,-137.082,-12.372
57.03,-134.239,-12.235
57.06,-131.432,-11.914
57.09,-128.554,-11.662
57.13,-125.641,-11.513
57.16,-122.728,-11.181
57.19,-119.569,-10.803
57.23,-116.376,-10.47
57.26,-113.217,-10.081
57.29,-110.094,-9.783
57.32,-106.97,-9.428
57.36,-103.671,-9.038
57.39,-100.162,-8.649
57.42,-96.687,-8.259
57.45,-93.178,-7.767
57.49,-89.563,-7.24
57.52,-85.913,-6.85
57.55,-82.228,-6.427
57.58,-78.648,-5.934
57.62,-75.034,-5.602
57.65,-71.629,-5.396
57.68,-68.26,-4.926
57.71,-64.751,-4.559
57.75,-61.241,-4.433
57.78,-57.802,-4.067
57.81,-54.292,-3.78
57.84,-50.958,-3.677
57.88,-47.554,-3.368
57.91,-44.08,-3.242
57.94,-40.57,-3.139
57.97,-37.447,-2.784
58.01,-38.148,-1.844
58.04,-43.658,-0.263
58.07,-39.447,1.398
58.1,-28.357,1.157
58.14,-23.303,0.355
58.17,-21.338,0.309
58.2,-16.354,1.111
58.23,-4.913,1.558
58.27,5.826,1.168
58.3,12.143,0.435
58.33,13.828,0.412
58.37,18.355,0.435
58.4,15.407,1.065
58.43,12.424,1.913
58.46,18.179,2.062
58.5,22.321,1.673
58.53,25.198,0.859
58.56,26.532,0.768
58.59,28.638,1.077
58.63,31.656,1.718
58.66,36.183,2.291
58.69,40.746,2.509
58.72,44.957,2.474
58.76,48.326,2.44
58.79,51.274,2.406
58.82,53.976,2.52
58.85,56.96,2.761
58.89,60.083,3.036
58.92,63.593,3.311
58.95,67.137,3.528
58.98,70.541,3.666
59.02,73.911,3.849
59.05,77.245,4.044
59.08,80.579,4.25
59.11,83.878,4.536
59.15,87.247,4.766
59.18,90.475,4.937
59.21,93.388,5.178
59.24,96.126,5.487
59.28,98.653,5.693
59.31,101.109,5.98
59.34,104.022,6.427
59.37,107.251,6.667
59.41,110.515,6.919
59.44,113.638,7.263
59.47,116.656,7.549
59.51,119.71,7.859
59.54,122.728,8.214
59.57,125.711,8.569
59.6,128.694,8.912
59.64,131.502,9.21
59.67,134.695,9.6
59.7,138.065,10.001
59.73,141.188,10.241
59.77,144.136,10.505
59.8,147.049,10.768
59.83,149.927,11.112
59.86,152.875,11.375
59.9,155.753,11.639
59.93,158.595,11.994
59.96,161.543,12.269
59.99,164.491,12.509
60.03,167.159,12.807
60.06,169.791,13.059
60.09,172.423,13.266
60.12,175.02,13.586
60.16,177.898,13.861
60.19,180.811,14.056
60.22,183.548,14.239
60.25,186.145,14.457
60.29,188.602,14.571
60.32,190.848,14.652
60.35,193.094,14.961
60.38,195.34,15.156
60.42,197.621,15.133
60.45,199.937,15.35
60.48,202.184,15.396
60.51,204.079,15.35
60.55,205.833,15.557
60.58,207.693,15.683
60.61,209.624,15.763
60.65,211.729,15.969
60.68,214.046,15.992
60.71,215.836,16.026
60.74,217.485,16.359
60.78,219.205,16.53
60.81,220.819,16.576
60.84,222.433,16.782
60.87,224.258,16.885
60.91,226.083,16.943
60.94,227.979,17.195
60.97,229.698,17.424
61.0,231.207,17.504
61.04,232.822,17.813
61.07,234.471,18.031
61.1,236.05,18.088
61.13,237.665,18.317
61.17,239.069,18.501
61.2,240.437,18.65
61.23,242.052,19.062
61.26,243.701,19.119
61.3,245.105,19.257
61.33,246.719,19.589
61.36,248.053,19.474
61.39,249.211,19.784
61.43,250.685,20.162
61.46,252.054,20.15
61.49,253.247,20.46
61.52,254.651,20.723
61.56,256.055,20.792
61.59,257.248,20.872
61.62,258.336,20.987
61.65,259.599,21.204
61.69,260.793,21.319
61.72,261.916,21.491
61.75,262.898,21.731
61.79,264.091,21.926
61.82,265.495,22.166
61.85,266.689,22.247
61.88,267.601,22.419
61.92,268.654,22.751
61.95,269.847,22.957
61.98,271.04,23.037
62.01,272.163,23.255
62.05,273.076,23.507
62.08,273.988,23.633
62.11,274.76,23.782
62.14,275.497,23.885
62.18,276.305,23.999
62.21,277.182,24.102
62.24,278.059,24.183
62.27,278.761,24.412
62.31,279.393,24.458
62.34,279.849,24.492
62.37,280.446,24.549
62.4,281.007,24.561
62.44,281.499,24.538
62.47,281.674,24.435
62.5,282.025,24.629
62.53,282.657,24.916
62.57,282.938,24.641
62.6,282.762,24.641
62.63,282.657,24.664
62.66,282.903,24.469
62.7,282.797,24.389
62.73,282.411,24.309
62.76,282.06,24.251
62.79,281.99,24.263
62.83,281.885,24.057
62.86,281.253,23.896
62.89,280.516,23.896
62.92,279.884,23.564
62.96,279.147,23.369
62.99,278.481,23.175
63.02,277.814,23.06
63.06,277.112,23.003
63.09,276.305,22.682
63.12,275.041,22.545
63.15,273.637,22.407
63.19,272.304,21.983
63.22,270.9,21.834
63.25,269.531,21.617
63.28,268.057,21.227
63.32,266.513,20.987
63.35,264.828,20.677
63.38,263.144,20.528
63.41,261.565,20.391
63.45,259.95,20.208
63.48,258.336,20.059
63.51,256.757,19.726
63.54,255.072,19.623
63.58,253.282,19.589
63.61,251.422,19.452
63.64,249.808,19.463
63.67,248.334,19.383
63.71,246.368,19.096
63.74,244.298,19.085
63.77,242.683,19.051
63.8,241.139,18.81
63.84,239.244,18.741
63.87,237.314,18.718
63.9,235.278,18.638
63.93,233.138,18.501
63.97,231.067,18.386
64.0,229.242,18.214
64.03,227.382,18.02
64.06,225.452,18.088
64.1,223.346,17.974
64.13,221.346,17.951
64.16,219.661,18.191
64.2,217.976,18.088
64.23,216.222,18.008
64.26,214.326,18.077
64.29,212.291,17.962
64.33,210.326,18.031
64.36,208.571,18.077
64.39,206.676,17.848
64.42,204.781,17.974
64.46,202.71,17.939
64.49,200.464,17.561
64.52,198.463,17.699
64.55,196.533,17.561
64.59,194.322,17.149
64.62,192.181,17.275
64.65,190.427,17.298
64.68,188.216,16.874
64.72,185.689,16.817
64.75,183.443,16.794
64.78,181.056,16.404
64.81,178.81,16.324
64.85,176.915,16.141
64.88,174.739,15.832
64.91,172.107,15.889
64.94,169.44,15.602
64.98,166.702,15.27
65.01,164.175,15.236
65.04,161.684,14.869
65.07,158.981,14.526
65.11,156.314,14.274
65.14,153.471,13.884
65.17,150.839,13.815
65.2,148.277,13.609
65.24,145.435,13.231
65.27,142.522,12.945
65.3,139.714,12.658
65.34,136.801,12.441
65.37,134.099,12.246
65.4,131.361,12.04
65.43,128.554,11.753
65.47,125.641,11.513
65.5,122.588,11.146
65.53,119.394,10.78
65.56,116.13,10.516
65.6,112.831,10.035
65.63,109.532,9.772
65.66,106.584,9.497
65.69,103.496,8.947
65.73,100.056,8.592
65.76,96.512,8.237
65.79,92.967,7.927
65.82,89.493,7.492
65.86,85.948,7.022
65.89,82.474,6.793
65.92,78.964,6.358
65.95,75.56,5.957
65.99,72.226,5.785
66.02,68.787,5.441
66.05,65.277,5.098
66.08,61.873,4.914
66.12,58.504,4.491
66.15,54.854,4.204
66.18,51.45,4.009
66.21,48.08,3.62
66.25,44.641,3.322
66.28,40.886,3.07
66.31,38.043,2.658
66.34,39.833,1.673
66.38,43.799,-0.092
66.41,37.938,-1.409
66.44,28.322,-0.974
66.48,24.251,-0.321
66.51,22.285,-0.447
66.54,16.46,-1.168
66.57,5.545,-1.501
66.61,-4.141,-1.042
66.64,-9.441,-0.493
66.67,-11.967,-0.47
66.7,-16.039,-0.653
66.74,-12.88,-1.272
66.77,-12.494,-1.902
66.8,-18.39,-1.97
66.83,-22.461,-1.409
66.87,-24.918,-0.916
66.9,-26.497,-0.836
66.93,-28.813,-1.168
66.96,-32.147,-1.844
67.0,-36.429,-2.36
67.03,-40.991,-2.532
67.06,-45.132,-2.532
67.09,-48.361,-2.44
67.13,-51.204,-2.406
67.16,-53.906,-2.566
67.19,-56.819,-2.852
67.22,-59.943,-3.013
67.26,-63.242,-3.276
67.29,-66.716,-3.54
67.32,-70.12,-3.631
67.35,-73.454,-3.838
67.39,-76.823,-4.09
67.42,-80.298,-4.296
67.45,-83.737,-4.502
67.48,-87.177,-4.731
67.52,-90.546,-4.983
67.55,-93.564,-5.121
67.58,-96.161,-5.43
67.62,-98.898,-5.865
67.65,-101.53,-6.026
67.68,-104.268,-6.278
67.71,-107.251,-6.656
67.75,-110.339,-6.908
67.78,-113.463,-7.206
67.81,-116.621,-7.629
67.84,-119.85,-7.95
67.88,-123.044,-8.225
67.91,-126.097,-8.58
67.94,-128.975,-8.867
67.97,-131.993,-9.279
68.01,-135.362,-9.691
68.04,-138.766,-9.966
68.07,-141.75,-10.253
68.1,-144.487,-10.482
68.14,-147.33,-10.883
68.17,-150.278,-11.135
68.2,-153.156,-11.364
68.23,-155.893,-11.673
68.27,-158.701,-11.96
68.3,-161.719,-12.257
68.33,-164.667,-12.532
68.36,-167.299,-12.727
68.4,-169.896,-12.991
68.43,-172.633,-13.243
68.46,-175.23,-13.288
68.49,-177.933,-13.575
68.53,-180.74,-13.907
68.56,-183.337,-14.045
68.59,-185.864,-14.342
68.62,-188.356,-14.686
68.66,-190.637,-14.686
68.69,-192.848,-14.938
68.72,-195.34,-15.167
68.75,-197.656,-15.144
68.79,-199.867,-15.373
68.82,-202.219,-15.58
68.85,-204.324,-15.534
68.89,-206.149,-15.66
68.92,-208.115,-15.912
68.95,-210.045,-15.889
68.98,-212.01,-15.98
69.02,-214.046,-16.152
69.05,-216.011,-16.233
69.08,-217.871,-16.462
69.11,-219.801,-16.679
69.15,-221.486,-16.725
69.18,-222.96,-16.851
69.21,-224.609,-17.069
69.24,-226.505,-17.172
69.28,-228.329,-17.309
69.31,-229.944,-17.538
69.34,-231.488,-17.676
69.37,-233.208,-17.962
69.41,-234.822,-18.042
69.44,-236.436,-18.123
69.47,-237.946,-18.432
69.5,-239.279,-18.581
69.54,-240.613,-18.753
69.57,-242.332,-19.085
69.6,-244.122,-19.257
69.63,-245.526,-19.314
69.67,-246.79,-19.543
69.7,-248.193,-19.658
69.73,-249.527,-19.749
69.76,-250.861,-20.093
69.8,-252.299,-20.334
69.83,-253.598,-20.471
69.86,-254.967,-20.7
69.89,-256.265,-20.815
69.93,-257.494,-20.895
69.96,-258.652,-21.078
69.99,-259.775,-21.273
70.03,-260.863,-21.433
70.06,-261.986,-21.571
70.09,-263.354,-21.823
70.12,-264.653,-21.96
70.16,-265.881,-22.155
70.19,-267.004,-22.327
70.22,-268.057,-22.487
70.25,-268.9,-22.831
70.29,-269.987,-23.049
70.32,-271.461,-23.243
70.35,-272.725,-23.45
70.38,-273.567,-23.656
70.42,-274.339,-23.85
70.45,-275.146,-23.839
70.48,-276.059,-23.931
70.51,-276.796,-24.045
70.55,-277.463,-24.057
70.58,-278.305,-24.171
70.61,-279.112,-24.4
70.64,-279.674,-24.481
70.68,-280.095,-24.469
70.71,-280.621,-24.595
70.74,-280.902,-24.584
70.77,-281.253,-24.469
70.81,-281.674,-24.549
70.84,-282.095,-24.481
70.87,-282.481,-24.503
70.9,-282.797,-24.618
70.94,-282.832,-24.423
70.97,-282.657,-24.435
71.0,-282.481,-24.526
71.03,-282.306,-24.263
71.07,-281.955,-24.148
71.1,-281.779,-24.068
71.13,-281.639,-23.942
71.17,-281.183,-23.759
71.2,-280.341,-23.587
71.23,-279.604,-23.495
71.26,-279.077,-23.312
71.3,-278.41,-23.232
71.33,-277.568,-22.968
71.36,-276.691,-22.739
71.39,-275.848,-22.59
71.43,-274.725,-22.315
71.46,-273.462,-22.166
71.49,-272.234,-22.075
71.52,-270.97,-21.846
71.56,-269.601,-21.605
71.59,-268.233,-21.456
71.62,-267.039,-21.284
71.65,-265.671,-21.078
71.69,-264.407,-20.918
71.72,-263.144,-20.757
71.75,-261.354,-20.609
71.78,-259.599,-20.517
71.82,-258.125,-20.276
71.85,-256.721,-20.116
71.88,-255.037,-20.059
71.91,-253.352,-20.001
71.95,-251.527,-19.761
71.98,-249.667,-19.646
72.01,-248.228,-19.635
72.04,-246.368,-19.234
72.08,-244.263,-19.028
72.11,-242.403,-19.154
72.14,-240.894,-19.073
72.17,-239.034,-18.81
72.21,-237.244,-18.89
72.24,-235.489,-18.89
72.27,-233.594,-18.638
72.31,-231.628,-18.661
72.34,-229.768,-18.741
72.37,-227.979,-18.65
72.4,-226.154,-18.512
72.44,-224.223,-18.329
72.47,-222.258,-18.283
72.5,-220.328,-18.26
72.53,-218.222,-18.146
72.57,-216.046,-18.123
72.6,-214.186,-18.065
72.63,-212.431,-17.905
72.66,-210.712,-17.894
72.7,-208.711,-17.871
72.73,-206.465,-17.619
72.76,-204.289,-17.619
72.79,-202.289,-17.619
72.83,-200.043,-17.298
72.86,-197.832,-17.286
72.89,-196.042,-17.298
72.92,-194.112,-16.977
72.96,-191.901,-16.966
72.99,-189.76,-16.954
73.02,-187.514,-16.702
73.05,-185.197,-16.576
73.09,-182.846,-16.53
73.12,-180.6,-16.29
73.15,-178.354,-16.118
73.18,-176.248,-16.026
73.22,-173.932,-15.694
73.25,-171.194,-15.534
73.28,-168.668,-15.431
73.31,-166.316,-15.179
73.35,-164.035,-15.007
73.38,-161.368,-14.835
73.41,-158.49,-14.423
73.45,-155.928,-14.354
73.48,-153.647,-14.113
73.51,-150.874,-13.518
73.54,-147.926,-13.403
73.58,-144.978,-13.151
73.61,-142.346,-13.014
73.64,-139.749,-12.796
73.67,-137.012,-12.418
73.71,-134.204,-12.349
73.74,-131.502,-12.097
73.77,-128.729,-11.73
73.8,-125.711,-11.536
73.84,-122.482,-11.181
73.87,-119.289,-10.837
73.9,-116.13,-10.482
73.93,-113.042,-10.047
73.97,-109.848,-9.714
74.0,-106.619,-9.256
74.03,-103.25,-8.844
74.06,-99.881,-8.5
74.1,-96.407,-8.03
74.13,-92.686,-7.618
74.16,-88.931,-7.228
74.19,-85.492,-6.77
74.23,-82.018,-6.266
74.26,-78.508,-5.957
74.29,-74.823,-5.556
74.32,-71.068,-5.315
74.36,-67.664,-5.166
74.39,-64.505,-4.766
74.42,-61.101,-4.376
74.45,-57.556,-4.181
74.49,-54.117,-3.941
74.52,-50.502,-3.62
74.55,-46.922,-3.425
74.58,-43.343,-3.185
74.62,-39.798,-2.944
74.65,-36.604,-2.692
74.68,-36.92,-1.982
74.72,-42.5,-0.447
74.75,-39.342,1.329
74.78,-28.638,1.111
74.81,-23.9,0.332
74.85,-22.075,0.275
74.88,-17.548,1.031
74.91,-6.493,1.535
74.94,4.422,1.226
74.98,11.336,0.515
75.01,13.687,0.481
75.04,18.636,0.435
75.07,16.986,0.859
75.11,12.459,1.707
75.14,17.688,1.936
75.17,21.864,1.764
75.2,24.883,0.894
75.24,26.357,0.733
75.27,28.427,0.962
75.3,31.235,1.569
75.33,35.622,2.199
75.37,40.324,2.486
75.4,44.922,2.612
75.43,48.572,2.577
75.46,51.73,2.451
75.5,54.433,2.646
75.53,57.486,2.887
75.56,60.645,3.116
75.59,63.979,3.368
75.63,67.418,3.586
75.66,70.857,3.769
75.69,74.156,3.883
75.72,77.35,4.055
75.76,80.614,4.296
75.79,83.913,4.525
75.82,87.106,4.72
75.86,90.3,5.029
75.89,93.178,5.247
75.92,95.88,5.396
75.95,98.512,5.774
75.99,101.32,6.117
76.02,104.198,6.381
76.05,107.286,6.77
76.08,110.55,7.022
76.12,113.744,7.263
76.15,116.867,7.687
76.18,119.955,7.939
76.21,122.763,8.248
76.25,125.711,8.626
76.28,128.799,8.855
76.31,131.747,9.153
76.34,134.906,9.577
76.38,138.17,9.817
76.41,141.223,10.104
76.44,144.206,10.562
76.47,147.189,10.906
76.51,150.102,11.215
76.54,152.98,11.524
76.57,155.788,11.799
76.6,158.385,12.005
76.64,161.263,12.257
76.67,164.211,12.487
76.7,167.053,12.716
76.73,169.861,12.956
76.77,172.633,13.151
76.8,175.336,13.38
76.83,178.038,13.689
76.86,180.811,13.987
76.9,183.513,14.216
76.93,185.864,14.445
76.96,188.286,14.743
77.0,190.672,14.892
77.03,192.918,15.007
77.06,195.375,15.293
77.09,197.797,15.27
77.13,199.902,15.35
77.16,202.043,15.488
77.19,204.044,15.625
77.22,205.939,15.683
77.26,207.764,15.763
77.29,209.764,15.935
77.32,211.8,16.015
77.35,213.8,16.141
77.39,215.8,16.255
77.42,217.555,16.347
77.45,219.38,16.553
77.48,221.03,16.588
77.52,222.749,16.702
77.55,224.574,17.092
77.58,226.54,17.195
77.61,228.049,17.275
77.65,229.417,17.504
77.68,231.207,17.71
77.71,233.102,17.813
77.74,234.927,17.985
77.78,236.331,18.111
77.81,237.454,18.306
77.84,238.998,18.65
77.87,240.929,18.844
77.91,242.473,18.913
77.94,243.771,19.119
77.97,245.105,19.348
78.0,246.368,19.371
78.04,247.772,19.566
78.07,249.316,19.784
78.1,250.861,19.933
78.14,252.229,20.127
78.17,253.528,20.425
78.2,254.826,20.62
78.23,256.09,20.792
78.27,257.388,20.998
78.3,258.511,21.113
78.33,259.599,21.261
78.36,260.757,21.433
78.4,261.916,21.445
78.43,262.968,21.64
78.46,264.197,21.892
78.49,265.46,22.086
78.53,266.583,22.292
78.56,267.601,22.487
78.59,268.759,22.613
78.62,269.847,22.785
78.66,270.97,23.083
78.69,272.128,23.301
78.72,273.181,23.541
78.75,274.129,23.736
78.79,274.936,23.873
78.82,275.638,23.999
78.85,276.375,24.022
78.88,277.112,24.194
78.92,277.989,24.32
78.95,278.796,24.332
78.98,279.428,24.377
79.01,279.884,24.4
79.05,280.411,24.458
79.08,281.113,24.538
79.11,281.429,24.481
79.14,281.674,24.515
79.18,282.341,24.698
79.21,282.903,24.755
79.24,282.973,24.618
79.28,282.762,24.687
79.31,282.903,24.595
79.34,283.078,24.481
79.37,282.762,24.343
79.41,282.481,24.217
79.44,282.236,24.171
79.47,282.06,24.102
79.5,281.709,23.999
79.54,281.078,23.816
79.57,280.481,23.736
79.6,279.674,23.553
79.63,278.867,23.323
79.67,278.13,23.175
79.7,277.463,22.945
79.73,276.691,22.728
79.76,275.603,22.487
79.8,274.129,22.27
79.83,272.935,22.189
79.86,271.812,21.903
79.89,270.479,21.594
79.93,268.97,21.456
79.96,267.531,21.17
79.99,266.057,20.895
80.02,264.618,20.792
80.06,263.109,20.597
80.09,261.459,20.379
80.12,259.88,20.15
80.15,258.301,20.07
80.19,256.721,19.852
80.22,255.002,19.669
80.25,253.387,19.692
80.28,251.773,19.635
80.32,249.983,19.474
80.35,248.299,19.532
80.38,246.579,19.406
80.42,244.754,19.177
80.45,242.894,19.199
80.48,241.139,19.096
80.51,239.314,18.902
80.55,237.419,18.879
80.58,235.489,18.627
80.61,233.418,18.466
80.64,231.418,18.432
80.68,229.593,18.34
80.71,227.733,18.237
80.74,225.803,18.168
80.77,223.767,18.214
80.81,221.837,18.191
80.84,220.082,18.088
80.87,218.292,18.168
80.9,216.292,17.997
80.94,214.186,17.985
80.97,212.361,18.123
81.0,210.641,17.939
81.03,208.606,17.882
81.07,206.57,17.928
81.1,204.465,17.768
81.13,202.464,17.63
81.16,200.674,17.516
81.2,198.639,17.218
81.23,196.252,17.092
81.26,194.006,17.137
81.29,192.111,17.057
81.33,190.146,16.954
81.36,188.005,16.84
81.39,185.689,16.645
81.42,183.197,16.439
81.46,181.021,16.381
81.49,178.775,16.061
81.52,176.389,15.923
81.55,174.107,15.912
81.59,171.791,15.602
81.62,169.229,15.442
81.65,166.808,15.316
81.69,164.386,14.995
81.72,161.824,14.823
81.75,159.157,14.64
81.78,156.419,14.331
81.82,153.612,14.067
81.85,151.015,13.884
81.88,148.523,13.598
81.91,145.715,13.323
81.95,142.767,12.933
81.98,139.854,12.624
82.01,137.012,12.372
82.04,134.344,12.143
82.08,131.502,11.891
82.11,128.413,11.616
82.14,125.255,11.375
82.17,122.307,11.146
82.21,119.429,10.848
82.24,116.27,10.39
82.27,112.796,10.047
82.3,109.567,9.737
82.34,106.514,9.348
82.37,103.32,8.924
82.4,99.881,8.569
82.43,96.336,8.133
82.47,92.686,7.767
82.5,89.212,7.446
82.53,85.843,7.011
82.56,82.333,6.644
82.6,78.999,6.278
82.63,75.455,5.865
82.66,71.84,5.499
82.69,68.471,5.327
82.73,65.137,4.995
82.76,61.417,4.662
82.79,57.872,4.502
82.83,54.573,4.204
82.86,51.414,4.044
82.89,48.361,4.032
82.92,45.659,3.906
82.96,42.43,3.7
82.99,39.693,3.471
83.02,40.816,2.658
83.05,46.922,0.997
83.09,46.817,-1.077
83.12,36.078,-1.432
83.15,28.848,-0.607
83.18,25.935,-0.389
83.22,20.987,-1.088
83.25,9.125,-1.81
83.28,-4.843,-1.673
83.31,-14.775,-0.882
83.35,-18.741,-0.493
83.38,-22.742,-0.447
83.41,-20.285,-1.375
83.44,-17.758,-2.429
83.48,-23.724,-2.83
83.51,-28.357,-2.188
83.54,-30.217,-1.226
83.57,-30.638,-1.272
83.61,-31.902,-1.432
83.64,-34.007,-1.879
83.67,-37.482,-2.532
83.7,-41.447,-2.772
83.74,-45.273,-2.658
83.77,-48.431,-2.577
83.8,-51.344,-2.577
83.83,-54.292,-2.715
83.87,-57.451,-2.967
83.9,-60.855,-3.23
83.93,-64.61,-3.505
83.97,-68.436,-3.746
84.0,-72.156,-3.872
84.03,-75.7,-4.044
84.06,-79.28,-4.296
84.1,-82.86,-4.513
84.13,-86.369,-4.685
84.16,-89.598,-4.88
84.19,-92.546,-5.075
84.23,-95.213,-5.327
84.26,-97.775,-5.602
84.29,-100.443,-5.774
84.32,-103.215,-6.152
84.36,-106.339,-6.427
84.39,-109.392,-6.69
84.42,-112.48,-7.068
84.45,-115.639,-7.446
84.49,-118.727,-7.79
84.52,-121.745,-8.053
84.55,-124.623,-8.282
84.58,-127.536,-8.615
84.62,-130.73,-8.855
84.65,-133.958,-9.107
84.68,-136.942,-9.416
84.71,-139.819,-9.714
84.75,-142.697,-10.15
84.78,-145.645,-10.482
84.81,-148.558,-10.654
84.84,-151.436,-11.1
84.88,-154.559,-11.398
84.91,-157.613,-11.582
84.94,-160.49,-11.994
84.97,-163.368,-12.235
85.01,-166.176,-12.509
85.04,-168.878,-12.75
85.07,-171.545,-12.956
85.11,-174.178,-13.231
85.14,-177.126,-13.518
85.17,-180.038,-13.747
85.2,-182.635,-13.896
85.24,-185.162,-14.216
85.27,-187.724,-14.526
85.3,-190.076,-14.64
85.33,-192.427,-14.858
85.37,-194.954,-15.098
85.4,-197.375,-15.133
85.43,-199.797,-15.396
85.46,-202.043,-15.476
85.5,-204.079,-15.499
85.53,-206.114,-15.728
85.56,-208.15,-15.809
85.59,-209.624,-15.671
85.63,-209.308,-14.686
85.66,-207.658,-13.563
85.69,-207.343,-13.38
85.72,-208.641,-12.91
85.76,-209.554,-11.937
85.79,-209.729,-11.685
85.82,-210.361,-11.914
85.85,-212.01,-12.223
85.89,-214.116,-12.67
85.92,-216.397,-13.323
85.95,-218.433,-13.987
85.98,-220.222,-14.812
86.02,-222.293,-15.74
86.05,-224.574,-16.324
86.08,-226.75,-16.954
86.11,-228.821,-17.55
86.15,-230.997,-18.054
86.18,-233.418,-18.753
86.21,-235.91,-19.28
86.25,-238.086,-19.623
86.28,-240.121,-20.185
86.31,-242.192,-20.643
86.34,-244.052,-20.757
86.38,-245.842,-21.078
86.41,-247.562,-21.307
86.44,-249.211,-21.468
86.47,-250.931,-21.8
86.51,-252.686,-21.972
86.54,-254.405,-22.029
86.57,-255.914,-22.132
86.6,-257.178,-22.132
86.64,-258.371,-22.224
86.67,-259.634,-22.441
86.7,-261.003,-22.579
86.73,-262.302,-22.636
86.77,-263.6,-22.774
86.8,-265.004,-23.014
86.83,-266.267,-23.026
86.86,-267.496,-23.106
86.9,-268.584,-23.323
86.93,-269.707,-23.369
86.96,-270.935,-23.587
86.99,-272.234,-23.77
87.03,-273.322,-23.885
87.06,-274.374,-24.114
87.09,-275.146,-24.137
87.12,-275.813,-24.183
87.16,-276.41,-24.286
87.19,-277.252,-24.286
87.22,-278.059,-24.286
87.25,-278.831,-24.366
87.29,-279.568,-24.332
87.32,-280.06,-24.343
87.35,-280.516,-24.263
87.38,-280.762,-24.217
87.42,-281.007,-24.286
87.45,-281.288,-24.148
87.48,-281.393,-24.091
87.52,-281.569,-24.045
87.55,-281.85,-24.114
87.58,-281.99,-24.08
87.61,-281.885,-23.954
87.65,-281.639,-24.011
87.68,-281.323,-23.85
87.71,-281.148,-23.702
87.74,-281.113,-23.656
87.78,-281.148,-23.598
87.81,-280.867,-23.495
87.84,-280.341,-23.45
87.87,-279.779,-23.484
87.91,-279.218,-23.369
87.94,-278.621,-23.243
87.97,-277.814,-23.071
88.0,-277.007,-23.003
88.04,-276.34,-22.819
88.07,-275.497,-22.625
88.1,-274.655,-22.464
88.13,-273.602,-22.304
88.17,-272.374,-22.086
88.2,-270.97,-21.869
88.23,-269.672,-21.674
88.26,-268.724,-21.468
88.3,-267.741,-21.296
88.33,-266.302,-21.147
88.36,-264.723,-21.113
88.39,-263.284,-21.101
88.43,-261.81,-20.952
88.46,-260.336,-20.677
88.49,-258.827,-20.494
88.52,-257.388,-20.368
88.56,-255.844,-20.162
88.59,-254.089,-20.001
88.62,-252.37,-19.956
88.66,-250.685,-19.864
88.69,-248.825,-19.555
88.72,-247.105,-19.383
88.75,-245.526,-19.371
88.79,-243.701,-19.096
88.82,-241.666,-19.005
88.85,-239.841,-19.131
88.88,-238.367,-19.039
88.92,-236.612,-18.947
88.95,-234.717,-18.902
88.98,-232.787,-18.776
89.01,-230.962,-18.764
89.05,-229.312,-18.638
89.08,-227.347,-18.466
89.11,-225.241,-18.409
89.14,-223.486,-18.317
89.18,-221.732,-18.249
89.21,-219.696,-18.1
89.24,-217.169,-17.905
89.27,-214.958,-17.962
89.31,-213.133,-17.882
89.34,-211.133,-17.584
89.37,-208.887,-17.493
89.4,-206.746,-17.367
89.44,-204.535,-17.195
89.47,-202.429,-17.16
89.5,-200.71,-17.126
89.53,-198.534,-16.817
89.57,-195.901,-16.737
89.6,-193.971,-16.931
89.63,-192.006,-16.679
89.66,-189.655,-16.485
89.7,-187.584,-16.633
89.73,-185.478,-16.416
89.76,-183.267,-16.198
89.8,-180.846,-16.049
89.83,-178.354,-15.9
89.86,-176.073,-15.774
89.89,-174.002,-15.797
89.93,-171.545,-15.419
89.96,-168.878,-15.328
89.99,-166.492,-15.316
90.02,-164.211,-14.995
90.06,-161.719,-14.835
90.09,-159.122,-14.606
90.12,-156.805,-14.331
90.15,-154.384,-14.182
90.19,-151.822,-13.815
90.22,-148.839,-13.621
90.25,-145.926,-13.506
90.28,-143.188,-13.128
90.32,-140.451,-12.83
90.35,-137.784,-12.544
90.38,-134.941,-12.28
90.41,-132.169,-12.04
90.45,-129.431,-11.799
90.48,-126.413,-11.49
90.51,-123.219,-11.055
90.54,-119.92,-10.734
90.58,-116.692,-10.413
90.61,-113.603,-9.863
90.64,-110.234,-9.554
90.67,-106.795,-9.199
90.71,-103.355,-8.821
90.74,-100.197,-8.477
90.77,-96.793,-7.973
90.8,-93.178,-7.538
90.84,-89.633,-7.102
90.87,-85.983,-6.656
90.9,-82.333,-6.278
90.94,-78.824,-5.945
90.97,-75.314,-5.67
91.0,-72.015,-5.327
91.03,-68.576,-4.926
91.07,-64.996,-4.617
91.1,-61.311,-4.376
91.13,-57.872,-4.181
91.16,-54.538,-3.929
91.2,-51.099,-3.631
91.23,-47.729,-3.505
91.26,-44.255,-3.139
91.29,-40.43,-2.761
91.33,-37.201,-2.566
91.36,-37.692,-1.787
91.39,-42.044,-0.263
91.42,-38.394,1.203
91.46,-28.813,1.02
91.49,-23.935,0.389
91.52,-21.759,0.321
91.55,-17.197,0.962
91.59,-7.265,1.409
91.62,2.773,1.146
91.65,9.37,0.561
91.68,12.389,0.504
91.72,17.302,0.55
91.75,15.372,1.146
91.78,12.318,1.97
91.81,17.372,2.131
91.85,22.04,1.776
91.88,25.304,1.065
91.91,26.988,0.768
91.94,28.989,1.008
91.98,31.586,1.558
92.01,35.587,2.096
92.04,40.009,2.474
92.08,44.29,2.532
92.11,47.905,2.497
92.14,51.028,2.497
92.17,53.941,2.623
92.21,57.03,2.887
92.24,60.294,3.185
92.27,63.873,3.437
92.3,67.453,3.643
92.34,70.998,3.803
92.37,74.402,3.987
92.4,77.701,4.147
92.43,80.894,4.365
92.47,84.158,4.605
92.5,87.247,4.823
92.53,90.3,5.029
92.56,93.108,5.258
92.6,95.81,5.613
92.63,98.582,5.762
92.66,101.355,6.049
92.69,104.514,6.484
92.73,107.707,6.713
92.76,110.901,7.08
92.79,114.059,7.423
92.82,117.148,7.687
92.86,120.236,8.042
92.89,123.044,8.248
92.92,125.887,8.489
92.95,128.799,8.878
92.99,131.993,9.268
93.02,135.117,9.588
93.05,138.135,9.863
93.08,141.118,10.23
93.12,144.171,10.562
93.15,147.224,10.825
93.18,150.102,11.112
93.21,152.98,11.261
93.25,155.788,11.501
93.28,158.56,11.822
93.31,161.403,12.097
93.35,164.316,12.338
93.38,167.088,12.555
93.41,169.72,12.83
93.44,172.318,13.082
93.48,175.055,13.334
93.51,178.003,13.621
93.54,180.881,13.781
93.57,183.443,13.987
93.61,185.724,14.216
93.64,188.075,14.388
93.67,190.497,14.652
93.7,192.918,14.846
93.74,195.164,14.949
93.77,197.446,15.167
93.8,199.727,15.259
93.83,201.903,15.408
93.87,204.079,15.602
93.9,206.044,15.511
93.93,207.729,15.614
93.96,209.694,15.797
94.0,211.765,15.843
94.03,213.835,15.98
94.06,215.871,16.187
94.09,217.766,16.404
94.13,219.626,16.53
94.16,221.205,16.656
94.19,222.925,16.84
94.22,224.785,17.103
94.26,226.68,17.264
94.29,228.4,17.309
94.32,230.049,17.447
94.35,231.558,17.527
94.39,233.102,17.676
94.42,234.647,17.905
94.45,236.226,17.985
94.49,237.735,18.249
94.52,239.42,18.432
94.55,240.788,18.409
94.58,242.122,18.695
94.62,243.666,18.936
94.65,245.245,18.913
94.68,246.474,19.199
94.71,247.737,19.486
94.75,249.211,19.681
94.78,250.79,19.91
94.81,252.405,20.082
94.84,253.879,20.311
94.88,255.142,20.505
94.91,256.3,20.677
94.94,257.458,20.861
94.97,258.476,20.929
95.01,259.599,21.147
95.04,261.003,21.284
95.07,262.302,21.388
95.1,263.319,21.559
95.14,264.372,21.8
95.17,265.706,22.006
95.2,266.829,22.052
95.23,267.847,22.292
95.27,268.97,22.579
95.3,270.128,22.785
95.33,271.321,22.968
95.36,272.304,23.163
95.4,273.322,23.369
95.43,274.269,23.472
95.46,275.182,23.518
95.49,276.094,23.598
95.53,276.796,23.77
95.56,277.393,23.942
95.59,278.375,24.102
95.63,279.077,24.16
95.66,279.463,24.034
95.69,279.919,24.16
95.72,280.516,24.228
95.76,281.148,24.263
95.79,281.569,24.309
95.82,281.885,24.354
95.85,282.341,24.595
95.89,282.692,24.618
95.92,282.727,24.446
95.95,282.622,24.343
95.98,282.657,24.251
96.02,282.481,24.068
96.05,282.13,23.85
96.08,281.92,23.873
96.11,282.025,23.919
96.15,281.92,23.805
96.18,281.429,23.69
96.21,280.692,23.633
96.24,280.095,23.518
96.28,279.498,23.232
96.31,278.867,23.071
96.34,278.165,22.877
96.37,277.428,22.728
96.41,276.375,22.636
96.44,275.357,22.533
96.47,274.374,22.315
96.5,273.146,22.109
96.54,271.602,21.766
96.57,270.023,21.422
96.6,268.689,21.296
96.63,267.39,21.09
96.67,265.987,20.872
96.7,264.407,20.712
96.73,262.968,20.54
96.77,261.67,20.299
96.8,260.02,20.104
96.83,258.266,19.99
96.86,256.616,19.921
96.9,255.072,19.772
96.93,253.458,19.6
96.96,251.703,19.532
96.99,249.843,19.36
97.03,247.913,19.177
97.06,246.228,19.154
97.09,244.824,19.016
97.12,242.999,18.799
97.16,240.999,18.844
97.19,239.384,18.902
97.22,237.875,18.856
97.25,235.945,18.695
97.29,233.734,18.569
97.32,231.734,18.421
97.35,229.803,18.317
97.38,227.803,18.191
97.42,225.768,18.077
97.45,223.943,18.02
97.48,222.118,17.871
97.51,220.152,17.79
97.55,218.047,17.768
97.58,215.941,17.779
97.61,214.011,17.779
97.64,212.186,17.699
97.68,210.185,17.584
97.71,208.044,17.538
97.74,206.114,17.516
97.77,204.149,17.447
97.81,202.043,17.344
97.84,199.832,17.241
97.87,197.375,17.057
97.91,195.375,17.034
97.94,193.69,16.943
97.97,191.76,16.714
98.0,189.514,16.725
98.04,187.338,16.679
98.07,185.092,16.53
98.1,182.916,16.542
98.13,180.635,16.381
98.17,178.354,16.095
98.2,176.073,16.003
98.23,173.651,15.797
98.26,171.23,15.683
98.3,169.124,15.58
98.33,166.878,15.373
98.36,164.175,15.087
98.39,161.543,14.869
98.43,159.122,14.789
98.46,156.77,14.48
98.49,154.279,14.319
98.52,151.752,14.136
98.56,149.049,13.827
98.59,146.242,13.689
98.62,143.434,13.357
98.65,140.591,13.117
98.69,137.819,12.819
98.72,135.011,12.452
98.75,131.993,12.086
98.78,128.94,11.696
98.82,125.816,11.341
98.85,122.588,11.043
98.88,119.464,10.665
98.91,116.165,10.218
98.95,112.796,9.817
98.98,109.532,9.428
99.01,106.268,9.096
99.04,103.075,8.718
99.08,99.565,8.317
99.11,95.985,7.916
99.14,92.441,7.515
99.18,88.931,7.125
99.21,85.281,6.667
99.24,81.737,6.301
99.27,78.297,6.037
99.31,74.823,5.728
99.34,71.419,5.43
99.37,68.015,5.178
99.4,64.575,4.777
99.44,60.89,4.536
99.47,57.591,4.399
99.5,54.573,4.227
99.53,51.73,4.09
99.57,48.326,3.826
99.6,44.711,3.505
99.63,40.816,3.402
99.66,37.798,3.139
99.7,38.359,2.28
99.73,43.799,0.71
99.76,41.904,-1.226
99.79,31.059,-1.352
99.83,24.426,-0.561
99.86,21.899,-0.355
99.89,16.951,-1.1
99.92,5.51,-1.718
99.96,-6.844,-1.398
99.99,-14.529,-0.664
100.02,-17.442,-0.424
100.05,-20.566,-0.401
100.09,-16.986,-1.134
100.12,-14.986,-1.615
100.15,-20.074,-1.902
100.18,-23.689,-1.42
100.22,-25.444,-0.63
100.25,-26.357,-0.607
100.28,-28.041,-0.974
100.32,-30.884,-1.569
100.35,-35.271,-2.154
100.38,-40.079,-2.291
100.41,-44.501,-2.303
100.45,-48.151,-2.337
100.48,-51.379,-2.337
100.51,-54.398,-2.532
100.54,-57.591,-2.772
100.58,-60.89,-3.047
100.61,-64.33,-3.276
100.64,-67.699,-3.505
100.67,-71.243,-3.735
100.71,-74.577,-3.872
100.74,-77.841,-4.009
100.77,-81.07,-4.216
100.8,-84.264,-4.41
100.84,-87.422,-4.582
100.87,-90.511,-4.8
100.9,-93.529,-5.006
100.93,-96.407,-5.166
100.97,-99.074,-5.396
101.0,-101.741,-5.682
101.03,-104.549,-5.9
101.06,-107.497,-6.152
101.1,-110.515,-6.427
101.13,-113.252,-6.77
101.16,-116.165,-7.297
101.19,-119.359,-7.675
101.23,-122.377,-7.904
101.26,-125.36,-8.328
101.29,-128.554,-8.718
101.32,-131.677,-9.016
101.36,-134.801,-9.394
101.39,-138.029,-9.714
101.42,-141.083,-10.069
101.46,-144.136,-10.39
101.49,-147.119,-10.734
101.52,-149.997,-11.112
101.55,-152.91,-11.387
101.59,-155.893,-11.719
101.62,-158.841,-12.028
101.65,-161.438,-12.2
101.68,-164.246,-12.544
101.72,-167.229,-12.761
101.75,-169.896,-12.842
101.78,-172.458,-13.151
101.81,-175.195,-13.426
101.85,-177.968,-13.632
101.88,-180.775,-13.964
101.91,-183.513,-14.136
101.94,-185.934,-14.319
101.98,-188.496,-14.743
102.01,-191.199,-14.835
102.04,-193.34,-14.869
102.07,-195.445,-15.213
102.11,-197.797,-15.224
102.14,-199.937,-15.247
102.17,-201.868,-15.35
102.2,-203.271,-15.11
102.24,-204.395,-14.961
102.27,-205.763,-14.938
102.3,-207.413,-14.789
102.33,-209.273,-14.789
102.37,-211.098,-14.846
102.4,-213.063,-15.041
102.43,-215.134,-15.476
102.46,-217.274,-15.832
102.5,-219.38,-16.141
102.53,-221.416,-16.576
102.56,-223.557,-17.057
102.6,-225.803,-17.435
102.63,-228.084,-17.802
102.66,-230.119,-18.134
102.69,-231.979,-18.466
102.73,-233.839,-18.73
102.76,-235.699,-18.925
102.79,-237.384,-19.039
102.82,-238.858,-19.108
102.86,-240.437,-19.314
102.89,-241.946,-19.394
102.92,-243.456,-19.486
102.95,-245.105,-19.658
102.99,-246.474,-19.532
103.02,-247.527,-19.635
103.05,-248.825,-19.887
103.08,-250.194,-19.91
103.12,-251.422,-20.047
103.15,-252.65,-20.242
103.18,-253.914,-20.379
103.21,-255.318,-20.483
103.25,-256.686,-20.689
103.28,-257.809,-20.838
103.31,-258.757,-20.861
103.34,-259.95,-21.044
103.38,-261.284,-21.193
103.41,-262.267,-21.296
103.44,-263.354,-21.571
103.47,-264.478,-21.811
103.51,-265.671,-21.995
103.54,-266.794,-22.189
103.57,-267.917,-22.419
103.6,-269.005,-22.545
103.64,-269.917,-22.762
103.67,-271.005,-23.117
103.7,-272.198,-23.346
103.74,-273.357,-23.45
103.77,-274.234,-23.484
103.8,-275.006,-23.61
103.83,-275.848,-23.644
103.87,-276.375,-23.702
103.9,-277.007,-24.068
103.93,-278.024,-24.148
103.96,-279.077,-24.171
104.0,-279.674,-24.286
104.03,-279.99,-24.217
104.06,-280.305,-24.274
104.09,-280.867,-24.435
104.13,-281.569,-24.492
104.16,-281.955,-24.458
104.19,-282.095,-24.538
104.22,-282.622,-24.71
104.26,-283.148,-24.744
104.29,-283.253,-24.618
104.32,-282.973,-24.503
104.35,-282.797,-24.526
104.39,-282.657,-24.4
104.42,-282.692,-24.171
104.45,-282.516,-24.171
104.48,-282.06,-24.011
104.52,-281.358,-23.862
104.55,-280.797,-23.736
104.58,-280.27,-23.438
104.61,-279.498,-23.312
104.65,-278.551,-23.163
104.68,-277.708,-22.877
104.71,-276.901,-22.705
104.74,-276.129,-22.567
104.78,-275.111,-22.35
104.81,-273.778,-22.132
104.84,-272.374,-21.949
104.87,-271.146,-21.662
104.91,-269.847,-21.388
104.94,-268.478,-21.135
104.97,-267.145,-21.009
105.01,-265.846,-20.849
105.04,-264.302,-20.689
105.07,-262.758,-20.609
105.1,-261.179,-20.402
105.14,-259.599,-20.23
105.17,-257.88,-20.104
105.2,-256.195,-19.91
105.23,-254.44,-19.6
105.27,-252.721,-19.555
105.3,-251.247,-19.486
105.33,-249.316,-19.211
105.36,-247.246,-19.154
105.4,-245.561,-19.154
105.43,-243.701,-18.879
105.46,-241.666,-18.707
105.49,-239.841,-18.661
105.53,-238.261,-18.558
105.56,-236.717,-18.615
105.59,-235.103,-18.707
105.62,-233.102,-18.535
105.66,-230.891,-18.512
105.69,-229.172,-18.627
105.72,-227.382,-18.317
105.75,-225.311,-18.26
105.79,-223.241,-18.272
105.82,-221.135,-17.951
105.85,-219.099,-17.882
105.88,-217.274,-17.733
105.92,-215.379,-17.55
105.95,-213.414,-17.584
105.98,-211.238,-17.516
106.01,-209.027,-17.435
106.05,-207.343,-17.642
106.08,-205.693,-17.642
106.11,-203.552,-17.458
106.15,-201.306,-17.516
106.18,-199.2,-17.412
106.21,-197.095,-17.103
106.24,-195.27,-17.206
106.28,-193.375,-17.08
106.31,-191.164,-16.897
106.34,-189.163,-17.023
106.37,-187.198,-16.897
106.41,-184.917,-16.656
106.44,-182.671,-16.668
106.47,-180.53,-16.439
106.5,-178.143,-16.187
106.54,-175.827,-16.233
106.57,-173.616,-16.026
106.6,-171.23,-15.728
106.63,-168.913,-15.614
106.67,-166.457,-15.385
106.7,-163.93,-15.087
106.73,-161.368,-14.915
106.76,-158.841,-14.594
106.8,-156.349,-14.388
106.83,-153.963,-14.365
106.86,-151.506,-14.033
106.89,-148.734,-13.747
106.93,-145.856,-13.518
106.96,-143.188,-13.288
106.99,-140.486,-12.945
107.02,-137.714,-12.635
107.06,-134.801,-12.406
107.09,-131.888,-12.097
107.12,-128.94,-11.788
107.15,-125.922,-11.456
107.19,-122.868,-11.066
107.22,-119.71,-10.699
107.25,-116.341,-10.413
107.29,-113.007,-10.012
107.32,-109.778,-9.611
107.35,-106.514,-9.29
107.38,-103.355,-8.832
107.42,-100.092,-8.466
107.45,-96.512,-8.076
107.48,-92.792,-7.572
107.51,-89.212,-7.148
107.55,-85.562,-6.633
107.58,-81.912,-6.175
107.61,-78.297,-5.865
107.64,-74.858,-5.464
107.68,-71.419,-5.189
107.71,-68.015,-4.949
107.74,-64.716,-4.708
107.77,-61.101,-4.365
107.81,-57.486,-4.101
107.84,-54.117,-3.861
107.87,-50.748,-3.46
107.9,-47.168,-3.356
107.94,-43.799,-3.242
107.97,-40.184,-2.83
108.0,-36.604,-2.532
108.03,-37.833,-1.627
108.07,-42.43,0.092
108.1,-36.113,1.466
108.13,-25.83,0.916
108.16,-22.426,0.206
108.2,-20.776,0.378
108.23,-15.021,1.168
108.26,-4.001,1.443
108.29,5.405,0.974
108.33,10.493,0.367
108.36,12.389,0.458
108.39,17.056,0.458
108.43,13.161,1.008
108.46,11.301,1.89
108.49,17.337,1.982
108.52,21.198,1.398
108.56,24.04,0.722
108.59,25.795,0.756
108.62,28.603,1.134
108.65,32.217,1.787
108.69,37.096,2.325
108.72,41.763,2.497
108.75,46.01,2.463
108.78,49.414,2.543
108.82,52.362,2.566
108.85,55.205,2.692
108.88,58.398,3.082
108.91,61.768,3.322
108.95,65.137,3.414
108.98,68.365,3.631
109.01,71.664,3.872
109.04,74.858,3.975
109.08,77.946,4.124
109.11,81.07,4.353
109.14,84.369,4.605
109.17,87.598,4.823
109.21,90.616,4.983
109.24,93.494,5.189
109.27,96.021,5.407
109.3,98.618,5.648
109.34,101.53,5.9
109.37,104.478,6.129
109.4,107.356,6.381
109.43,110.48,6.713
109.47,113.603,7.034
109.5,116.621,7.297
109.53,119.429,7.71
109.57,122.412,8.053
109.6,125.395,8.34
109.63,128.554,8.763
109.66,131.502,8.981
109.7,134.239,9.245
109.73,137.152,9.726
109.76,140.381,10.092
109.79,143.575,10.23
109.83,146.593,10.642
109.86,149.506,10.963
109.89,152.348,11.192
109.92,155.367,11.536
109.96,158.42,11.937
109.99,161.263,12.2
110.02,164.035,12.544
110.05,166.913,12.842
110.09,169.791,13.048
110.12,172.598,13.357
110.15,175.371,13.575
110.18,178.108,13.792
110.22,180.951,14.09
110.25,183.723,14.319
110.28,186.145,14.457
110.31,188.356,14.743
110.35,190.742,15.041
110.38,193.199,15.121
110.41,195.691,15.224
110.44,198.077,15.385
110.48,200.148,15.408
110.51,202.184,15.454
110.54,204.219,15.591
110.57,206.149,15.591
110.61,208.009,15.648
110.64,209.94,15.82
110.67,211.905,15.877
110.7,213.765,15.98
110.74,215.765,16.118
110.77,217.59,16.221
110.8,219.205,16.427
110.84,220.784,16.507
110.87,222.504,16.679
110.9,224.083,16.851
110.93,225.768,16.954
110.97,227.487,17.0
111.0,229.172,17.264
111.03,231.207,17.619
111.06,233.032,17.745
111.1,234.436,17.825
111.13,235.735,18.168
111.16,237.384,18.409
111.19,239.034,18.592
111.23,240.613,18.787
111.26,242.122,18.867
111.29,243.561,19.154
111.32,245.245,19.383
111.36,246.614,19.417
111.39,247.842,19.669
111.42,249.176,19.864
111.45,250.51,20.093
111.49,251.984,20.322
111.52,253.493,20.448
111.55,254.861,20.643
111.58,255.949,20.792
111.62,257.143,20.952
111.65,258.301,21.147
111.68,259.494,21.261
111.71,260.582,21.433
111.75,261.775,21.617
111.78,262.933,21.64
111.81,264.091,21.96
111.84,265.355,22.121
111.88,266.408,22.224
111.91,267.32,22.51
111.94,268.619,22.613
111.98,269.777,22.762
112.01,270.97,23.06
112.04,272.093,23.278
112.07,273.006,23.495
112.11,273.883,23.61
112.14,274.62,23.782
112.17,275.462,23.885
112.2,276.164,23.908
112.24,276.796,24.137
112.27,277.779,24.297
112.3,278.831,24.251
112.33,279.428,24.228
112.37,279.955,24.4
112.4,280.621,24.549
112.43,281.148,24.561
112.46,281.183,24.389
112.5,281.323,24.538
112.53,282.166,24.801
112.56,282.762,24.675
112.59,282.692,24.629
112.63,282.516,24.721
112.66,282.552,24.641
112.69,282.587,24.446
112.72,282.341,24.274
112.76,281.955,24.171
112.79,281.885,24.206
112.82,281.779,24.057
112.85,281.534,23.931
112.89,281.393,24.102
112.92,280.797,23.805
112.95,279.709,23.553
112.98,278.902,23.495
113.02,278.305,23.278
113.05,277.708,23.037
113.08,276.691,22.762
113.12,275.427,22.567
113.15,274.129,22.304
113.18,272.76,21.949
113.21,271.356,21.788
113.25,270.163,21.548
113.28,268.864,21.296
113.31,267.461,21.113
113.34,266.022,20.929
113.38,264.688,20.838
113.41,263.249,20.7
113.44,261.74,20.597
113.47,260.161,20.391
113.51,258.476,20.162
113.54,257.037,20.082
113.57,255.283,19.852
113.6,253.423,19.784
113.64,251.808,19.83
113.67,250.229,19.658
113.7,248.509,19.452
113.73,246.825,19.44
113.77,244.894,19.245
113.8,242.789,19.039
113.83,241.034,19.085
113.86,239.349,18.902
113.9,237.384,18.661
113.93,235.313,18.673
113.96,233.243,18.466
113.99,231.172,18.363
114.03,229.417,18.421
114.06,227.663,18.168
114.09,225.522,18.077
114.12,223.557,18.168
114.16,221.802,18.111
114.19,220.082,18.054
114.22,218.047,17.974
114.26,215.906,17.905
114.29,213.976,17.974
114.32,212.256,17.974
114.35,210.466,17.836
114.39,208.36,17.722
114.42,206.29,17.768
114.45,204.219,17.676
114.48,201.973,17.493
114.52,199.937,17.504
114.55,198.112,17.367
114.58,195.972,17.16
114.61,193.936,17.275
114.65,192.076,17.252
114.68,189.97,17.0
114.71,187.794,16.989
114.74,185.478,16.805
114.78,183.197,16.519
114.81,180.986,16.473
114.84,178.915,16.324
114.87,176.599,16.152
114.91,174.178,16.187
114.94,171.896,15.958
114.97,169.299,15.66
115.0,166.702,15.614
115.04,164.351,15.305
115.07,161.859,14.881
115.1,159.402,14.778
115.13,156.876,14.503
115.17,154.138,14.216
115.2,151.295,14.022
115.23,148.558,13.655
115.26,145.75,13.495
115.3,142.838,13.082
115.33,139.89,12.784
115.36,136.942,12.509
115.4,134.204,12.154
115.43,131.712,11.96
115.46,129.045,11.65
115.49,125.887,11.387
115.53,122.658,11.272
115.56,119.675,10.906
115.59,116.727,10.642
115.62,113.603,10.356
115.66,110.374,9.921
115.69,107.111,9.577
115.72,103.531,9.096
115.75,99.916,8.672
115.79,96.547,8.305
115.82,93.037,7.721
115.85,89.423,7.217
115.88,85.843,6.885
115.92,82.228,6.392
115.95,78.613,6.026
115.98,75.279,5.739
116.01,71.84,5.315
116.05,68.12,5.075
116.08,64.645,4.823
116.11,61.276,4.468
116.14,57.767,4.17
116.18,54.327,3.998
116.21,50.923,3.735
116.24,47.379,3.448
116.27,43.939,3.276
116.31,40.43,3.116
116.34,37.447,2.83
116.37,38.324,2.852
116.4,43.027,0.596
116.44,39.412,-1.375
116.47,29.199,-1.123
116.5,24.251,-0.401
116.53,22.285,-0.367
116.57,17.232,-1.111
116.6,6.773,-1.478
116.63,-3.474,-1.203
116.67,-10.283,-0.619
116.7,-13.231,-0.515
