Trigger_Date,2023/06/23
Trigger_Time,T 09:32:01.336 PDT
Samples_Per_Cycle,512
Microseconds_Per_Sample,32.555
Time (ms),Voltage (V),Current (A)
-16.67,4.036,-0.229
-16.64,-1.193,-0.229
-16.6,-5.405,-0.023
-16.57,-9.019,-0.103
-16.54,-13.126,-0.092
-16.51,-15.652,-0.298
-16.47,-17.758,-0.997
-16.44,-22.812,-1.134
-16.41,-25.093,-1.272
-16.37,-25.374,-2.497
-16.34,-30.112,-2.898
-16.31,-35.13,-2.83
-16.28,-37.833,-3.379
-16.24,-38.535,-4.548
-16.21,-43.413,-4.777
-16.18,-46.185,-5.189
-16.15,-51.66,-5.785
-16.11,-54.889,-5.877
-16.08,-56.293,-6.954
-16.05,-61.382,-7.068
-16.02,-63.347,-7.618
-15.98,-65.839,-8.809
-15.95,-71.524,-8.901
-15.92,-74.086,-9.428
-15.89,-77.139,-10.356
-15.85,-81.561,-10.333
-15.82,-83.842,-11.307
-15.79,-88.545,-11.822
-15.76,-92.371,-12.12
-15.72,-97.67,-12.338
-15.69,-100.513,-12.521
-15.66,-100.758,-13.288
-15.63,-102.197,-14.125
-15.59,-106.9,-14.617
-15.56,-111.568,-15.213
-15.53,-114.691,-15.935
-15.5,-117.85,-16.462
-15.46,-122.482,-16.53
-15.43,-123.254,-17.309
-15.4,-124.799,-18.283
-15.37,-128.448,-18.787
-15.33,-132.765,-19.497
-15.3,-136.661,-19.99
-15.27,-140.381,-20.253
-15.24,-144.487,-20.414
-15.2,-147.365,-20.425
-15.17,-147.4,-20.46
-15.14,-148.593,-21.261
-15.11,-152.98,-21.502
-15.07,-155.788,-22.075
-15.04,-159.789,-22.384
-15.01,-161.298,-22.923
-14.98,-162.877,-23.828
-14.94,-165.053,-24.332
-14.91,-167.966,-24.836
-14.88,-171.089,-25.317
-14.84,-173.932,-25.821
-14.81,-178.073,-26.05
-14.78,-180.951,-26.588
-14.75,-183.478,-27.447
-14.71,-187.268,-27.585
-14.68,-189.163,-27.78
-14.65,-191.515,-28.192
-14.62,-191.971,-28.673
-14.58,-194.498,-29.086
-14.55,-198.814,-29.131
-14.52,-201.341,-30.392
-14.49,-205.026,-31.319
-14.45,-207.272,-31.148
-14.42,-206.886,-31.514
-14.39,-209.659,-31.835
-14.36,-211.273,-31.56
-14.32,-210.641,-32.179
-14.29,-213.589,-32.305
-14.26,-214.397,-32.522
-14.23,-217.415,-32.9
-14.19,-219.029,-33.164
-14.16,-220.117,-33.748
-14.13,-222.153,-33.817
-14.1,-223.135,-34.103
-14.06,-224.153,-34.504
-14.03,-224.785,-35.146
-14.0,-227.733,-35.191
-13.97,-229.312,-35.615
-13.93,-231.804,-35.982
-13.9,-233.138,-36.131
-13.87,-233.629,-36.36
-13.84,-234.155,-36.474
-13.8,-236.752,-36.795
-13.77,-239.63,-37.001
-13.74,-241.455,-37.402
-13.71,-242.192,-37.883
-13.67,-243.35,-38.525
-13.64,-246.228,-38.846
-13.61,-248.755,-39.212
-13.58,-249.878,-39.728
-13.54,-250.615,-40.358
-13.51,-253.563,-40.392
-13.48,-256.02,-40.461
-13.45,-258.546,-40.713
-13.41,-259.389,-40.954
-13.38,-259.073,-41.446
-13.35,-260.863,-41.572
-13.31,-262.477,-41.526
-13.28,-263.039,-41.927
-13.25,-265.25,-41.721
-13.22,-265.741,-41.607
-13.18,-266.267,-42.752
-13.15,-268.864,-42.615
-13.12,-268.9,-42.981
-13.09,-271.111,-43.302
-13.05,-272.374,-42.901
-13.02,-272.128,-43.565
-12.99,-273.918,-43.84
-12.96,-275.462,-43.451
-12.92,-276.445,-43.795
-12.89,-278.059,-43.875
-12.86,-278.726,-44.115
-12.83,-280.656,-43.84
-12.79,-280.762,-43.84
-12.76,-281.744,-43.909
-12.73,-281.674,-43.772
-12.7,-282.867,-43.806
-12.66,-282.797,-43.703
-12.63,-283.043,-44.173
-12.6,-284.552,-43.531
-12.57,-284.236,-43.829
-12.53,-284.903,-44.173
-12.5,-283.78,-43.932
-12.47,-283.745,-43.817
-12.44,-284.798,-43.806
-12.4,-284.587,-44.069
-12.37,-285.184,-43.955
-12.34,-286.131,-43.073
-12.31,-284.096,-43.336
-12.27,-283.604,-43.611
-12.24,-283.324,-42.947
-12.21,-281.113,-43.107
-12.18,-282.271,-43.21
-12.14,-283.078,-42.764
-12.11,-282.938,-42.592
-12.08,-281.885,-42.5
-12.05,-279.674,-42.489
-12.01,-279.007,-42.122
-11.98,-276.831,-42.019
-11.95,-275.462,-42.168
-11.91,-276.27,-41.755
-11.88,-275.919,-41.377
-11.85,-274.059,-41.412
-11.82,-271.251,-41.011
-11.78,-267.917,-40.129
-11.75,-265.355,-39.35
-11.72,-262.267,-39.144
-11.69,-259.705,-39.453
-11.65,-259.073,-39.59
-11.62,-258.195,-40.003
-11.59,-258.336,-40.61
-11.56,-258.406,-40.839
-11.52,-258.827,-40.702
-11.49,-258.617,-40.53
-11.46,-258.406,-40.656
-11.43,-258.511,-40.507
-11.39,-257.037,-40.793
-11.36,-258.722,-40.45
-11.33,-259.143,-39.613
-11.3,-257.599,-39.235
-11.26,-255.283,-38.536
-11.23,-252.58,-37.609
-11.2,-251.071,-36.795
-11.17,-247.948,-36.555
-11.13,-245.631,-36.268
-11.1,-242.824,-35.386
-11.07,-238.753,-35.134
-11.04,-236.647,-35.111
-11.0,-234.787,-34.756
-10.97,-232.295,-34.458
-10.94,-229.207,-34.642
-10.91,-228.575,-34.504
-10.87,-225.452,-34.344
-10.84,-222.89,-34.825
-10.81,-224.96,-34.046
-10.78,-222.644,-33.542
-10.74,-220.222,-33.817
-10.71,-219.415,-32.981
-10.68,-216.187,-32.454
-10.65,-215.871,-32.499
-10.61,-216.011,-31.755
-10.58,-212.045,-31.675
-10.55,-211.554,-31.136
-10.52,-208.746,-30.46
-10.48,-204.991,-30.426
-10.45,-203.833,-29.567
-10.42,-201.096,-29.12
-10.38,-198.709,-28.914
-10.35,-196.709,-28.341
-10.32,-194.392,-28.112
-10.29,-192.076,-27.917
-10.25,-190.321,-27.505
-10.22,-188.567,-26.84
-10.19,-185.513,-26.554
-10.16,-181.969,-26.073
-10.12,-178.88,-25.752
-10.09,-178.143,-25.179
-10.06,-175.336,-25.122
-10.03,-172.493,-24.629
-9.99,-167.58,-24.4
-9.96,-166.246,-23.999
-9.93,-164.772,-23.243
-9.9,-161.824,-22.842
-9.86,-157.753,-22.178
-9.83,-154.805,-22.029
-9.8,-154.173,-21.582
-9.77,-152.84,-20.586
-9.73,-149.19,-19.944
-9.7,-146.347,-19.291
-9.67,-142.802,-18.638
-9.64,-139.047,-18.421
-9.6,-136.626,-17.584
-9.57,-133.081,-17.642
-9.54,-129.712,-17.596
-9.51,-125.922,-17.206
-9.47,-123.149,-16.954
-9.44,-121.745,-16.416
-9.41,-119.359,-15.648
-9.38,-115.007,-15.179
-9.34,-111.778,-14.606
-9.31,-109.708,-13.735
-9.28,-106.584,-13.071
-9.25,-103.18,-12.315
-9.21,-97.916,-11.616
-9.18,-93.459,-11.135
-9.15,-91.177,-10.173
-9.12,-86.159,-9.668
-9.08,-81.351,-9.577
-9.05,-76.788,-9.187
-9.02,-72.823,-8.935
-8.99,-71.875,-8.385
-8.95,-69.875,-7.618
-8.92,-65.804,-7.515
-8.89,-64.68,-6.644
-8.85,-60.75,-5.739
-8.82,-57.591,-5.178
-8.79,-52.187,-4.834
-8.76,-48.712,-4.422
-8.72,-44.36,-3.929
-8.69,-41.553,-3.654
-8.66,-37.341,-3.219
-8.63,-35.551,-2.681
-8.59,-33.516,-1.489
-8.56,-30.217,-0.905
-8.53,-23.233,-0.642
-8.5,-16.6,-1.1
-8.46,-15.547,-0.046
-8.43,-10.739,-0.149
-8.4,-10.248,0.218
-8.37,-6.563,0.905
-8.33,-4.457,1.707
-8.3,0.246,2.119
-8.27,4.738,2.28
-8.24,10.529,2.383
-8.2,15.337,2.199
-8.17,19.653,1.833
-8.14,19.478,2.234
-8.11,21.548,2.6
-8.07,24.251,2.509
-8.04,27.094,3.104
-8.01,31.024,3.574
-7.98,34.639,3.643
-7.94,37.517,3.849
-7.91,40.71,4.204
-7.88,44.115,4.594
-7.85,47.484,4.926
-7.81,50.011,5.522
-7.78,54.503,5.831
-7.75,58.539,6.014
-7.72,61.206,6.747
-7.68,65.067,7.183
-7.65,68.471,7.354
-7.62,69.243,8.569
-7.59,73.63,9.107
-7.55,78.122,9.256
-7.52,82.123,9.955
-7.49,85.667,10.321
-7.46,89.142,10.516
-7.42,90.686,11.375
-7.39,95.108,11.765
-7.36,98.442,11.845
-7.32,101.18,12.75
-7.29,105.075,12.887
-7.26,106.163,13.804
-7.23,109.497,14.766
-7.19,113.954,15.144
-7.16,117.815,15.889
-7.13,120.657,16.656
-7.1,124.728,16.737
-7.06,127.185,17.195
-7.03,129.01,18.329
-7.0,134.485,18.478
-6.97,138.626,18.799
-6.93,142.416,19.44
-6.9,145.996,19.474
-6.87,147.646,19.715
-6.84,147.961,20.162
-6.8,148.067,20.975
-6.77,151.085,21.949
-6.74,156.876,22.144
-6.71,160.49,22.487
-6.67,162.982,23.22
-6.64,166.632,23.278
-6.61,168.036,23.656
-6.58,169.299,24.492
-6.54,171.37,24.939
-6.51,173.476,25.603
-6.48,177.371,26.222
-6.45,180.881,26.84
-6.41,184.109,27.505
-6.38,188.918,27.539
-6.35,189.865,27.906
-6.32,190.637,28.799
-6.28,193.971,28.57
-6.25,193.761,29.166
-6.22,197.551,29.865
-6.19,201.236,29.739
-6.15,202.605,30.231
-6.12,205.377,30.518
-6.09,206.255,30.712
-6.06,207.518,30.964
-6.02,208.501,31.239
-5.99,210.291,31.801
-5.96,213.835,31.915
-5.92,214.432,32.637
-5.89,216.432,33.221
-5.86,217.204,33.851
-5.83,221.556,34.126
-5.79,224.434,33.668
-5.76,223.802,34.115
-5.73,224.399,34.836
-5.7,227.452,34.997
-5.66,229.803,35.34
-5.63,231.664,35.89
-5.6,232.997,36.555
-5.57,235.559,36.99
-5.53,236.858,37.288
-5.5,238.472,37.586
-5.47,242.332,37.127
-5.44,244.333,37.334
-5.4,244.789,38.032
-5.37,245.245,38.284
-5.34,246.719,38.456
-5.31,250.159,38.674
-5.27,250.264,38.926
-5.24,250.685,39.189
-5.21,252.335,39.201
-5.18,252.791,40.003
-5.14,256.02,40.45
-5.11,258.582,40.346
-5.08,258.441,41.057
-5.05,260.126,41.607
-5.01,262.337,41.16
-4.98,263.951,40.919
-4.95,264.969,40.931
-4.92,264.934,41.687
-4.88,267.355,41.607
-4.85,268.303,41.721
-4.82,271.04,42.088
-4.79,272.479,41.698
-4.75,272.549,42.305
-4.72,274.059,42.191
-4.69,273.672,42.454
-4.66,275.182,42.729
-4.62,276.55,42.42
-4.59,277.112,42.993
-4.56,279.112,43.21
-4.53,280.341,42.855
-4.49,279.955,43.313
-4.46,280.516,43.623
-4.43,281.007,43.233
-4.39,281.042,43.142
-4.36,282.13,43.153
-4.33,282.797,43.256
-4.3,283.253,43.451
-4.26,283.394,43.554
-4.23,283.815,43.669
-4.2,284.377,43.588
-4.17,283.955,43.817
-4.13,284.131,43.875
-4.1,284.833,44.069
-4.07,285.78,44.299
-4.04,285.219,44.127
-4.0,284.727,44.356
-3.97,286.166,43.955
-3.94,284.798,44.058
-3.91,284.692,43.795
-3.87,284.026,43.52
-3.84,285.043,43.588
-3.81,284.692,43.588
-3.78,284.131,43.531
-3.74,283.885,43.004
-3.71,282.552,42.626
-3.68,280.411,42.489
-3.65,279.288,42.202
-3.61,278.902,41.607
-3.58,276.971,41.813
-3.55,277.112,41.733
-3.52,275.041,41.423
-3.48,272.549,41.492
-3.45,271.111,41.263
-3.42,270.163,40.759
-3.39,268.759,40.45
-3.35,268.443,40.129
-3.32,266.232,39.98
-3.29,264.688,40.106
-3.26,264.056,39.774
-3.22,262.372,39.751
-3.19,261.459,39.693
-3.16,260.933,39.247
-3.13,258.968,39.063
-3.09,258.476,38.846
-3.06,256.23,38.525
-3.03,253.563,38.72
-3.0,253.528,38.284
-2.96,251.247,38.055
-2.93,249.071,38.01
-2.9,248.158,37.368
-2.86,246.614,36.692
-2.83,243.701,36.738
-2.8,242.297,36.303
-2.77,240.437,35.718
-2.73,239.279,35.73
-2.7,237.454,35.615
-2.67,235.313,35.1
-2.64,232.19,34.836
-2.6,231.313,34.825
-2.57,231.488,34.08
-2.54,228.154,34.092
-2.51,226.54,34.103
-2.47,225.627,33.439
-2.44,223.416,33.45
-2.41,223.17,33.152
-2.38,221.556,32.282
-2.34,218.362,31.984
-2.31,215.73,31.835
-2.28,213.66,31.445
-2.25,211.554,31.159
-2.21,210.115,30.964
-2.18,207.413,30.678
-2.15,205.904,29.956
-2.12,202.815,29.326
-2.08,200.288,29.223
-2.05,200.078,28.204
-2.02,195.972,28.204
-1.99,193.655,28.181
-1.95,192.813,27.482
-1.92,190.742,27.127
-1.89,186.847,26.932
-1.86,184.18,26.382
-1.82,181.618,26.073
-1.79,180.74,25.615
-1.76,178.494,25.042
-1.73,175.827,24.985
-1.69,174.213,24.194
-1.66,170.177,23.805
-1.63,168.352,23.106
-1.6,165.088,22.51
-1.56,161.929,21.995
-1.53,158.034,21.502
-1.5,155.788,21.204
-1.46,151.927,20.689
-1.43,149.681,20.586
-1.4,148.979,19.646
-1.37,146.593,19.532
-1.33,143.75,19.005
-1.3,137.538,18.673
-1.27,135.608,18.409
-1.24,134.731,17.951
-1.2,134.169,17.264
-1.17,129.852,16.588
-1.14,126.378,16.061
-1.11,123.325,15.133
-1.07,119.569,14.709
-1.04,115.884,14.239
-1.01,111.673,13.941
-0.98,109.848,13.414
-0.94,107.812,12.773
-0.91,104.584,12.292
-0.88,101.144,11.57
-0.85,97.249,10.734
-0.81,93.704,9.829
-0.78,88.405,9.451
-0.75,84.895,8.867
-0.72,79.596,8.592
-0.68,76.929,8.42
-0.65,73.349,7.962
-0.62,70.085,7.687
-0.59,67.067,7.068
-0.55,64.154,6.507
-0.52,61.101,5.842
-0.49,57.17,5.315
-0.46,51.836,5.247
-0.42,50.362,4.766
-0.39,48.431,3.757
-0.36,45.062,3.414
-0.33,41.623,2.772
-0.29,36.148,2.451
-0.26,33.06,1.97
-0.23,29.269,1.592
-0.2,25.725,1.409
-0.16,22.356,0.997
-0.13,18.881,0.642
-0.1,15.547,0.241
-0.07,10.529,0.046
-0.03,5.194,-0.034
0.0,0.632,-0.183
0.03,-3.685,-0.069
0.07,-6.914,0.149
0.1,-10.037,0.046
0.13,-12.634,-0.092
0.16,-14.565,-0.699
0.2,-18.53,-0.871
0.23,-19.373,-1.741
0.26,-23.549,-2.406
0.29,-26.181,-2.623
0.33,-30.077,-3.322
0.36,-34.183,-3.597
0.39,-36.674,-4.25
0.42,-42.149,-4.147
0.46,-44.22,-4.502
0.49,-45.694,-5.636
0.52,-50.467,-5.785
0.55,-54.327,-5.968
0.59,-56.117,-7.091
0.62,-59.381,-7.801
0.65,-64.33,-7.962
0.68,-67.839,-8.695
0.72,-71.208,-9.451
0.75,-74.753,-9.634
0.78,-77.034,-10.493
0.81,-82.614,-10.745
0.85,-85.492,-11.215
0.88,-89.809,-11.811
0.91,-92.265,-12.109
0.94,-94.301,-13.048
0.98,-98.407,-13.266
1.01,-101.074,-13.827
1.04,-103.496,-14.606
1.07,-107.567,-15.064
1.11,-111.568,-15.419
1.14,-114.551,-16.198
1.17,-117.674,-16.633
1.2,-120.061,-17.309
1.24,-124.483,-17.561
1.27,-127.045,-17.985
1.3,-129.185,-18.695
1.33,-131.853,-19.096
1.37,-135.854,-19.646
1.4,-139.679,-20.471
1.43,-142.136,-21.078
1.46,-145.435,-20.918
1.5,-147.716,-20.735
1.53,-149.225,-21.64
1.56,-151.927,-22.648
1.6,-154.243,-23.152
1.63,-158.42,-23.576
1.66,-162.842,-23.805
1.69,-164.526,-24.652
1.73,-166.667,-25.053
1.76,-168.246,-25.374
1.79,-171.651,-25.775
1.82,-173.616,-26.29
1.86,-176.318,-26.875
1.89,-179.091,-27.47
1.92,-183.829,-27.952
1.95,-188.426,-27.791
1.99,-189.935,-28.181
2.02,-191.655,-28.33
2.05,-191.725,-28.662
2.08,-194.603,-28.788
2.12,-196.428,-29.131
2.15,-198.463,-30.094
2.18,-202.429,-30.483
2.21,-204.535,-30.621
2.25,-204.675,-31.457
2.28,-207.764,-31.503
2.31,-207.588,-31.56
2.34,-207.062,-32.694
2.38,-208.922,-33.416
2.41,-211.308,-33.874
2.44,-215.063,-34.332
2.47,-217.976,-34.687
2.51,-219.521,-35.088
2.54,-222.223,-34.997
2.57,-224.118,-34.951
2.6,-225.732,-35.249
2.64,-226.154,-35.856
2.67,-228.189,-36.177
2.7,-232.155,-36.028
2.73,-233.313,-36.268
2.77,-233.313,-37.059
2.8,-234.296,-37.345
2.83,-235.875,-37.448
2.86,-239.806,-37.769
2.9,-242.438,-37.895
2.93,-242.227,-38.422
2.96,-243.561,-38.777
3.0,-246.614,-38.823
3.03,-248.018,-39.315
3.06,-249.948,-39.842
3.09,-252.264,-39.476
3.13,-252.545,-39.819
3.16,-254.897,-40.129
3.19,-255.984,-40.346
3.22,-258.09,-40.495
3.26,-259.108,-40.828
3.29,-261.179,-40.954
3.32,-262.196,-40.793
3.35,-261.88,-41.137
3.39,-261.67,-41.71
3.42,-263.635,-41.675
3.45,-264.899,-41.71
3.48,-266.443,-42.454
3.52,-268.163,-42.638
3.55,-268.654,-43.279
3.58,-270.97,-43.268
3.61,-271.988,-42.947
3.65,-273.251,-43.13
3.68,-275.182,-42.855
3.71,-275.883,-43.073
3.74,-276.726,-43.657
3.78,-278.13,-43.749
3.81,-278.656,-43.691
3.84,-279.288,-43.84
3.87,-279.99,-43.623
3.91,-279.779,-43.623
3.94,-280.762,-43.439
3.97,-282.025,-43.107
4.0,-282.306,-43.291
4.04,-282.692,-43.623
4.07,-282.446,-43.68
4.1,-282.973,-44.058
4.13,-284.482,-43.806
4.17,-282.903,-43.703
4.2,-282.552,-44.012
4.23,-283.92,-43.966
4.26,-284.166,-44.173
4.3,-285.008,-43.863
4.33,-285.043,-43.646
4.36,-285.745,-43.325
4.39,-284.026,-43.268
4.43,-283.745,-43.027
4.46,-284.412,-42.225
4.49,-282.727,-42.489
4.53,-282.973,-42.569
4.56,-282.13,-42.225
4.59,-281.569,-42.099
4.62,-280.902,-41.813
4.66,-278.481,-41.733
4.69,-277.568,-41.515
4.72,-277.007,-41.183
4.75,-277.287,-41.091
4.79,-276.831,-40.908
4.82,-274.409,-41.034
4.85,-273.181,-40.644
4.88,-270.935,-39.945
4.92,-267.215,-39.762
4.95,-265.109,-39.797
4.98,-264.127,-39.728
5.01,-264.407,-39.98
5.05,-265.32,-39.98
5.08,-263.039,-40.381
5.11,-262.688,-40.507
5.14,-263.495,-39.751
5.18,-262.126,-39.407
5.21,-260.757,-39.407
5.24,-258.968,-39.052
5.27,-257.915,-38.697
5.31,-257.809,-38.067
5.34,-254.054,-38.124
5.37,-252.65,-37.769
5.4,-250.369,-36.875
5.44,-247.07,-36.578
5.47,-244.473,-36.726
5.5,-243.912,-36.222
5.53,-242.262,-35.558
5.57,-239.034,-35.673
5.6,-237.279,-35.352
5.63,-234.927,-35.169
5.66,-234.436,-35.065
5.7,-233.067,-34.63
5.73,-228.645,-35.02
5.76,-228.329,-35.02
5.79,-228.61,-34.103
5.83,-226.61,-33.92
5.86,-225.311,-34.138
5.89,-224.539,-33.611
5.92,-222.644,-32.751
5.96,-219.38,-32.522
5.99,-217.204,-32.362
6.02,-216.397,-31.56
6.06,-212.677,-31.354
6.09,-210.291,-31.457
6.12,-210.045,-30.678
6.15,-207.518,-30.437
6.19,-205.377,-30.117
6.22,-203.096,-29.326
6.25,-201.376,-28.765
6.28,-199.165,-28.387
6.32,-197.656,-27.929
6.35,-196.849,-27.23
6.38,-195.164,-26.714
6.41,-191.515,-26.245
6.45,-188.461,-25.706
6.48,-186.742,-24.744
6.51,-181.302,-24.893
6.54,-178.705,-24.549
6.58,-177.196,-23.999
6.61,-176.248,-23.965
6.64,-172.949,-23.564
6.67,-169.896,-22.98
6.71,-167.509,-22.327
6.74,-165.544,-21.857
6.77,-162.807,-21.021
6.8,-157.999,-20.666
6.84,-154.419,-20.677
6.87,-153.717,-20.311
6.9,-151.26,-19.681
6.93,-146.944,-19.497
6.97,-143.504,-19.108
7.0,-141.785,-18.684
7.03,-139.995,-18.306
7.06,-136.906,-17.813
7.1,-133.923,-17.504
7.13,-132.976,-16.817
7.16,-131.572,-15.706
7.19,-126.974,-15.087
7.23,-121.043,-14.881
7.26,-117.99,-14.09
7.29,-114.761,-13.334
7.32,-111.919,-12.991
7.36,-106.9,-12.933
7.39,-104.163,-12.578
7.42,-101.811,-11.65
7.46,-97.459,-11.444
7.49,-94.336,-10.952
7.52,-91.914,-9.623
7.55,-86.931,-8.878
7.59,-83.492,-8.431
7.62,-78.157,-7.824
7.65,-72.823,-7.881
7.68,-71.489,-7.217
7.72,-66.856,-6.931
7.75,-63.347,-6.942
7.78,-62.048,-5.877
7.81,-58.012,-5.201
7.85,-54.468,-5.155
7.88,-52.116,-4.456
7.91,-48.817,-3.792
7.94,-45.94,-3.356
7.98,-42.184,-3.024
8.01,-39.377,-2.371
8.04,-35.587,-1.867
8.07,-32.428,-1.673
8.11,-30.743,-0.79
8.14,-27.725,-0.046
8.17,-22.005,0.08
8.2,-16.214,-0.16
8.24,-15.302,0.848
8.27,-12.389,1.695
8.3,-8.493,1.993
8.33,-2.878,2.383
8.37,3.088,2.532
8.4,8.669,2.188
8.43,12.143,1.753
8.46,14.951,1.569
8.5,15.442,1.913
8.53,17.688,2.52
8.56,21.689,2.543
8.59,24.847,2.761
8.63,28.252,3.265
8.66,31.831,3.54
8.69,35.025,3.723
8.72,37.868,4.078
8.76,41.096,4.399
8.79,44.325,4.731
8.82,48.01,5.063
8.85,50.818,5.613
8.89,55.029,5.98
8.92,58.749,6.163
8.95,60.925,6.862
8.99,64.014,7.458
9.02,68.576,7.732
9.05,72.542,8.305
9.08,75.349,8.947
9.12,77.946,9.428
9.15,82.228,9.783
9.18,84.299,10.573
9.21,86.089,11.673
9.25,91.388,11.811
9.28,95.073,12.418
9.31,99.425,12.887
9.34,101.846,12.956
9.38,102.899,13.976
9.41,108.128,14.148
9.44,112.129,14.411
9.47,114.726,15.293
9.51,116.902,15.751
9.54,119.745,16.324
9.57,123.325,16.874
9.6,126.624,17.355
9.64,129.185,18.02
9.67,131.747,18.799
9.7,134.976,19.452
9.73,139.468,19.772
9.77,141.679,20.723
9.8,146.768,20.826
9.83,147.821,20.849
9.86,149.295,21.892
9.9,153.331,21.903
9.93,155.191,22.854
9.96,160.139,23.163
9.99,163.017,23.438
10.03,165.79,24.08
10.06,167.404,24.492
10.09,168.633,25.099
10.12,171.51,25.58
10.16,174.213,26.073
10.19,177.968,26.6
10.22,180.846,27.127
10.25,184.074,27.745
10.29,188.04,27.768
10.32,189.409,28.261
10.35,191.304,28.811
10.38,194.147,28.788
10.42,194.919,29.131
10.45,197.165,29.979
10.48,201.517,29.819
10.52,202.394,30.151
10.55,203.833,30.896
10.58,205.553,31.136
10.61,206.711,31.297
10.65,209.273,31.56
10.68,210.606,31.892
10.71,211.765,32.694
10.74,215.45,32.797
10.78,215.695,33.416
10.81,218.713,34.138
10.84,221.696,34.126
10.87,221.661,34.584
10.91,223.872,34.802
10.94,225.241,35.031
10.97,226.434,35.856
11.0,229.031,36.348
11.04,230.54,36.589
11.07,232.892,37.265
11.1,236.401,37.666
11.13,238.121,37.723
11.17,239.034,37.883
11.2,240.718,37.826
11.23,242.192,38.239
11.26,244.403,38.605
11.3,246.86,38.617
11.33,247.667,38.777
11.36,248.228,39.43
11.39,250.334,39.384
11.43,251.001,39.487
11.46,253.493,39.865
11.49,256.967,39.774
11.52,257.283,39.98
11.56,256.792,40.873
11.59,259.95,40.873
11.62,261.003,40.965
11.65,262.442,41.343
11.69,263.495,41.068
11.72,263.039,41.526
11.75,264.758,41.859
11.78,266.127,41.859
11.82,267.882,42.34
11.85,269.987,42.443
11.88,270.795,43.027
11.91,272.865,42.809
11.95,272.76,42.798
11.98,273.567,43.313
12.01,274.339,43.382
12.05,276.375,43.405
12.08,278.691,42.924
12.11,279.112,43.428
12.14,279.849,43.978
12.18,280.551,43.943
12.21,281.499,43.588
12.24,281.569,43.325
12.27,280.446,43.462
12.31,280.305,44.092
12.34,282.938,43.875
12.37,282.903,43.76
12.4,283.043,44.173
12.44,283.218,44.23
12.47,283.64,44.493
12.5,284.412,44.161
12.53,284.587,44.069
12.57,285.043,44.344
12.6,285.219,44.94
12.63,285.921,44.402
12.66,285.535,44.31
12.7,286.482,44.15
12.73,286.201,43.806
12.76,284.692,43.52
12.79,283.85,43.405
12.83,284.306,43.439
12.86,284.833,43.359
12.89,284.271,43.233
12.92,282.13,43.256
12.96,280.727,43.038
12.99,279.709,42.706
13.02,279.604,42.34
13.05,279.182,42.007
13.09,278.024,41.859
13.12,276.375,41.893
13.15,276.375,41.412
13.18,274.48,40.965
13.22,271.532,41.011
13.25,269.601,40.667
13.28,267.355,40.255
13.31,267.039,40.14
13.35,266.443,39.957
13.38,262.688,40.53
13.41,262.161,40.61
13.45,261.705,40.14
13.48,261.249,40.014
13.51,260.442,39.648
13.54,258.862,39.304
13.58,258.266,38.777
13.61,255.774,38.754
13.64,254.546,38.685
13.67,254.124,38.124
13.71,252.335,37.861
13.74,249.632,37.757
13.77,247.351,37.288
13.8,244.579,37.07
13.84,245.07,36.726
13.87,244.052,35.993
13.9,241.666,35.879
13.93,240.227,35.707
13.97,237.384,35.409
14.0,235.138,35.065
14.03,234.05,34.538
14.06,231.488,34.538
14.1,229.768,34.504
14.13,227.873,34.206
14.16,226.505,34.023
14.19,226.118,33.439
14.23,223.662,33.37
14.26,221.907,33.107
14.29,220.644,32.305
14.32,218.047,31.869
14.36,216.257,31.789
14.39,213.976,31.365
14.42,210.08,31.514
14.45,210.396,30.976
14.49,207.343,30.655
14.52,205.307,30.449
14.55,204.43,29.372
14.58,201.692,28.96
14.62,199.411,28.524
14.65,196.603,28.078
14.68,193.234,28.169
14.71,192.392,27.814
14.75,189.83,27.344
14.78,186.952,27.15
14.81,186.005,26.119
14.84,182.46,25.901
14.88,180.495,25.42
14.91,179.196,24.549
14.94,176.494,24.366
14.98,173.335,23.999
15.01,169.475,23.381
15.04,166.071,23.163
15.07,163.158,22.888
15.11,160.771,22.35
15.14,159.613,21.594
15.17,157.472,21.181
15.2,153.893,20.425
15.24,150.172,20.162
15.27,147.681,19.726
15.3,144.768,19.704
15.33,142.697,19.36
15.37,140.627,18.375
15.4,138.661,17.756
15.43,134.766,17.607
15.46,132.87,16.92
15.5,129.501,16.233
15.53,126.237,15.786
15.56,122.482,15.202
15.59,118.306,14.823
15.63,114.41,14.56
15.66,112.936,13.85
15.69,108.971,13.598
15.72,107.532,13.277
15.76,105.566,12.143
15.79,101.706,11.467
15.82,97.495,10.768
15.85,91.879,10.253
15.89,87.563,9.634
15.92,84.439,8.993
15.95,80.789,8.603
15.98,75.7,8.741
16.02,72.787,8.397
16.05,70.927,7.503
16.08,68.085,6.976
16.11,65.628,6.404
16.15,61.136,5.682
16.18,55.064,5.625
16.21,51.66,5.464
16.24,50.853,4.766
16.28,48.958,3.987
16.31,44.711,3.792
16.34,42.36,2.875
16.37,37.306,2.096
16.41,32.884,1.867
16.44,28.427,1.558
16.47,24.847,1.18
16.51,21.338,0.825
16.54,18.039,0.653
16.57,14.845,0.321
16.6,11.09,-0.126
16.64,6.001,-0.355
16.67,0.421,-0.16
16.7,-3.86,0.0
16.73,-7.019,0.137
16.77,-9.581,0.298
16.8,-10.809,0.069
16.83,-12.915,-0.676
16.86,-17.407,-0.733
16.9,-17.337,-1.799
16.93,-22.707,-2.612
16.96,-27.129,-2.406
16.99,-29.655,-3.402
17.03,-35.025,-3.666
17.06,-38.605,-3.746
17.09,-42.079,-3.941
17.12,-42.465,-4.949
17.16,-46.817,-5.407
17.19,-50.888,-5.384
17.22,-52.853,-6.53
17.25,-56.96,-7.102
17.29,-60.223,-7.48
17.32,-63.452,-8.305
17.35,-67.418,-8.741
17.38,-70.822,-9.222
17.42,-74.893,-9.852
17.45,-78.403,-10.173
17.48,-81.842,-10.677
17.51,-84.404,-11.284
17.55,-86.755,-12.28
17.58,-91.563,-12.532
17.61,-94.617,-13.231
17.64,-99.144,-13.632
17.68,-101.671,-13.884
17.71,-105.952,-14.193
17.74,-108.093,-14.583
17.77,-109.708,-15.591
17.81,-114.726,-15.717
17.84,-118.236,-16.267
17.87,-121.956,-16.84
17.91,-124.904,-16.805
17.94,-124.553,-17.894
17.97,-128.448,-18.558
18.0,-132.484,-18.592
18.04,-134.344,-20.093
18.07,-138.521,-20.654
18.1,-141.995,-20.975
18.13,-146.347,-21.307
18.17,-147.751,-21.388
18.2,-149.4,-22.052
18.23,-152.348,-22.545
18.26,-156.595,-22.785
18.3,-159.087,-23.06
18.33,-159.192,-24.206
18.36,-162.526,-24.733
18.39,-165.895,-24.95
18.43,-168.562,-25.706
18.46,-172.984,-25.809
18.49,-176.038,-25.672
18.52,-178.389,-26.084
18.56,-181.021,-26.508
18.59,-183.232,-27.001
18.62,-186.285,-27.321
18.65,-187.935,-27.848
18.69,-190.041,-28.295
18.72,-191.339,-28.616
18.75,-193.129,-29.166
18.78,-196.744,-29.28
18.82,-198.463,-29.876
18.85,-201.025,-30.518
18.88,-202.64,-30.781
18.91,-204.324,-31.171
18.95,-206.816,-31.331
18.98,-207.518,-31.835
19.01,-209.904,-32.19
19.04,-211.765,-32.373
19.08,-212.115,-33.301
19.11,-214.502,-34.092
19.14,-218.011,-34.241
19.17,-220.538,-34.493
19.21,-222.188,-34.802
19.24,-222.995,-35.088
19.27,-225.346,-35.18
19.3,-227.312,-35.455
19.34,-229.312,-35.89
19.37,-230.47,-36.291
19.4,-230.891,-36.944
19.44,-235.735,-36.864
19.47,-238.261,-36.509
19.5,-238.156,-37.116
19.53,-240.508,-37.311
19.57,-240.858,-37.334
19.6,-242.157,-38.032
19.63,-244.333,-38.502
19.66,-245.702,-39.132
19.7,-248.123,-39.419
19.73,-248.965,-39.797
19.76,-251.492,-39.865
19.79,-253.177,-39.842
19.83,-253.738,-40.324
19.86,-255.984,-40.553
19.89,-257.634,-40.507
19.92,-257.88,-41.229
19.96,-261.249,-41.114
19.99,-261.249,-40.954
20.02,-260.406,-41.675
20.05,-261.845,-41.973
20.09,-263.705,-41.767
20.12,-265.215,-42.007
20.15,-266.934,-42.523
20.18,-268.864,-42.729
20.22,-270.444,-42.695
20.25,-271.146,-42.993
20.28,-272.479,-42.947
20.31,-272.9,-42.947
20.35,-273.918,-43.199
20.38,-275.778,-43.096
20.41,-276.445,-43.21
20.44,-276.831,-44.058
20.48,-279.112,-43.657
20.51,-279.323,-43.348
20.54,-280.586,-43.382
20.57,-280.13,-43.279
20.61,-280.586,-43.462
20.64,-282.587,-42.947
20.67,-281.674,-43.359
20.7,-281.955,-43.898
20.74,-283.289,-43.6
20.77,-283.78,-43.6
20.8,-283.394,-44.253
20.83,-284.552,-43.703
20.87,-284.833,-43.245
20.9,-285.464,-43.543
20.93,-285.71,-43.554
20.97,-284.763,-43.6
21.0,-284.622,-43.554
21.03,-284.798,-43.382
21.06,-285.078,-42.878
21.1,-283.604,-42.534
21.13,-283.078,-42.454
21.16,-283.429,-42.168
21.19,-281.779,-42.5
21.23,-282.13,-42.557
21.26,-282.657,-41.985
21.29,-280.937,-41.79
21.32,-278.586,-41.904
21.36,-277.252,-41.584
21.39,-276.024,-41.446
21.42,-276.129,-41.641
21.45,-275.743,-41.687
21.49,-274.796,-41.561
21.52,-273.076,-41.355
21.55,-271.883,-40.885
21.58,-269.777,-40.301
21.62,-267.32,-40.243
21.65,-266.443,-40.117
21.68,-265.741,-40.163
21.71,-266.092,-40.083
21.75,-265.46,-39.923
21.78,-262.968,-40.026
21.81,-260.266,-40.094
21.84,-260.371,-39.464
21.88,-259.108,-39.098
21.91,-257.318,-39.373
21.94,-257.388,-38.834
21.97,-255.739,-38.296
22.01,-255.142,-38.548
22.04,-256.651,-38.433
22.07,-256.02,-38.021
22.1,-253.879,-37.723
22.14,-251.212,-37.345
22.17,-249.141,-36.956
22.2,-247.913,-36.474
22.23,-246.368,-36.039
22.27,-244.228,-35.558
22.3,-241.35,-35.111
22.33,-238.437,-34.699
22.37,-235.945,-34.435
22.4,-234.576,-33.691
22.43,-230.611,-33.072
22.46,-226.469,-33.141
22.5,-225.522,-33.244
22.53,-224.469,-33.095
22.56,-222.223,-33.061
22.59,-221.346,-32.74
22.63,-219.661,-32.866
22.66,-219.872,-32.602
22.69,-218.117,-32.179
22.72,-216.713,-31.972
22.76,-214.607,-31.824
22.79,-214.783,-31.388
22.82,-213.133,-30.392
22.85,-209.062,-30.105
22.89,-205.553,-29.406
22.92,-202.324,-29.12
22.95,-202.921,-28.364
22.98,-201.306,-27.791
23.02,-198.148,-27.447
23.05,-193.866,-26.955
23.08,-189.97,-26.508
23.11,-186.777,-26.279
23.15,-186.11,-25.672
23.18,-182.46,-25.328
23.21,-179.021,-25.111
23.24,-177.336,-24.652
23.28,-176.108,-24.549
23.31,-174.142,-23.736
23.34,-170.808,-22.716
23.37,-166.141,-22.35
23.41,-161.754,-22.373
23.44,-159.367,-21.914
23.47,-158.104,-21.147
23.5,-155.542,-21.25
23.54,-153.998,-20.883
23.57,-149.646,-20.368
23.6,-147.295,-19.612
23.63,-144.312,-18.913
23.67,-140.24,-19.211
23.7,-139.293,-18.375
23.73,-137.854,-17.813
23.76,-135.573,-17.676
23.8,-132.66,-17.241
23.83,-130.344,-16.416
23.86,-126.974,-15.454
23.9,-123.395,-14.4
23.93,-116.13,-14.182
23.96,-112.48,-13.896
23.99,-110.866,-12.647
24.03,-106.233,-12.704
24.06,-104.092,-12.521
24.09,-100.162,-11.501
24.12,-94.792,-11.043
24.16,-90.756,-10.642
24.19,-86.79,-10.092
24.22,-82.088,-9.737
24.25,-78.964,-9.394
24.29,-77.069,-8.615
24.32,-73.946,-8.214
24.35,-70.541,-7.801
24.38,-66.997,-6.965
24.42,-64.365,-6.026
24.45,-60.329,-5.579
24.48,-55.801,-5.464
24.51,-52.818,-4.72
24.55,-48.151,-4.605
24.58,-46.747,-4.433
24.61,-44.641,-3.654
24.64,-41.833,-2.875
24.68,-37.692,-2.291
24.71,-34.218,-1.489
24.74,-27.62,-0.286
24.77,-19.759,0.057
24.81,-14.389,0.848
24.84,-8.493,-0.103
24.87,-9.09,0.023
24.9,-6.738,0.229
24.94,-6.458,0.16
24.97,-5.545,1.111
25.0,-1.474,1.214
25.03,0.737,1.363
25.07,3.404,1.936
25.1,7.124,2.039
25.13,10.669,1.787
25.16,12.985,1.867
25.2,15.161,2.291
25.23,18.741,2.497
25.26,22.636,2.738
25.29,26.637,3.024
25.33,30.252,3.414
25.36,34.218,3.815
25.39,38.464,4.09
25.43,41.728,4.399
25.46,44.746,5.086
25.49,49.905,5.304
25.52,53.415,5.35
25.56,55.907,5.808
25.59,59.276,6.071
25.62,61.522,6.518
25.65,64.54,6.999
25.69,67.137,7.251
25.72,69.804,7.824
25.75,72.893,8.408
25.78,75.981,8.775
25.82,78.368,9.371
25.85,82.193,10.024
25.88,85.597,10.699
25.91,90.054,11.123
25.95,92.3,11.627
25.98,96.442,12.212
26.01,98.863,12.635
26.04,102.022,13.644
26.08,108.269,13.266
26.11,108.269,14.629
26.14,112.55,15.522
26.17,117.288,15.396
26.21,120.377,16.175
26.24,121.359,17.115
26.27,126.448,17.057
26.3,129.642,17.55
26.34,132.625,18.237
26.37,134.38,18.409
26.4,137.257,19.452
26.43,141.048,20.013
26.47,144.978,20.379
26.5,148.453,20.643
26.53,150.418,21.468
26.56,153.577,21.64
26.6,154.77,22.384
26.63,159.332,22.945
26.66,161.824,23.404
26.69,164.105,24.297
26.73,167.334,24.423
26.76,169.545,24.824
26.79,171.896,25.351
26.82,173.721,25.935
26.86,176.775,26.371
26.89,178.459,27.31
26.92,183.092,27.963
26.96,187.233,27.906
26.99,189.198,28.375
27.02,191.304,28.742
27.05,192.638,28.925
27.09,194.814,29.166
27.12,196.568,29.704
27.15,198.849,30.288
27.18,202.148,30.369
27.22,204.64,30.529
27.25,206.079,30.919
27.28,205.307,31.571
27.31,208.43,31.663
27.35,211.203,31.594
27.38,211.87,32.648
27.41,214.713,33.118
27.44,215.836,33.267
27.48,217.625,33.954
27.51,221.591,34.206
27.54,222.749,34.298
27.57,224.399,34.573
27.61,226.224,34.768
27.64,227.768,35.283
27.67,231.207,35.398
27.7,232.05,35.547
27.74,231.313,36.566
27.77,235.173,36.864
27.8,237.805,36.749
27.83,238.402,37.631
27.87,242.192,37.826
27.9,242.964,37.872
27.93,244.438,38.582
27.96,247.983,38.605
28.0,250.124,38.491
28.03,250.615,38.777
28.06,250.72,39.201
28.09,252.896,38.926
28.13,254.651,38.926
28.16,256.967,39.167
28.19,257.143,39.441
28.22,256.827,40.014
28.26,258.371,40.255
28.29,260.126,40.553
28.32,260.968,40.885
28.36,262.863,40.919
28.39,263.354,40.793
28.42,263.6,41.366
28.45,265.565,41.481
28.49,267.039,41.733
28.52,269.707,42.237
28.55,271.461,42.156
28.58,271.532,42.615
28.62,272.549,42.786
28.65,273.392,42.764
28.68,274.62,42.912
28.71,275.989,42.89
28.75,275.954,43.795
28.78,278.691,43.932
28.81,279.568,43.417
28.84,280.165,43.806
28.88,281.148,43.966
28.91,282.025,43.737
28.94,282.236,43.061
28.97,281.499,43.543
29.01,282.867,43.909
29.04,284.166,43.302
29.07,283.043,43.531
29.1,284.061,43.932
29.14,285.008,43.565
29.17,283.885,43.817
29.2,283.324,44.024
29.23,283.85,44.253
29.27,285.359,43.966
29.3,285.815,43.772
29.33,285.57,43.84
29.36,284.657,44.241
29.4,285.429,44.001
29.43,284.692,43.772
29.46,284.763,43.714
29.49,284.061,43.909
29.53,283.955,44.081
29.56,284.622,43.737
29.59,283.569,43.634
29.62,283.71,43.176
29.66,282.797,42.317
29.69,279.639,42.202
29.72,278.586,42.065
29.75,277.673,41.824
29.79,277.252,41.801
29.82,276.62,41.595
29.85,275.111,41.183
29.89,272.339,40.839
29.92,270.409,40.484
29.95,268.513,40.037
29.98,266.689,40.014
30.02,266.232,40.072
30.05,265.952,39.854
30.08,264.232,39.808
30.11,262.126,39.923
30.15,261.179,39.636
30.18,260.056,39.167
30.21,258.231,39.224
30.24,257.529,39.132
30.28,256.441,38.846
30.31,256.3,38.456
30.34,253.949,38.365
30.37,251.352,38.525
30.41,250.79,37.792
30.44,249.316,37.07
30.47,246.965,37.001
30.5,244.824,36.898
30.54,242.508,36.52
30.57,241.701,36.154
30.6,239.595,36.177
30.63,237.314,36.371
30.67,236.717,35.489
30.7,233.91,35.008
30.73,233.032,34.905
30.76,231.874,34.493
30.8,229.628,33.851
30.83,225.978,33.668
30.86,225.381,33.519
30.89,223.943,32.877
30.93,220.222,32.763
30.96,218.468,32.293
30.99,215.871,32.018
31.02,214.326,31.858
31.06,211.238,31.812
31.09,209.483,31.824
31.12,208.922,31.308
31.15,208.501,30.861
31.19,207.237,29.956
31.22,203.833,29.67
31.25,201.271,29.017
31.28,197.726,28.467
31.32,195.164,28.788
31.35,192.813,28.96
31.38,192.673,28.57
31.42,192.111,27.974
31.45,190.041,27.574
31.48,188.286,26.497
31.51,183.688,25.958
31.55,180.214,25.569
31.58,177.547,24.996
31.61,175.511,24.893
31.64,173.335,24.32
31.68,171.159,23.633
31.71,169.405,22.682
31.74,163.368,22.785
31.77,160.315,22.304
31.81,159.087,21.422
31.84,156.77,21.479
31.87,155.753,20.769
31.9,151.787,20.586
31.94,148.874,20.334
31.97,147.4,19.383
32.0,142.978,19.383
32.03,139.117,19.245
32.07,137.398,18.34
32.1,135.748,17.813
32.13,132.695,17.367
32.16,129.185,16.691
32.2,126.413,15.969
32.23,122.447,15.614
32.26,120.517,14.835
32.29,116.411,14.113
32.33,112.831,13.838
32.36,108.936,13.518
32.39,105.426,13.403
32.42,103.917,12.635
32.46,100.829,11.994
32.49,97.986,11.226
32.52,92.09,10.711
32.55,86.896,10.367
32.59,83.176,9.806
32.62,81.667,9.107
32.65,78.192,8.592
32.68,73.489,8.592
32.72,71.664,7.538
32.75,66.365,6.942
32.78,62.715,6.908
32.82,60.364,5.991
32.85,56.258,5.544
32.88,54.082,5.155
32.91,50.677,4.605
32.95,47.168,4.158
32.98,42.746,3.895
33.01,39.447,3.608
33.04,36.85,2.875
33.08,32.393,2.692
33.11,29.094,2.417
33.14,26.321,1.661
33.17,22.777,1.031
33.21,17.583,0.951
33.24,12.95,0.733
33.27,7.581,0.573
33.3,4.106,0.699
33.34,2.316,0.481
33.37,-0.526,0.412
33.4,-3.159,0.126
33.43,-6.598,-0.115
33.47,-10.458,-0.057
33.5,-12.599,-0.309
33.53,-14.529,-1.386
33.56,-19.267,-1.707
33.6,-21.548,-2.52
33.63,-26.848,-3.104
33.66,-29.866,-3.815
33.69,-37.025,-3.838
33.73,-41.026,-3.78
33.76,-44.571,-4.296
33.79,-47.343,-4.33
33.82,-50.046,-4.502
33.86,-51.414,-5.189
33.89,-55.345,-5.739
33.92,-55.907,-6.553
33.95,-59.592,-7.698
33.99,-66.154,-7.354
34.02,-66.681,-8.454
34.05,-70.682,-8.935
34.08,-73.946,-8.786
34.12,-75.735,-10.012
34.15,-79.561,-10.47
34.18,-83.0,-10.952
34.21,-88.194,-11.478
34.25,-90.897,-12.097
34.28,-94.406,-12.624
34.31,-98.302,-12.842
34.35,-101.074,-13.334
34.38,-103.145,-13.987
34.41,-107.497,-14.262
34.44,-110.445,-14.915
34.48,-113.708,-15.843
34.51,-116.832,-16.141
34.54,-120.377,-16.691
34.57,-123.605,-16.989
34.61,-125.957,-17.802
34.64,-130.098,-17.905
34.67,-131.467,-18.524
34.7,-133.783,-19.738
34.74,-139.96,-19.486
34.77,-141.609,-20.379
34.8,-143.785,-21.365
34.83,-147.54,-21.044
34.87,-150.523,-21.869
34.9,-154.173,-22.327
34.93,-157.121,-22.247
34.96,-159.262,-22.808
35.0,-162.772,-23.266
35.03,-164.877,-23.541
35.06,-166.843,-24.125
35.09,-170.528,-24.171
35.13,-172.598,-24.446
35.16,-174.037,-25.007
35.19,-175.616,-25.638
35.22,-179.582,-26.084
35.26,-181.267,-26.898
35.29,-183.337,-27.963
35.32,-186.917,-27.986
35.35,-188.707,-28.284
35.39,-192.146,-28.685
35.42,-194.533,-28.822
35.45,-195.656,-29.12
35.48,-196.954,-29.865
35.52,-200.218,-30.231
35.55,-202.57,-30.483
35.58,-205.272,-30.747
35.61,-205.482,-31.148
35.65,-206.43,-31.755
35.68,-207.202,-32.236
35.71,-208.746,-33.301
35.74,-215.485,-33.175
35.78,-217.661,-33.393
35.81,-220.363,-34.046
35.84,-222.293,-33.817
35.88,-222.749,-34.023
35.91,-225.206,-34.092
35.94,-226.013,-34.504
35.97,-228.505,-34.756
36.01,-228.716,-35.134
36.04,-230.927,-35.684
36.07,-234.506,-35.489
36.1,-233.138,-36.028
36.14,-233.945,-36.715
36.17,-235.945,-36.474
36.2,-237.419,-36.921
36.23,-240.894,-37.838
36.27,-244.017,-38.067
36.3,-244.333,-38.445
36.33,-245.947,-38.937
36.36,-248.93,-39.018
36.4,-251.001,-38.995
36.43,-250.79,-39.441
36.46,-252.089,-39.785
36.49,-254.581,-39.682
36.53,-256.651,-39.888
36.56,-258.195,-40.243
36.59,-258.476,-40.61
36.62,-259.494,-40.85
36.66,-261.74,-40.656
36.69,-262.407,-40.69
36.72,-262.477,-41.251
36.75,-263.705,-41.377
36.79,-264.864,-41.458
36.82,-266.829,-41.847
36.85,-269.391,-41.893
36.88,-269.742,-42.317
36.92,-269.917,-43.084
36.95,-271.988,-42.867
36.98,-273.181,-42.328
37.01,-272.549,-43.084
37.05,-274.655,-43.611
37.08,-276.375,-43.153
37.11,-277.007,-43.703
37.14,-279.112,-43.623
37.18,-279.568,-43.348
37.21,-279.393,-43.795
37.24,-280.692,-43.508
37.28,-280.867,-43.004
37.31,-280.656,-43.543
37.34,-281.92,-43.657
37.37,-282.762,-43.451
37.41,-282.867,-43.508
37.44,-282.832,-44.195
37.47,-284.903,-43.795
37.5,-283.885,-43.886
37.54,-284.903,-44.115
37.57,-285.64,-43.508
37.6,-284.587,-43.863
37.63,-285.57,-43.795
37.67,-285.78,-43.371
37.7,-284.727,-43.302
37.73,-284.412,-43.004
37.76,-283.885,-42.374
37.8,-282.797,-42.328
37.83,-282.622,-42.477
37.86,-282.025,-42.5
37.89,-282.06,-42.397
37.93,-281.604,-42.156
37.96,-279.182,-42.248
37.99,-279.077,-41.904
38.02,-277.849,-41.481
38.06,-276.41,-41.664
38.09,-276.024,-41.607
38.12,-275.357,-41.503
38.15,-275.217,-41.32
38.19,-275.006,-40.908
38.22,-272.725,-40.324
38.25,-269.707,-40.026
38.28,-267.39,-39.716
38.32,-265.39,-39.819
38.35,-265.215,-39.923
38.38,-264.056,-40.014
38.41,-262.547,-40.301
38.45,-262.617,-40.14
38.48,-260.793,-39.693
38.51,-257.845,-39.785
38.54,-256.827,-39.613
38.58,-257.178,-39.419
38.61,-258.266,-39.27
38.64,-257.002,-39.338
38.67,-255.669,-39.086
38.71,-254.686,-38.353
38.74,-252.019,-37.563
38.77,-249.001,-36.726
38.81,-246.579,-36.016
38.84,-243.245,-35.913
38.87,-240.262,-35.787
38.9,-236.858,-35.81
38.94,-236.261,-35.718
38.97,-235.208,-35.776
39.0,-234.155,-35.753
39.03,-232.436,-35.283
39.07,-231.839,-34.745
39.1,-229.979,-34.538
39.13,-229.312,-34.126
39.16,-227.698,-33.462
39.2,-225.522,-33.748
39.23,-223.311,-33.37
39.26,-220.644,-32.511
39.29,-217.696,-32.041
39.33,-215.309,-31.869
39.36,-211.273,-31.526
39.39,-207.588,-31.491
39.42,-207.658,-30.758
39.46,-206.114,-30.506
39.49,-204.71,-30.185
39.52,-201.762,-29.819
39.55,-199.586,-29.452
39.59,-197.621,-29.143
39.62,-195.761,-28.788
39.65,-194.322,-28.49
39.68,-193.059,-28.055
39.72,-190.707,-27.906
39.75,-190.637,-27.138
39.78,-188.672,-26.657
39.81,-185.162,-26.611
39.85,-182.144,-26.187
39.88,-179.933,-25.764
39.91,-178.249,-25.695
39.94,-177.09,-25.111
39.98,-174.774,-24.71
40.01,-173.546,-23.828
40.04,-168.562,-23.495
40.07,-165.86,-23.152
40.11,-163.86,-22.166
40.14,-159.753,-21.869
40.17,-155.928,-21.399
40.2,-154.454,-20.964
40.24,-152.594,-20.54
40.27,-149.12,-19.864
40.3,-144.803,-18.856
40.34,-140.416,-18.753
40.37,-137.082,-18.661
40.4,-135.854,-17.79
40.43,-133.151,-17.676
40.47,-130.519,-17.0
40.5,-125.957,-16.485
40.53,-122.728,-16.748
40.56,-122.061,-15.9
40.6,-117.92,-15.328
40.63,-113.322,-15.396
40.66,-110.585,-14.571
40.69,-106.76,-13.85
40.73,-105.356,-13.426
40.76,-102.724,-12.487
40.79,-98.793,-11.639
40.82,-94.09,-10.917
40.86,-89.563,-10.585
40.89,-86.089,-9.932
40.92,-81.877,-9.405
40.95,-78.192,-8.958
40.99,-75.876,-8.214
41.02,-72.015,-7.526
41.05,-65.663,-7.893
41.08,-64.47,-7.228
41.12,-61.697,-6.175
41.15,-58.083,-6.312
41.18,-56.398,-5.716
41.21,-51.871,-5.029
41.25,-48.326,-4.662
41.28,-45.238,-4.284
41.31,-42.851,-3.677
41.34,-38.921,-2.933
41.38,-34.288,-2.44
41.41,-31.305,-1.604
41.44,-28.954,-0.676
41.47,-22.777,-0.527
41.51,-16.179,-1.123
41.54,-14.81,-0.401
41.57,-11.652,-0.241
41.6,-10.774,-0.332
41.64,-10.213,0.584
41.67,-7.475,1.535
41.7,-2.106,1.604
41.73,1.614,1.821
41.77,5.931,2.199
41.8,9.932,1.993
41.83,13.652,1.718
41.87,14.81,2.268
41.9,18.53,2.852
41.93,23.97,2.99
41.96,28.603,3.494
42.0,33.446,3.746
42.03,37.025,3.849
42.06,40.009,4.147
42.09,43.132,4.433
42.13,45.905,4.766
42.16,48.853,5.121
42.19,52.783,5.304
42.22,55.696,5.499
42.26,58.047,6.129
42.29,61.873,6.312
42.32,64.119,6.908
42.35,67.172,7.595
42.39,71.208,7.927
42.42,74.683,8.385
42.45,76.613,9.302
42.48,80.789,9.703
42.52,85.106,10.23
42.55,88.229,11.215
42.58,93.108,11.284
42.61,96.652,11.261
42.65,99.6,11.834
42.68,103.777,11.891
42.71,105.531,12.418
42.74,107.777,13.082
42.78,109.708,13.792
42.81,114.691,14.251
42.84,116.551,14.949
42.87,117.323,16.404
42.91,121.78,16.416
42.94,126.308,16.702
42.97,128.273,18.008
43.0,129.887,18.421
43.04,133.327,19.119
43.07,139.433,19.52
43.1,142.522,20.276
43.13,145.049,20.654
43.17,146.558,20.792
43.2,150.488,21.296
43.23,155.016,21.846
43.27,159.052,22.212
43.3,161.122,22.27
43.33,161.754,23.014
43.36,163.544,23.873
43.4,169.019,23.885
43.43,171.51,24.102
43.46,173.09,24.962
43.49,174.844,25.58
43.53,177.617,26.199
43.56,180.495,26.703
43.59,183.548,27.413
43.62,187.057,27.7
43.66,189.514,28.1
43.69,192.357,28.261
43.72,193.69,28.582
43.75,194.252,29.212
43.79,196.498,29.807
43.82,199.095,30.105
43.85,201.482,30.575
43.88,204.851,30.575
43.92,205.447,30.941
43.95,206.36,31.423
43.98,208.711,31.549
44.01,211.729,31.48
44.05,212.958,31.995
44.08,214.081,32.648
44.11,216.222,32.855
44.14,219.661,32.809
44.18,220.293,33.473
44.21,221.942,33.966
44.24,222.433,34.275
44.27,225.206,34.619
44.31,227.206,34.951
44.34,228.821,35.615
44.37,230.014,35.925
44.4,231.979,36.807
44.44,236.682,37.276
44.47,238.472,37.54
44.5,240.858,37.471
44.53,241.455,37.551
44.57,243.385,37.952
44.6,244.965,37.803
44.63,243.982,38.491
44.66,248.053,38.559
44.7,249.878,38.307
44.73,249.597,38.949
44.76,251.036,39.315
44.8,252.264,39.35
44.83,253.036,39.728
44.86,256.02,40.014
44.89,257.774,40.266
44.93,258.652,41.297
44.96,262.161,41.022
44.99,261.916,40.656
45.02,262.021,41.194
45.06,263.319,41.4
45.09,264.864,41.217
45.12,266.408,41.32
45.15,268.443,41.939
45.19,270.303,42.42
45.22,271.812,42.58
45.25,272.83,42.305
45.28,273.322,42.569
45.32,274.69,42.489
45.35,275.076,42.615
45.38,276.375,42.832
45.41,277.007,43.187
45.45,277.989,43.623
45.48,279.112,43.543
45.51,280.27,43.325
45.54,280.621,43.359
45.58,280.551,43.6
45.61,282.06,43.233
45.64,281.779,43.21
45.67,281.779,43.497
45.71,283.078,43.439
45.74,283.359,43.955
45.77,284.763,43.875
45.8,284.482,43.932
45.84,284.552,44.241
45.87,283.885,44.654
45.9,286.272,44.47
45.93,286.868,43.795
45.97,286.517,44.436
46.0,287.746,44.115
46.03,286.938,44.035
46.06,287.465,43.657
46.1,285.359,43.119
46.13,283.604,43.142
46.16,284.131,43.107
46.19,283.148,43.371
46.23,284.201,43.05
46.26,281.674,42.786
46.29,280.341,42.867
46.33,280.025,42.282
46.36,278.445,42.225
46.39,277.954,42.03
46.42,275.954,42.248
46.46,275.954,42.202
46.49,274.76,41.985
46.52,273.392,41.744
46.55,271.777,41.24
46.59,270.479,40.644
46.62,268.654,40.163
46.65,266.022,40.094
46.68,264.056,40.312
46.72,263.565,40.209
46.75,262.302,40.278
46.78,262.091,40.175
46.81,261.284,39.762
46.85,260.547,39.189
46.88,257.915,39.029
46.91,256.441,38.811
46.94,253.423,38.777
46.98,253.598,38.502
47.01,251.141,38.262
47.04,248.72,38.685
47.07,250.861,37.391
47.11,247.948,36.635
47.14,244.824,36.967
47.17,244.052,36.291
47.2,240.999,35.627
47.24,237.384,36.074
47.27,236.787,36.2
47.3,236.191,35.993
47.33,234.892,36.486
47.37,235.173,36.119
47.4,233.243,35.02
47.43,230.47,34.699
47.46,229.102,34.47
47.5,228.4,33.759
47.53,225.136,33.542
47.56,222.925,33.691
47.59,221.065,33.003
47.63,217.871,32.797
47.66,216.853,32.648
47.69,216.046,32.156
47.73,213.519,31.869
47.76,211.8,31.652
47.79,209.834,31.262
47.82,208.922,30.919
47.86,207.623,29.888
47.89,201.341,29.979
47.92,198.814,29.876
47.95,198.849,29.051
47.99,197.516,28.879
48.02,196.007,28.398
48.05,192.989,27.711
48.08,189.619,27.608
48.12,187.022,27.173
48.15,183.478,26.817
48.18,181.161,26.565
48.21,181.372,25.695
48.25,178.845,25.317
48.28,174.879,25.443
48.31,173.3,24.549
48.34,169.756,24.171
48.38,167.509,23.736
48.41,164.351,22.785
48.44,161.508,22.258
48.47,158.736,21.72
48.51,155.753,21.445
48.54,152.454,21.25
48.57,149.225,21.17
48.6,147.716,20.643
48.64,148.347,19.875
48.67,146.172,19.406
48.7,141.679,18.569
48.73,137.924,17.504
48.77,133.572,17.286
48.8,130.449,17.172
48.83,126.799,16.771
48.86,124.869,16.198
48.9,123.009,15.305
48.93,118.341,15.041
48.96,115.428,14.4
48.99,112.445,13.552
49.03,109.357,13.266
49.06,105.742,13.048
49.09,100.793,13.014
49.12,98.442,12.464
49.16,96.793,11.478
49.19,94.196,10.505
49.22,87.984,10.115
49.26,83.807,9.577
49.29,79.385,8.832
49.32,75.385,8.947
49.35,77.034,7.755
49.39,72.472,6.862
49.42,67.383,6.976
49.45,63.136,6.209
49.48,56.819,6.243
49.52,55.801,5.888
49.55,53.485,5.338
49.58,50.923,5.075
49.61,48.993,4.284
49.65,44.536,3.746
49.68,40.5,3.437
49.71,37.447,2.692
49.74,33.13,2.199
49.78,29.901,1.776
49.81,26.006,1.283
49.84,21.619,1.1
49.87,18.53,0.687
49.91,13.477,0.561
49.94,8.984,0.63
49.97,5.756,0.424
50.0,2.878,0.355
50.04,0.14,0.08
50.07,-3.72,-0.149
50.1,-7.826,-0.298
50.13,-12.81,-0.183
50.17,-15.582,-0.47
50.2,-18.355,-1.054
50.23,-22.321,-1.054
50.26,-24.286,-1.546
50.3,-26.953,-2.486
50.33,-30.603,-3.024
50.36,-35.341,-3.23
50.39,-39.272,-3.586
50.43,-43.237,-4.055
50.46,-45.729,-4.261
50.49,-47.659,-4.628
50.52,-50.186,-5.166
50.56,-53.906,-5.751
50.59,-56.328,-6.358
50.62,-59.662,-7.183
50.65,-64.645,-7.286
50.69,-65.172,-8.523
50.72,-70.155,-8.993
50.75,-74.016,-8.924
50.79,-75.455,-10.195
50.82,-79.175,-10.768
50.85,-83.632,-11.158
50.88,-89.458,-11.765
50.92,-93.529,-11.937
50.95,-95.284,-12.498
50.98,-98.512,-12.704
51.01,-101.109,-13.22
51.05,-105.672,-13.518
51.08,-106.374,-14.445
51.11,-109.322,-15.339
51.14,-113.498,-15.499
51.18,-117.393,-16.427
51.21,-120.306,-16.989
51.24,-122.166,-17.516
51.27,-124.763,-18.077
51.31,-129.887,-18.352
51.34,-134.134,-18.695
51.37,-135.924,-19.474
51.4,-139.258,-19.704
51.44,-142.206,-20.093
51.47,-144.803,-20.185
51.5,-145.645,-20.059
51.53,-145.961,-20.792
51.57,-148.277,-21.685
51.6,-152.734,-21.662
51.63,-153.963,-22.51
51.66,-155.963,-23.713
51.7,-160.104,-24.286
51.73,-164.456,-24.733
51.76,-166.878,-25.592
51.79,-170.808,-25.981
51.83,-173.721,-26.245
51.86,-175.581,-27.092
51.89,-179.547,-27.665
51.92,-183.759,-27.78
51.96,-185.548,-28.501
51.99,-189.409,-28.891
52.02,-193.445,-28.364
52.05,-194.077,-28.456
52.09,-193.69,-29.269
52.12,-196.077,-29.292
52.15,-197.656,-29.635
52.19,-201.06,-30.323
52.22,-203.447,-30.518
52.25,-203.622,-31.136
52.28,-205.588,-31.48
52.32,-206.465,-31.938
52.35,-208.922,-32.488
52.38,-211.835,-32.763
52.41,-213.098,-33.393
52.45,-216.327,-33.943
52.48,-220.398,-33.908
52.51,-221.17,-34.378
52.54,-222.504,-35.02
52.58,-225.487,-34.699
52.61,-226.013,-34.974
52.64,-227.592,-35.741
52.67,-229.242,-36.062
52.71,-231.348,-36.303
52.74,-234.401,-36.497
52.77,-234.892,-36.6
52.8,-235.103,-37.001
52.84,-238.437,-36.956
52.87,-239.7,-37.276
52.9,-241.35,-37.78
52.93,-241.069,-38.124
52.97,-242.859,-38.491
53.0,-246.79,-38.33
53.03,-248.65,-38.239
53.06,-248.088,-38.788
53.1,-248.93,-39.098
53.13,-249.562,-39.224
53.16,-250.439,-40.049
53.19,-253.387,-40.461
53.23,-255.634,-40.667
53.26,-257.423,-41.332
53.29,-260.582,-41.4
53.32,-261.038,-41.286
53.36,-261.459,-41.859
53.39,-263.776,-41.607
53.42,-263.705,-41.973
53.45,-266.548,-42.111
53.49,-267.671,-42.088
53.52,-269.005,-42.638
53.55,-270.128,-42.741
53.58,-271.321,-42.958
53.62,-272.9,-42.683
53.65,-273.146,-43.027
53.68,-274.199,-43.474
53.72,-276.375,-43.417
53.75,-277.533,-43.245
53.78,-277.814,-44.035
53.81,-279.604,-43.909
53.85,-279.533,-43.726
53.88,-280.025,-44.035
53.91,-281.815,-43.405
53.94,-282.201,-42.89
53.98,-281.709,-43.795
54.01,-282.481,-44.333
54.04,-284.271,-43.955
54.07,-284.412,-43.703
54.11,-284.517,-44.585
54.14,-285.71,-44.356
54.17,-284.271,-43.875
54.2,-285.394,-43.439
54.24,-285.184,-43.611
54.27,-285.605,-43.795
54.3,-284.727,-43.531
54.33,-284.306,-43.634
54.37,-284.763,-43.439
54.4,-284.692,-43.016
54.43,-282.867,-42.638
54.46,-281.288,-42.867
54.5,-280.621,-43.176
54.53,-281.85,-43.279
54.56,-283.604,-42.764
54.59,-281.99,-42.741
54.63,-280.762,-42.374
54.66,-277.533,-42.053
54.69,-277.112,-41.79
54.72,-277.042,-41.515
54.76,-275.954,-41.847
54.79,-275.778,-41.801
54.82,-275.813,-41.32
54.85,-274.445,-40.999
54.89,-271.286,-40.908
54.92,-268.584,-40.69
54.95,-269.075,-39.923
54.98,-267.215,-39.9
55.02,-265.565,-40.541
55.05,-264.864,-40.301
55.08,-263.46,-40.266
55.11,-264.091,-40.06
55.15,-261.249,-39.739
55.18,-259.073,-39.464
55.21,-257.704,-38.937
55.25,-255.563,-39.361
55.28,-257.599,-39.27
55.31,-258.09,-38.525
55.34,-255.563,-38.388
55.38,-252.475,-37.883
55.41,-250.089,-37.047
55.44,-247.105,-36.726
55.47,-243.701,-36.612
55.51,-242.438,-36.085
55.54,-239.525,-35.913
55.57,-238.437,-35.81
55.6,-236.893,-35.833
55.64,-235.664,-36.268
55.67,-235.173,-35.959
55.7,-234.225,-35.65
55.73,-233.559,-35.352
55.77,-231.523,-35.146
55.8,-230.716,-34.458
55.83,-228.68,-33.817
55.86,-224.469,-34.012
55.9,-220.854,-34.183
55.93,-219.977,-33.267
55.96,-217.415,-32.786
55.99,-216.257,-32.843
56.03,-216.187,-31.858
56.06,-211.94,-31.606
56.09,-209.203,-31.709
56.12,-208.325,-31.136
56.16,-207.343,-30.735
56.19,-205.658,-30.14
56.22,-202.71,-29.739
56.25,-201.025,-29.189
56.29,-198.814,-28.971
56.32,-198.112,-28.673
56.35,-196.288,-28.295
56.38,-194.357,-28.181
56.42,-192.848,-27.482
56.45,-189.725,-27.001
56.48,-187.408,-26.233
56.51,-183.337,-25.706
56.55,-179.372,-25.431
56.58,-176.81,-25.007
56.61,-174.669,-24.744
56.64,-171.967,-24.469
56.68,-168.317,-23.965
56.71,-164.281,-23.85
56.74,-164.0,-23.003
56.78,-160.666,-22.545
56.81,-157.472,-22.201
56.84,-154.454,-21.662
56.87,-153.12,-21.433
56.91,-151.295,-20.631
56.94,-148.067,-20.311
56.97,-146.277,-19.704
57.0,-143.68,-19.257
57.04,-142.065,-18.592
57.07,-138.1,-18.421
57.1,-136.415,-18.409
57.13,-135.046,-17.607
57.17,-129.922,-16.897
57.2,-124.869,-16.141
57.23,-120.482,-15.66
57.26,-119.359,-14.858
57.3,-115.358,-14.228
57.33,-110.831,-14.01
57.36,-106.654,-13.38
57.39,-104.303,-12.773
57.43,-100.969,-12.212
57.46,-95.74,-12.326
57.49,-93.248,-11.513
57.52,-89.037,-10.631
57.56,-86.966,-10.035
57.59,-83.772,-9.325
57.62,-78.613,-8.981
57.65,-74.016,-8.683
57.69,-72.226,-7.962
57.72,-68.015,-7.721
57.75,-66.19,-7.549
57.78,-63.733,-6.472
57.82,-60.223,-6.083
57.85,-58.609,-5.052
57.88,-51.45,-4.995
57.91,-49.379,-4.582
57.95,-46.957,-3.46
57.98,-42.781,-3.265
58.01,-39.728,-2.83
58.04,-36.71,-1.764
58.08,-31.48,-1.272
58.11,-25.69,-1.466
58.14,-22.356,-1.123
58.18,-19.478,-0.63
58.21,-17.197,-0.79
58.24,-15.863,-0.16
58.27,-11.09,0.619
58.31,-7.37,1.168
58.34,-2.667,1.546
58.37,0.948,1.936
58.4,5.721,2.051
58.44,9.616,2.119
58.47,14.354,1.97
58.5,15.898,1.982
58.53,17.583,2.6
58.57,21.899,2.612
58.6,25.023,2.761
58.63,28.532,3.127
58.66,31.516,3.368
58.7,34.358,3.7
58.73,37.762,4.055
58.76,41.588,4.353
58.79,44.676,4.857
58.83,48.151,5.338
58.86,51.344,5.659
58.89,54.713,6.14
58.92,58.749,6.449
58.96,61.241,7.022
58.99,65.839,7.286
59.02,69.524,7.343
59.05,70.857,8.397
59.09,76.016,8.511
59.12,78.473,8.763
59.15,80.684,9.852
59.18,83.632,10.184
59.22,87.738,10.848
59.25,91.774,11.352
59.28,93.599,12.315
59.31,97.775,12.395
59.35,100.407,13.014
59.38,105.356,13.311
59.41,107.111,13.999
59.44,111.041,14.617
59.48,112.375,15.511
59.51,117.92,16.152
59.54,121.605,16.313
59.57,122.412,17.538
59.61,125.922,17.985
59.64,131.642,18.558
59.67,137.714,18.936
59.71,139.503,19.188
59.74,141.153,19.669
59.77,144.627,20.104
59.8,147.54,20.001
59.84,147.61,20.185
59.87,149.506,20.563
59.9,151.05,20.746
59.93,151.05,21.96
59.97,154.524,22.43
60.0,158.701,23.644
60.03,166.211,24.824
60.06,169.966,24.927
60.1,170.317,25.328
60.13,172.353,25.58
60.16,175.125,25.947
60.19,178.986,26.256
60.23,182.565,26.76
60.26,184.496,27.218
60.29,184.355,28.1
60.32,187.865,28.387
60.36,191.129,28.238
60.39,193.761,28.524
60.42,195.2,28.879
60.45,195.796,29.635
60.49,199.446,30.002
60.52,201.938,30.426
60.55,203.131,31.216
60.58,204.816,31.629
60.62,206.29,31.789
60.65,208.992,32.087
60.68,212.852,32.03
60.71,213.239,32.706
60.75,215.906,33.164
60.78,217.239,33.473
60.81,220.433,33.966
60.84,222.714,34.092
60.88,222.714,34.71
60.91,224.82,34.997
60.94,227.979,34.917
60.97,229.523,35.375
61.01,231.909,35.707
61.04,233.524,35.627
61.07,234.05,36.268
61.1,235.699,36.486
61.14,235.91,36.6
61.17,237.91,36.795
61.2,238.928,37.116
61.24,239.174,37.872
61.27,242.543,38.113
61.3,245.561,38.181
61.33,247.842,38.651
61.37,248.439,39.167
61.4,248.93,39.384
61.43,250.404,39.464
61.46,252.791,40.014
61.5,256.967,40.117
61.53,257.985,40.358
61.56,259.564,40.633
61.59,260.406,40.69
61.63,261.424,40.896
61.66,262.407,40.839
61.69,262.793,40.976
61.72,263.6,41.183
61.76,265.285,41.24
61.79,266.232,41.446
61.82,267.496,42.26
61.85,270.023,42.088
61.89,270.198,42.477
61.92,271.672,42.809
61.95,273.006,42.282
61.98,273.216,42.477
62.02,274.409,42.97
62.05,276.059,42.993
62.08,277.182,43.417
62.11,279.042,43.588
62.15,279.533,43.783
62.18,280.621,43.817
62.21,280.832,43.76
62.24,281.92,43.428
62.28,281.709,43.291
62.31,282.657,43.76
62.34,283.99,43.577
62.37,283.92,43.886
62.41,284.903,43.76
62.44,284.201,43.714
62.47,284.587,43.714
62.5,285.043,43.268
62.54,283.78,43.817
62.57,285.429,44.092
62.6,286.517,43.737
62.64,286.763,43.863
62.67,287.465,43.886
62.7,286.237,43.852
62.73,285.956,43.966
62.77,285.5,43.313
62.8,282.867,42.89
62.83,282.095,43.165
62.86,283.64,43.451
62.9,284.587,43.187
62.93,283.043,43.05
62.96,282.867,42.615
62.99,282.411,42.191
63.03,280.411,41.836
63.06,278.094,41.24
63.09,276.971,40.988
63.12,276.059,41.206
63.16,274.059,41.492
63.19,273.181,41.206
63.22,272.339,40.53
63.25,269.672,40.873
63.29,269.215,40.564
63.32,266.302,39.842
63.35,264.688,40.22
63.38,264.583,40.243
63.42,263.635,40.175
63.45,263.39,39.705
63.48,260.793,39.728
63.51,259.389,39.453
63.55,257.248,39.155
63.58,257.564,38.834
63.61,255.634,38.766
63.64,254.546,39.098
63.68,255.563,38.697
63.71,255.388,37.987
63.74,252.124,37.471
63.77,249.106,36.99
63.81,247.281,36.222
63.84,245.07,35.948
63.87,242.508,35.936
63.9,241.174,35.157
63.94,239.174,34.206
63.97,235.489,34.619
64.0,233.594,34.458
64.03,230.786,34.012
64.07,229.558,34.023
64.1,228.505,34.309
64.13,227.908,34.16
64.17,226.399,34.0
64.2,226.961,33.633
64.23,224.469,33.53
64.26,222.328,33.29
64.3,220.222,32.534
64.33,218.959,32.018
64.36,217.415,31.663
64.39,215.485,31.182
64.43,212.396,30.804
64.46,211.449,30.426
64.49,209.729,29.716
64.52,205.939,29.464
64.56,202.534,29.04
64.59,200.569,28.57
64.62,198.814,28.226
64.65,196.288,28.215
64.69,194.814,27.768
64.72,192.778,27.516
64.75,190.778,27.012
64.78,187.057,26.634
64.82,185.268,26.107
64.85,183.127,25.638
64.88,180.74,25.328
64.91,178.705,24.87
64.95,177.301,24.4
64.98,174.072,23.988
65.01,170.387,23.518
65.04,167.264,22.888
65.08,164.456,22.579
65.11,162.421,21.777
65.14,159.052,21.284
65.17,156.454,21.181
65.21,154.735,20.609
65.24,153.787,19.646
65.27,149.19,19.108
65.3,144.698,18.947
65.34,143.645,18.008
65.37,140.17,17.974
65.4,138.38,17.573
65.43,135.889,16.828
65.47,132.414,16.485
65.5,128.905,15.958
65.53,126.694,15.339
65.56,124.448,14.801
65.6,120.271,14.262
65.63,114.165,14.193
65.66,111.217,13.941
65.7,110.655,13.197
65.73,109.216,12.441
65.76,104.654,12.017
65.79,100.723,11.272
65.83,95.95,10.241
65.86,91.599,9.783
65.89,88.966,8.947
65.92,83.878,8.523
65.96,79.42,8.443
65.99,75.735,8.145
66.02,73.174,7.687
66.05,68.857,7.595
66.09,67.839,7.091
66.12,66.33,5.716
66.15,62.259,5.384
66.18,60.364,4.456
66.22,53.099,4.261
66.25,49.274,4.261
66.28,46.08,3.735
66.31,43.062,3.494
66.35,40.64,2.978
66.38,37.271,2.383
66.41,32.674,1.925
66.44,28.638,1.615
66.48,24.707,1.146
66.51,20.531,0.916
66.54,17.758,0.699
66.57,14.74,0.344
66.61,10.95,-0.149
66.64,5.791,-0.355
66.67,0.491,-0.218
66.7,-3.615,-0.057
66.74,-7.195,-0.046
66.77,-10.248,0.252
66.8,-11.23,0.229
66.83,-10.774,-0.676
66.87,-15.196,-1.26
66.9,-18.811,-1.432
66.93,-22.285,-2.589
66.96,-28.357,-2.784
67.0,-30.217,-3.322
67.03,-34.113,-3.838
67.06,-37.727,-4.055
67.1,-41.693,-4.307
67.13,-43.413,-5.006
67.16,-46.536,-5.648
67.19,-50.151,-5.716
67.23,-52.222,-6.438
67.26,-55.591,-7.171
67.29,-59.065,-7.538
67.32,-61.768,-8.191
67.36,-64.505,-8.924
67.39,-68.716,-9.394
67.42,-72.366,-9.921
67.45,-74.928,-10.825
67.49,-79.666,-11.226
67.52,-82.93,-11.937
67.55,-87.668,-12.716
67.58,-94.055,-12.475
67.62,-96.863,-12.991
67.65,-99.846,-13.311
67.68,-100.899,-13.598
67.71,-102.689,-14.537
67.75,-106.9,-15.133
67.78,-112.234,-15.419
67.81,-114.937,-16.141
67.84,-119.604,-16.519
67.88,-123.184,-16.427
67.91,-122.974,-17.619
67.94,-125.851,-18.031
67.97,-130.449,-18.203
68.01,-134.45,-19.085
68.04,-136.836,-19.474
68.07,-138.135,-19.818
68.1,-139.503,-20.735
68.14,-143.188,-21.17
68.17,-147.4,-20.769
68.2,-149.611,-22.052
68.23,-152.173,-22.888
68.27,-155.156,-22.716
68.3,-158.385,-23.003
68.33,-160.666,-24.102
68.36,-164.877,-24.446
68.4,-166.737,-24.687
68.43,-170.773,-25.282
68.46,-173.827,-25.683
68.49,-174.704,-26.279
68.53,-177.336,-26.543
68.56,-179.828,-27.344
68.59,-185.197,-27.963
68.63,-187.198,-28.272
68.66,-187.9,-28.811
68.69,-190.778,-29.017
68.72,-193.585,-29.143
68.76,-195.621,-29.338
68.79,-196.498,-29.704
68.82,-198.077,-30.094
68.85,-200.008,-30.495
68.89,-202.605,-30.884
68.92,-203.517,-31.4
68.95,-204.71,-32.087
68.98,-208.36,-31.938
69.02,-208.115,-32.534
69.05,-209.554,-33.599
69.08,-212.326,-33.943
69.11,-215.906,-34.126
69.15,-218.608,-34.642
69.18,-221.416,-35.02
69.21,-221.626,-35.18
69.24,-222.82,-35.638
69.28,-226.189,-35.547
69.31,-227.382,-36.039
69.34,-229.663,-36.555
69.37,-230.716,-36.738
69.41,-231.944,-37.242
69.44,-234.682,-37.666
69.47,-237.279,-37.586
69.5,-238.647,-37.586
69.54,-239.981,-37.849
69.57,-241.35,-38.147
69.6,-243.245,-38.204
69.63,-244.754,-38.536
69.67,-247.702,-38.8
69.7,-249.246,-38.811
69.73,-248.474,-39.373
69.76,-249.176,-39.785
69.8,-250.72,-39.945
69.83,-252.159,-40.553
69.86,-255.528,-41.011
69.89,-256.265,-41.412
69.93,-257.353,-41.95
69.96,-260.336,-41.698
69.99,-261.038,-41.962
70.02,-263.495,-41.881
70.06,-263.249,-41.733
70.09,-263.811,-42.523
70.12,-266.302,-42.305
70.16,-267.671,-42.603
70.19,-270.338,-42.603
70.22,-270.514,-42.912
70.25,-271.883,-43.13
70.29,-272.83,-42.741
70.32,-272.795,-43.13
70.35,-274.164,-43.153
70.38,-274.515,-43.348
70.42,-275.533,-43.909
70.45,-277.252,-43.829
70.48,-277.989,-43.749
70.51,-278.481,-44.081
70.55,-280.2,-43.737
70.58,-279.814,-43.52
70.61,-280.06,-43.978
70.64,-281.99,-43.726
70.68,-282.025,-43.978
70.71,-283.604,-44.15
70.74,-284.447,-43.783
70.77,-285.359,-43.875
70.81,-285.008,-43.646
70.84,-283.289,-43.898
70.87,-282.797,-44.069
70.9,-284.306,-44.138
70.94,-286.131,-43.348
70.97,-284.447,-43.611
71.0,-283.78,-44.115
71.03,-283.955,-43.909
71.07,-285.605,-43.256
71.1,-284.271,-42.626
71.13,-282.516,-43.027
71.16,-283.078,-43.027
71.2,-282.903,-43.061
71.23,-282.306,-43.084
71.26,-281.604,-42.809
71.29,-280.06,-42.386
71.33,-278.621,-42.202
71.36,-277.849,-41.836
71.39,-276.971,-41.767
71.42,-277.252,-41.721
71.46,-275.848,-41.824
71.49,-274.48,-41.881
71.52,-274.023,-41.377
71.55,-272.339,-40.793
71.59,-269.601,-40.656
71.62,-268.408,-40.243
71.65,-266.548,-40.152
71.69,-266.689,-40.278
71.72,-266.267,-40.094
71.75,-264.934,-40.094
71.78,-264.478,-39.625
71.82,-260.652,-39.361
71.85,-258.406,-39.189
71.88,-257.774,-38.628
71.91,-256.757,-38.594
71.95,-256.055,-38.811
71.98,-255.002,-38.617
72.01,-253.633,-38.399
72.04,-252.721,-37.883
72.08,-249.773,-37.231
72.11,-245.667,-37.024
72.14,-243.771,-36.44
72.17,-241.946,-36.326
72.21,-241.525,-36.463
72.24,-240.894,-36.234
72.27,-239.279,-35.925
72.3,-237.173,-35.73
72.34,-236.401,-35.088
72.37,-234.998,-34.275
72.4,-232.26,-34.115
72.43,-229.207,-34.115
72.47,-227.522,-33.874
72.5,-226.399,-33.393
72.53,-223.451,-33.794
72.56,-224.188,-33.393
72.6,-222.363,-32.305
72.63,-218.468,-32.202
72.66,-216.608,-32.007
72.69,-215.765,-31.354
72.73,-213.554,-31.216
72.76,-212.221,-31.045
72.79,-209.904,-30.77
72.82,-208.29,-30.46
72.86,-206.009,-29.83
72.89,-203.447,-29.361
72.92,-201.025,-28.948
72.95,-199.025,-28.582
72.99,-196.568,-28.387
73.02,-197.025,-27.757
73.05,-195.691,-26.989
73.09,-192.076,-26.749
73.12,-188.777,-25.89
73.15,-186.005,-25.282
73.18,-183.197,-24.847
73.22,-180.144,-24.435
73.25,-177.161,-24.137
73.28,-175.581,-23.976
73.31,-173.335,-23.381
73.35,-169.299,-23.232
73.38,-167.334,-22.43
73.41,-163.895,-22.189
73.44,-162.28,-21.491
73.48,-157.332,-21.158
73.51,-155.577,-20.952
73.54,-152.278,-20.746
73.57,-150.664,-20.368
73.61,-148.769,-19.257
73.64,-143.504,-19.612
73.67,-140.977,-18.936
73.7,-140.276,-18.272
73.74,-140.135,-17.997
73.77,-138.486,-17.481
73.8,-136.099,-16.152
73.83,-128.133,-15.488
73.87,-122.552,-15.259
73.9,-119.955,-14.468
73.93,-117.885,-13.93
73.96,-115.007,-13.414
74.0,-111.392,-12.899
74.03,-107.356,-12.452
74.06,-104.478,-12.086
74.09,-101.671,-11.444
74.13,-98.442,-10.883
74.16,-95.705,-10.047
74.19,-91.212,-9.359
74.22,-86.018,-9.119
74.26,-82.509,-8.615
74.29,-78.613,-7.95
74.32,-74.998,-7.698
74.35,-73.349,-7.091
74.39,-71.208,-6.255
74.42,-66.927,-5.774
74.45,-61.206,-5.728
74.48,-58.223,-5.27
74.52,-55.415,-4.594
74.55,-51.134,-4.639
74.58,-48.607,-4.239
74.62,-45.905,-3.494
74.65,-44.571,-2.715
74.68,-41.167,-2.188
74.71,-37.447,-1.466
74.75,-31.165,-1.1
74.78,-28.217,-0.63
74.81,-23.654,-0.195
74.84,-21.057,-0.069
74.88,-18.671,0.55
74.91,-14.249,0.458
74.94,-12.95,1.569
74.97,-7.932,2.463
75.01,-2.0,2.314
75.04,3.369,2.177
75.07,8.142,2.234
75.1,12.354,1.982
75.14,14.74,1.34
75.17,13.898,1.031
75.2,12.88,1.764
75.23,16.039,2.199
75.27,20.074,2.6
75.3,25.128,3.093
75.33,28.954,3.574
75.36,32.919,3.838
75.4,35.657,4.399
75.43,40.57,5.063
75.46,45.694,5.315
75.49,49.695,5.945
75.53,56.995,6.507
75.56,63.452,7.675
75.59,70.015,8.042
75.62,73.805,7.389
75.66,76.718,7.32
75.69,77.946,7.458
75.72,78.087,7.4
75.75,77.49,7.274
75.79,78.368,8.111
75.82,82.053,8.546
75.85,82.088,9.611
75.88,86.229,10.287
75.92,90.721,10.493
75.95,92.336,11.925
75.98,96.863,12.269
76.01,100.829,12.395
76.05,103.11,13.838
76.08,106.374,14.869
76.11,110.164,15.637
76.15,116.341,16.152
76.18,120.587,16.633
76.21,124.553,17.115
76.24,128.098,16.92
76.28,129.572,17.252
76.31,130.975,18.042
76.34,133.748,18.879
76.37,137.152,19.52
76.41,139.714,20.379
76.44,144.241,20.838
76.47,148.734,21.147
76.5,151.787,21.147
76.54,152.454,21.559
76.57,154.314,22.247
76.6,156.77,23.14
76.63,161.543,23.553
76.67,164.737,23.816
76.7,168.633,23.942
76.73,169.159,24.446
76.76,170.773,25.042
76.8,173.09,25.156
76.83,175.336,26.027
76.86,179.301,26.943
76.89,183.583,27.482
76.93,187.022,27.826
76.96,189.233,28.547
76.99,192.989,28.753
77.02,194.814,28.799
77.06,196.779,29.097
77.09,199.06,29.154
77.12,199.973,29.693
77.15,202.57,30.14
77.19,205.096,30.174
77.22,206.044,30.586
77.25,206.816,31.285
77.28,208.536,31.571
77.32,211.624,31.491
77.35,213.449,31.95
77.38,216.502,32.522
77.41,218.748,32.58
77.45,219.099,33.049
77.48,220.995,33.439
77.51,222.504,33.92
77.55,222.749,34.561
77.58,224.504,34.974
77.61,227.663,35.1
77.64,230.54,35.753
77.68,233.243,36.28
77.71,233.453,36.715
77.74,234.576,37.082
77.77,236.963,37.047
77.81,238.858,36.921
77.84,240.367,36.841
77.87,239.876,37.517
77.9,242.683,38.136
77.94,246.86,37.987
77.97,246.825,38.388
78.0,242.017,36.772
78.03,228.786,34.149
78.07,221.065,34.069
78.1,223.662,35.409
78.13,227.312,36.944
78.16,230.786,38.296
78.2,234.857,39.865
78.23,239.735,41.881
78.26,247.07,43.245
78.29,253.423,43.989
78.33,260.512,44.127
78.36,263.635,43.806
78.39,264.618,43.989
78.42,267.39,43.554
78.46,269.461,43.176
78.49,271.04,43.371
78.52,272.795,43.325
78.55,274.023,42.775
78.59,273.076,43.096
78.62,274.374,43.084
78.65,274.901,42.706
78.68,276.024,42.798
78.72,276.761,42.764
78.75,277.147,43.588
78.78,279.779,43.096
78.81,279.182,43.245
78.85,280.06,43.623
78.88,279.779,43.439
78.91,280.305,43.199
78.94,279.568,43.038
78.98,280.095,43.474
79.01,281.464,43.084
79.04,280.727,43.348
79.08,280.832,43.508
79.11,280.516,43.371
79.14,279.779,43.371
79.17,279.709,43.096
79.21,279.358,42.912
79.24,278.972,43.451
79.27,280.376,43.737
79.3,280.727,43.577
79.34,280.095,43.955
79.37,280.937,44.058
79.4,281.007,43.978
79.43,281.113,44.241
79.47,282.13,44.207
79.5,283.148,44.115
79.53,283.955,44.115
79.56,284.447,44.287
79.6,285.78,43.703
79.63,284.587,43.119
79.66,281.183,43.084
79.69,280.341,42.534
79.73,279.077,42.088
79.76,278.516,42.363
79.79,279.393,41.847
79.82,275.603,41.71
79.86,274.69,41.538
79.89,274.234,40.358
79.92,269.286,40.438
79.95,267.847,40.553
79.99,267.812,39.923
80.02,266.267,40.163
80.05,265.004,40.759
80.08,265.285,40.335
80.12,262.653,40.186
80.15,261.284,40.404
80.18,261.249,39.59
80.21,259.283,39.201
80.25,258.652,39.201
80.28,256.651,39.041
80.31,254.51,38.8
80.34,253.036,38.559
80.38,252.159,38.353
80.41,252.124,37.609
80.44,248.965,37.139
80.47,245.175,37.471
80.51,245.0,37.185
80.54,244.122,36.681
80.57,242.403,36.875
80.61,241.315,36.784
80.64,239.63,36.303
80.67,237.314,35.73
80.7,234.962,35.283
80.74,231.979,35.26
80.77,230.821,35.191
80.8,230.084,34.756
80.83,229.382,34.39
80.87,227.557,33.954
80.9,224.434,33.691
80.93,221.837,33.026
80.96,219.135,32.545
81.0,217.625,32.213
81.03,215.941,32.018
81.06,214.713,31.56
81.09,212.08,31.342
81.13,211.133,30.815
81.16,206.641,30.838
81.19,205.693,30.369
81.22,202.745,29.269
81.26,199.236,30.071
81.29,201.236,29.131
81.32,196.674,28.857
81.35,194.041,29.051
81.39,194.673,28.066
81.42,192.708,28.078
81.45,191.129,27.425
81.48,186.812,26.52
81.52,183.162,26.588
81.55,182.565,25.718
81.58,179.126,25.672
81.61,177.757,25.088
81.65,175.195,24.332
81.68,173.23,23.541
81.71,169.791,22.911
81.74,165.685,22.419
81.78,159.367,21.582
81.81,155.156,21.388
81.84,155.051,21.055
81.87,153.156,20.849
81.91,149.26,20.838
81.94,147.681,19.956
81.97,143.048,20.23
82.01,143.188,19.646
82.04,140.03,19.028
82.07,138.205,19.051
82.1,135.994,18.214
82.14,133.923,17.928
82.17,132.66,17.0
82.2,129.256,16.416
82.23,125.15,15.751
82.27,122.447,14.846
82.3,119.429,13.735
82.33,113.673,13.77
82.36,111.252,13.334
82.4,108.549,12.475
82.43,105.602,11.96
82.46,101.46,11.559
82.49,97.249,10.883
82.53,93.108,10.092
82.56,90.581,9.268
82.59,86.159,8.741
82.62,81.596,8.649
82.66,77.911,8.145
82.69,75.244,7.606
82.72,71.629,7.08
82.75,65.102,7.526
82.79,64.33,6.701
82.82,61.206,5.888
82.85,58.609,5.693
82.88,55.556,5.247
82.92,52.608,4.502
82.95,47.624,4.193
82.98,43.904,4.032
83.01,41.763,3.139
83.05,38.429,2.36
83.08,34.007,2.177
83.11,30.533,1.65
83.14,25.725,1.134
83.18,21.478,0.962
83.21,18.32,0.515
83.24,12.704,0.389
83.27,8.177,0.745
83.31,5.264,0.401
83.34,1.614,0.034
83.37,-1.825,0.0
83.4,-5.44,0.011
83.44,-9.195,-0.218
83.47,-13.582,-0.149
83.5,-15.337,-0.504
83.54,-17.793,-1.111
83.57,-19.057,-1.741
83.6,-22.18,-2.417
83.63,-27.48,-2.486
83.67,-29.901,-3.104
83.7,-33.586,-3.689
83.73,-37.762,-3.127
83.76,-37.517,-3.861
83.8,-39.412,-4.96
83.83,-43.343,-5.418
83.86,-48.326,-5.613
83.89,-50.291,-6.931
83.93,-57.767,-7.022
83.96,-61.522,-7.137
83.99,-64.294,-8.076
84.02,-64.61,-8.981
84.06,-70.015,-9.6
84.09,-76.718,-9.462
84.12,-79.35,-10.367
84.15,-82.579,-10.608
84.19,-84.264,-11.158
84.22,-87.914,-12.074
84.25,-93.178,-12.154
84.28,-95.213,-12.83
84.32,-98.372,-13.483
84.35,-102.373,-13.518
84.38,-104.97,-14.159
84.41,-107.216,-14.949
84.45,-110.199,-15.408
84.48,-114.586,-15.98
84.51,-119.604,-16.21
84.54,-121.078,-16.771
84.58,-122.974,-17.183
84.61,-126.027,-17.642
84.64,-129.08,-18.638
84.67,-132.8,-18.993
84.71,-136.275,-19.177
84.74,-138.416,-20.093
84.77,-143.434,-20.127
84.8,-144.312,-20.379
84.84,-144.347,-21.17
84.87,-147.575,-21.365
84.9,-152.419,-22.178
84.93,-156.77,-22.613
84.97,-158.35,-23.06
85.0,-160.245,-23.805
85.03,-163.649,-24.469
85.07,-167.123,-24.859
85.1,-169.685,-25.34
85.13,-172.984,-25.592
85.16,-175.195,-25.764
85.2,-177.617,-26.176
85.23,-179.863,-26.852
85.26,-183.372,-27.39
85.29,-185.934,-27.642
85.33,-187.794,-28.169
85.36,-190.672,-28.226
85.39,-191.83,-28.513
85.42,-195.129,-28.616
85.46,-196.814,-28.776
85.49,-197.867,-29.555
85.52,-200.183,-30.014
85.55,-201.762,-30.357
85.59,-202.991,-30.941
85.62,-204.991,-31.331
85.65,-205.798,-31.801
85.68,-208.676,-32.224
85.72,-211.098,-32.648
85.75,-214.081,-33.255
85.78,-214.958,-33.886
85.81,-217.204,-34.584
85.85,-221.205,-34.286
85.88,-222.714,-34.63
85.91,-224.644,-35.008
85.94,-225.557,-35.065
85.98,-227.031,-35.604
86.01,-230.26,-36.2
86.04,-233.594,-36.326
86.07,-235.875,-36.452
86.11,-237.595,-36.543
86.14,-236.858,-36.841
86.17,-237.384,-37.001
86.2,-239.104,-37.597
86.24,-243.561,-37.7
86.27,-244.157,-37.998
86.3,-245.351,-38.582
86.33,-246.404,-38.754
86.37,-247.386,-39.144
86.4,-248.895,-39.247
86.43,-250.018,-39.499
86.46,-252.194,-39.625
86.5,-253.879,-39.945
86.53,-255.177,-40.427
86.56,-256.265,-40.976
86.6,-259.319,-41.045
86.63,-261.389,-40.919
86.66,-261.6,-41.148
86.69,-262.582,-41.183
86.73,-263.705,-40.805
86.76,-263.109,-41.629
86.79,-266.232,-41.755
86.82,-267.18,-41.458
86.86,-268.057,-42.683
86.89,-269.777,-42.821
86.92,-270.479,-42.89
86.95,-271.286,-42.981
86.99,-271.812,-43.439
87.02,-274.023,-43.107
87.05,-274.199,-43.531
87.08,-275.989,-44.207
87.12,-277.708,-43.955
87.15,-277.814,-44.333
87.18,-279.639,-44.367
87.21,-281.323,-43.554
87.25,-280.727,-43.554
87.28,-279.99,-44.127
87.31,-281.744,-44.173
87.34,-283.289,-43.634
87.38,-283.534,-43.6
87.41,-283.253,-43.852
87.44,-284.096,-44.047
87.47,-285.429,-43.909
87.51,-285.149,-43.302
87.54,-282.587,-43.165
87.57,-284.201,-43.669
87.6,-286.693,-43.428
87.64,-285.289,-43.531
87.67,-283.043,-43.588
87.7,-283.043,-43.405
87.73,-284.166,-43.004
87.77,-283.078,-42.798
87.8,-282.236,-42.603
87.83,-280.727,-42.832
87.86,-281.148,-43.05
87.9,-280.305,-43.153
87.93,-279.253,-43.439
87.96,-278.867,-43.291
88.0,-279.182,-42.832
88.03,-278.902,-42.397
88.06,-277.673,-42.328
88.09,-276.164,-42.431
88.13,-276.936,-42.076
88.16,-277.217,-41.423
88.19,-274.936,-41.274
88.22,-271.672,-41.148
88.26,-269.637,-40.656
88.29,-267.741,-40.45
88.32,-266.583,-40.805
88.35,-266.583,-40.759
88.39,-266.022,-40.541
88.42,-265.53,-40.266
88.45,-263.67,-40.198
88.48,-262.407,-39.648
88.52,-258.968,-39.35
88.55,-258.757,-39.052
88.58,-257.564,-38.674
88.61,-255.774,-38.972
88.65,-255.739,-38.628
88.68,-255.072,-38.204
88.71,-252.791,-37.918
88.74,-249.106,-37.792
88.78,-247.632,-36.967
88.81,-245.737,-36.669
88.84,-245.877,-36.268
88.87,-242.157,-36.096
88.91,-239.349,-36.062
88.94,-238.542,-35.73
88.97,-238.121,-35.157
89.0,-233.769,-35.123
89.04,-230.786,-35.111
89.07,-229.137,-35.02
89.1,-229.803,-34.825
89.13,-228.435,-34.768
89.17,-228.505,-34.332
89.2,-225.101,-34.126
89.23,-224.294,-33.863
89.26,-221.977,-33.003
89.3,-219.521,-32.694
89.33,-217.52,-32.179
89.36,-214.362,-31.961
89.39,-212.396,-31.663
89.43,-212.361,-31.022
89.46,-209.764,-30.689
89.49,-206.43,-30.747
89.53,-205.167,-29.773
89.56,-203.236,-29.143
89.59,-200.288,-29.074
89.62,-198.323,-28.799
89.66,-196.919,-28.375
89.69,-196.638,-28.112
89.72,-195.235,-27.356
89.75,-191.444,-27.001
89.79,-188.426,-26.176
89.82,-183.653,-26.119
89.85,-182.355,-25.638
89.88,-180.916,-24.836
89.92,-176.88,-25.019
89.95,-174.142,-25.007
89.98,-172.704,-24.274
90.01,-169.334,-24.228
90.05,-167.825,-23.53
90.08,-164.246,-23.026
90.11,-161.859,-22.602
90.14,-157.613,-22.121
90.18,-155.753,-22.235
90.21,-156.419,-21.181
90.24,-151.366,-20.494
90.27,-147.61,-20.024
90.31,-143.785,-19.612
90.34,-141.223,-19.589
90.37,-138.451,-19.051
90.4,-135.573,-18.443
90.44,-133.607,-17.768
90.47,-129.922,-17.573
90.5,-128.835,-17.172
90.53,-127.957,-16.324
90.57,-123.605,-16.198
90.6,-121.394,-15.35
90.63,-116.832,-14.48
90.66,-113.322,-14.045
90.7,-108.725,-13.632
90.73,-105.672,-13.105
90.76,-102.162,-12.257
90.79,-98.828,-11.708
90.83,-94.547,-10.929
90.86,-90.826,-10.104
90.89,-85.246,-9.336
90.92,-79.491,-9.508
90.96,-78.754,-8.489
90.99,-73.384,-8.202
91.02,-70.331,-8.385
91.06,-69.032,-7.32
91.09,-65.172,-6.575
91.12,-61.171,-6.472
91.15,-58.96,-5.693
91.19,-54.608,-5.144
91.22,-51.028,-5.144
91.25,-48.045,-4.777
91.28,-45.413,-4.296
91.32,-44.185,-3.448
91.35,-40.149,-2.898
91.38,-35.376,-2.497
91.41,-30.006,-2.268
91.45,-28.954,-1.352
91.48,-21.935,-1.294
91.51,-19.057,-1.443
91.54,-17.126,-0.103
91.58,-13.196,-0.046
91.61,-10.774,0.378
91.64,-5.054,0.149
91.67,-5.159,0.813
91.71,-2.141,1.34
91.74,0.983,1.627
91.77,4.317,1.821
91.8,7.159,1.879
91.84,11.652,2.085
91.87,15.337,2.669
91.9,20.074,3.196
91.93,25.093,2.967
91.97,28.848,3.208
92.0,32.814,3.746
92.03,36.85,4.009
92.06,40.605,4.181
92.1,44.641,4.674
92.13,48.572,5.144
92.16,51.976,5.384
92.19,55.486,5.418
92.23,58.539,5.476
92.26,60.048,5.865
92.29,61.732,6.266
92.32,64.365,6.438
92.36,67.278,6.999
92.39,69.769,7.985
92.42,73.77,8.615
92.46,77.35,8.947
92.49,80.298,9.932
92.52,87.106,9.898
92.55,91.985,9.932
92.59,94.897,10.299
92.62,93.704,11.238
92.65,95.74,12.269
92.68,100.443,12.819
92.72,105.11,13.529
92.75,108.585,14.113
92.78,112.164,14.663
92.81,117.358,14.789
92.85,120.166,15.224
92.88,122.552,15.912
92.91,124.448,16.198
92.94,125.816,17.309
92.98,130.835,17.516
93.01,133.151,18.398
93.04,137.328,19.039
93.07,138.696,19.303
93.11,142.416,20.059
93.14,146.347,19.91
93.17,147.681,20.735
93.2,149.365,21.422
93.24,152.734,21.399
93.27,154.173,22.212
93.3,159.122,22.797
93.33,163.684,22.682
93.37,163.684,23.541
93.4,165.018,24.377
93.43,169.229,24.458
93.46,170.984,25.225
93.5,174.072,26.05
93.53,178.529,25.855
93.56,179.582,26.669
93.59,183.478,27.516
93.63,188.882,27.207
93.66,190.532,27.906
93.69,191.795,29.464
93.72,195.866,29.532
93.76,197.762,29.395
93.79,200.043,30.151
93.82,203.833,30.094
93.85,205.342,29.991
93.89,207.167,30.059
93.92,208.15,30.277
93.95,208.817,30.38
93.99,208.711,30.861
94.02,210.992,31.079
94.05,211.905,31.629
94.08,215.274,32.087
94.12,216.537,32.499
94.15,217.31,33.324
94.18,218.678,33.851
94.21,221.135,34.183
94.25,224.504,34.264
94.28,226.083,34.687
94.31,226.996,35.203
94.34,228.68,35.386
94.38,229.663,35.673
94.41,231.488,36.726
94.44,237.138,36.841
94.47,238.718,36.589
94.51,237.314,37.586
94.54,239.7,37.78
94.57,240.999,37.494
94.6,242.438,37.471
94.64,243.456,37.517
94.67,243.842,37.906
94.7,245.316,38.216
94.73,247.035,38.33
94.77,247.562,39.155
94.8,251.036,39.705
94.83,253.703,39.9
94.86,256.265,40.621
94.9,260.617,40.736
94.93,261.705,40.896
94.96,262.653,41.274
94.99,264.127,41.24
95.03,264.793,41.469
95.06,267.039,41.492
95.09,267.812,41.584
95.12,269.075,42.386
95.16,271.426,42.202
95.19,271.883,42.26
95.22,273.041,42.408
95.25,274.339,42.122
95.29,275.357,41.859
95.32,275.743,42.007
95.35,276.129,42.34
95.38,276.691,42.672
95.42,277.849,42.947
95.45,279.428,42.729
95.48,279.323,42.924
95.52,279.674,43.405
95.55,280.586,43.291
95.58,280.762,43.13
95.61,280.586,43.245
95.65,281.779,43.336
95.68,282.446,43.313
95.71,282.025,43.611
95.74,282.903,43.76
95.78,283.429,43.875
95.81,283.604,44.505
95.84,285.043,44.069
95.87,285.114,43.187
95.91,283.99,44.23
95.94,287.079,44.218
95.97,286.693,43.565
96.0,286.763,43.623
96.04,286.272,43.302
96.07,285.254,43.554
96.1,286.061,43.462
96.13,285.359,43.165
96.17,284.587,43.428
96.2,285.394,43.405
96.23,284.131,43.313
96.26,283.183,43.153
96.3,282.306,42.58
96.33,280.692,42.225
96.36,278.165,42.134
96.39,276.059,42.26
96.43,276.41,42.099
96.46,276.726,41.927
96.49,276.34,41.572
96.52,273.216,41.332
96.56,269.952,41.24
96.59,267.285,41.183
96.62,267.39,40.828
96.65,266.899,40.576
96.69,266.969,40.667
96.72,265.952,40.312
96.75,262.056,40.656
96.78,261.775,40.53
96.82,262.091,39.808
96.85,261.073,39.453
96.88,258.582,39.384
96.92,256.686,39.052
96.95,254.826,38.754
96.98,253.423,38.72
97.01,252.826,38.525
97.05,251.843,37.78
97.08,247.772,37.597
97.11,246.228,37.322
97.14,244.193,36.726
97.18,242.052,36.749
97.21,240.823,36.578
97.24,238.963,36.452
97.27,237.56,36.761
97.31,236.928,36.83
97.34,236.261,36.28
97.37,234.927,35.764
97.4,232.787,35.65
97.44,231.207,35.226
97.47,229.523,34.458
97.5,227.171,34.309
97.53,226.961,34.0
97.57,224.294,33.588
97.6,221.03,33.496
97.63,219.485,33.003
97.66,218.573,32.442
97.7,217.134,32.202
97.73,215.66,31.846
97.76,213.098,31.388
97.79,211.378,30.758
97.83,208.395,30.254
97.86,205.658,29.933
97.89,203.307,29.315
97.92,200.253,29.04
97.96,197.446,28.994
97.99,195.41,28.937
98.02,193.34,28.868
98.05,192.918,28.49
98.09,191.936,27.585
98.12,188.672,27.15
98.15,184.425,26.497
98.18,179.442,26.52
98.22,179.933,25.569
98.25,176.599,25.5
98.28,176.003,25.179
98.31,173.511,24.102
98.35,169.51,24.011
98.38,166.492,23.381
98.41,164.211,23.003
98.45,161.403,22.487
98.48,158.595,22.178
98.51,156.104,21.72
98.54,151.506,22.052
98.58,150.874,21.204
98.61,147.821,20.322
98.64,146.487,20.036
98.67,144.031,19.039
98.71,139.679,18.604
98.74,136.38,18.466
98.77,134.169,18.237
98.8,133.116,17.79
98.84,130.028,17.264
98.87,126.764,16.588
98.9,122.482,16.106
98.93,118.236,16.003
98.97,117.253,15.053
99.0,114.551,14.125
99.03,109.848,14.056
99.06,105.847,13.758
99.1,102.934,12.727
99.13,98.723,12.189
99.16,95.564,11.96
99.19,93.283,11.089
99.23,90.44,9.978
99.26,85.738,9.336
99.29,80.403,9.348
99.32,76.402,8.89
99.36,72.331,8.5
99.39,69.699,8.065
99.42,66.611,7.755
99.45,63.733,7.354
99.49,61.768,6.598
99.52,59.311,5.705
99.55,55.064,5.418
99.58,51.941,4.834
99.62,47.343,4.319
99.65,44.466,3.792
99.68,40.886,3.127
99.71,37.166,2.589
99.75,32.603,2.085
99.78,27.725,2.028
99.81,26.076,1.283
99.84,20.496,1.02
99.88,15.091,1.535
99.91,11.897,1.088
99.94,8.879,0.687
99.98,6.563,0.321
100.01,2.386,0.458
100.04,-0.316,0.137
100.07,-4.562,-0.16
100.11,-8.142,-0.206
100.14,-12.669,0.08
100.17,-14.459,-0.263
100.2,-17.337,-0.997
100.24,-20.32,-1.26
100.27,-22.04,-1.764
100.3,-24.777,-2.429
100.33,-29.585,-2.841
100.37,-33.902,-3.219
100.4,-38.675,-3.425
100.43,-41.833,-3.425
100.46,-43.729,-4.273
100.5,-47.94,-4.72
100.53,-49.835,-5.43
100.56,-53.239,-6.358
100.59,-59.1,-6.392
100.63,-61.066,-7.286
100.66,-66.786,-7.744
100.69,-70.647,-7.446
100.72,-70.822,-8.867
100.76,-75.279,-9.176
100.79,-79.21,-9.29
100.82,-81.561,-10.425
100.85,-85.948,-10.871
100.89,-89.177,-10.986
100.92,-90.756,-12.292
100.95,-95.81,-12.326
100.98,-97.845,-12.807
101.02,-100.407,-13.598
101.05,-103.741,-13.884
101.08,-107.426,-14.365
101.11,-108.62,-15.534
101.15,-114.2,-15.866
101.18,-119.534,-15.809
101.21,-121.605,-16.668
101.24,-124.062,-16.92
101.28,-126.027,-17.252
101.31,-128.343,-18.615
101.34,-134.38,-18.638
101.37,-135.854,-19.497
101.41,-141.013,-20.047
101.44,-143.785,-19.726
101.47,-145.189,-20.689
101.51,-148.663,-20.15
101.54,-148.207,-21.181
101.57,-151.927,-21.823
101.6,-153.822,-22.029
101.64,-156.068,-23.289
101.67,-160.175,-23.896
101.7,-163.649,-24.217
101.73,-164.948,-25.111
101.77,-169.194,-25.5
101.8,-173.405,-25.179
101.83,-174.809,-25.764
101.86,-177.477,-26.268
101.9,-180.916,-26.394
101.93,-183.583,-26.817
101.96,-186.496,-27.287
101.99,-186.707,-27.917
102.03,-188.426,-28.605
102.06,-192.427,-28.593
102.09,-195.34,-28.845
102.12,-196.884,-29.372
102.16,-198.358,-29.91
102.19,-200.815,-29.945
102.22,-201.973,-30.598
102.25,-204.5,-31.045
102.29,-205.167,-31.4
102.32,-207.062,-31.663
102.35,-207.904,-32.293
102.38,-211.659,-32.843
102.42,-215.485,-32.728
102.45,-214.958,-33.611
102.48,-216.608,-34.504
102.51,-220.468,-34.252
102.55,-221.591,-34.813
102.58,-223.346,-35.512
102.61,-225.031,-35.077
102.64,-225.908,-35.226
102.68,-228.575,-35.879
102.71,-231.664,-35.982
102.74,-233.804,-36.394
102.77,-235.454,-36.933
102.81,-235.313,-37.208
102.84,-237.349,-37.345
102.87,-240.683,-37.082
102.91,-241.666,-37.654
102.94,-244.508,-37.723
102.97,-244.824,-37.826
103.0,-245.28,-38.685
103.04,-246.684,-39.235
103.07,-249.106,-39.155
103.1,-251.247,-39.121
103.13,-252.756,-39.567
103.17,-254.089,-39.968
103.2,-255.177,-40.243
103.23,-255.844,-40.873
103.26,-259.108,-41.091
103.3,-259.634,-41.194
103.33,-260.266,-41.595
103.36,-262.793,-41.137
103.39,-262.933,-41.263
103.43,-263.67,-41.836
103.46,-265.074,-41.973
103.49,-266.864,-42.042
103.52,-268.689,-42.328
103.56,-269.952,-42.718
103.59,-271.321,-42.752
103.62,-272.76,-42.477
103.65,-273.778,-42.397
103.69,-274.023,-42.798
103.72,-274.69,-43.6
103.75,-277.252,-43.394
103.78,-278.621,-42.958
103.82,-278.34,-43.565
103.85,-279.674,-43.726
103.88,-280.481,-43.165
103.91,-279.568,-43.474
103.95,-280.972,-43.302
103.98,-281.113,-43.336
104.01,-282.06,-43.657
104.04,-282.552,-43.439
104.08,-282.271,-43.657
104.11,-283.324,-43.817
104.14,-283.85,-44.207
104.17,-284.236,-43.783
104.21,-283.64,-43.554
104.24,-285.254,-44.035
104.27,-285.815,-43.863
104.3,-284.798,-43.898
104.34,-285.184,-43.6
104.37,-285.184,-43.623
104.4,-286.272,-43.05
104.44,-284.657,-42.386
104.47,-282.692,-42.454
104.5,-281.604,-42.809
104.53,-282.832,-42.672
104.57,-282.306,-42.5
104.6,-280.235,-42.958
104.63,-280.06,-42.557
104.66,-278.972,-42.042
104.7,-277.989,-41.996
104.73,-277.112,-42.053
104.76,-278.024,-41.618
104.79,-276.761,-41.332
104.83,-274.409,-41.607
104.86,-272.585,-41.377
104.89,-269.952,-41.194
104.92,-269.11,-41.137
104.96,-270.654,-40.472
104.99,-268.724,-40.232
105.02,-264.548,-41.08
105.05,-263.916,-41.068
105.09,-264.442,-40.518
105.12,-264.407,-40.278
105.15,-261.81,-40.094
105.18,-259.073,-39.636
105.22,-257.283,-39.189
105.25,-256.757,-39.109
105.28,-257.248,-38.72
105.31,-255.247,-38.365
105.35,-253.107,-38.296
105.38,-252.335,-37.597
105.41,-249.387,-36.875
105.44,-245.28,-36.795
105.48,-243.806,-36.681
105.51,-242.613,-36.326
105.54,-240.051,-36.669
105.57,-239.069,-36.543
105.61,-237.103,-35.982
105.64,-235.945,-35.879
105.67,-235.664,-35.627
105.7,-235.068,-34.848
105.74,-230.33,-35.031
105.77,-228.189,-35.524
105.8,-228.4,-34.974
105.83,-227.733,-34.607
105.87,-226.048,-34.607
105.9,-225.031,-33.977
105.93,-222.398,-32.992
105.97,-218.222,-32.877
106.0,-216.222,-32.66
106.03,-215.59,-31.869
106.06,-213.203,-31.514
106.1,-211.063,-31.457
106.13,-209.413,-30.93
106.16,-206.57,-30.758
106.19,-205.237,-30.243
106.23,-204.008,-29.406
106.26,-201.341,-29.086
106.29,-198.288,-28.891
106.32,-195.761,-28.662
106.36,-196.463,-28.02
106.39,-194.357,-27.574
106.42,-191.164,-27.321
106.45,-187.654,-26.565
106.49,-186.11,-26.119
106.52,-184.496,-25.282
106.55,-180.881,-25.099
106.58,-178.74,-24.458
106.62,-175.301,-24.435
106.65,-171.826,-24.274
106.68,-168.878,-23.896
106.71,-167.65,-23.14
106.75,-163.965,-23.06
106.78,-160.912,-22.464
106.81,-156.981,-22.212
106.84,-156.033,-22.052
106.88,-153.998,-21.788
106.91,-152.489,-21.009
106.94,-148.979,-20.265
106.97,-145.505,-19.761
107.01,-141.504,-19.165
107.04,-136.591,-19.211
107.07,-134.344,-18.867
107.1,-133.572,-18.363
107.14,-130.659,-18.146
107.17,-128.343,-17.596
107.2,-126.273,-16.908
107.23,-122.693,-16.507
107.27,-119.675,-15.809
107.3,-116.902,-14.755
107.33,-113.393,-14.182
107.37,-110.059,-13.701
107.4,-107.286,-12.807
107.43,-104.233,-11.582
107.46,-97.495,-11.33
107.5,-93.037,-10.963
107.53,-89.072,-10.047
107.56,-84.544,-9.737
107.59,-80.614,-9.646
107.63,-76.753,-9.279
107.66,-72.893,-9.061
107.69,-71.77,-8.477
107.72,-67.979,-8.007
107.76,-65.698,-7.503
107.79,-62.856,-6.461
107.82,-57.767,-6.278
107.85,-53.696,-6.163
107.89,-50.677,-5.728
107.92,-48.607,-5.086
107.95,-45.554,-4.926
107.98,-44.922,-3.941
108.02,-39.587,-3.139
108.05,-34.955,-3.139
108.08,-34.007,-1.959
108.11,-29.55,-1.42
108.15,-27.795,-0.871
108.18,-20.847,-0.504
108.21,-16.389,-0.55
108.24,-14.073,0.378
108.28,-9.756,0.47
108.31,-6.493,0.802
108.34,-1.93,0.745
108.37,-1.334,1.512
108.41,2.702,2.142
108.44,6.563,2.051
108.47,11.757,2.28
108.5,16.846,2.44
108.54,19.548,2.577
108.57,22.075,2.692
108.6,25.269,2.726
108.63,28.322,3.173
108.67,32.253,3.494
108.7,35.376,3.735
108.73,38.885,4.055
108.76,42.641,4.433
108.8,46.466,4.811
108.83,50.151,5.029
108.86,52.608,5.315
108.9,54.854,5.785
108.93,58.258,6.129
108.96,61.908,6.518
108.99,64.224,7.228
109.03,68.436,7.721
109.06,72.296,7.859
109.09,72.858,9.302
109.12,78.789,9.233
109.16,79.807,10.001
109.19,85.632,10.883
109.22,90.756,10.447
109.25,92.967,11.364
109.29,95.705,11.662
109.32,98.021,11.948
109.35,99.986,12.75
109.38,103.636,13.323
109.42,107.953,13.426
109.45,110.059,14.388
109.48,112.375,15.133
109.51,114.691,15.935
109.55,119.955,16.404
109.58,124.693,16.588
109.61,127.747,17.034
109.64,130.73,17.252
109.68,131.607,17.928
109.71,133.678,19.016
109.74,138.17,19.749
109.77,142.873,20.471
109.81,146.172,20.597
109.84,148.593,20.941
109.87,151.682,21.33
109.9,153.752,21.811
109.94,155.367,22.373
109.97,158.104,22.945
110.0,162.35,23.301
110.03,164.561,23.908
110.07,167.86,24.297
110.1,170.001,24.629
110.13,172.177,25.374
110.16,174.669,25.867
110.2,177.968,26.497
110.23,182.46,27.173
110.26,186.285,27.848
110.29,189.128,28.421
110.33,192.883,28.41
110.36,194.533,28.375
110.39,195.305,28.753
110.43,196.814,28.788
110.46,198.323,28.845
110.49,199.516,29.326
110.52,201.131,29.83
110.56,203.026,30.048
110.59,204.535,30.472
110.62,205.763,30.907
110.65,206.676,31.342
110.69,207.799,32.053
110.72,211.098,32.614
110.75,214.748,33.015
110.78,217.871,33.152
110.82,217.871,34.195
110.85,221.591,34.802
110.88,224.048,34.561
110.91,224.855,35.065
110.95,225.803,35.661
110.98,228.224,36.062
111.01,232.365,35.673
111.04,232.892,36.177
111.08,234.085,36.497
111.11,233.629,36.704
111.14,235.103,37.219
111.17,238.612,37.299
111.21,241.42,37.253
111.24,241.385,37.54
111.27,241.245,38.25
111.3,244.368,38.158
111.34,245.772,38.422
111.37,247.667,38.937
111.4,249.316,38.937
111.43,250.826,39.029
111.47,251.422,39.751
111.5,254.089,40.266
111.53,257.002,40.335
111.56,259.248,40.839
111.6,261.143,41.412
111.63,262.302,41.836
111.66,264.267,41.4
111.69,265.881,40.782
111.73,266.408,41.068
111.76,267.285,41.584
111.79,268.513,41.538
111.83,268.584,41.95
111.86,270.338,42.305
111.89,271.356,41.985
111.92,271.286,42.5
111.96,273.181,42.374
111.99,273.567,42.271
112.02,275.041,42.626
112.05,276.27,42.683
112.09,277.182,43.348
112.12,279.007,43.428
112.15,279.639,43.451
112.18,280.025,43.726
112.22,280.446,43.76
112.25,279.604,43.909
112.28,281.253,43.726
112.31,281.534,43.611
112.35,281.99,44.459
112.38,284.026,43.909
112.41,283.675,43.921
112.44,284.412,44.322
112.48,285.184,44.47
112.51,286.693,43.898
112.54,285.535,43.268
112.57,284.552,43.943
112.61,286.868,43.978
112.64,286.412,43.497
112.67,285.886,43.417
112.7,285.219,42.97
112.74,283.113,43.107
112.77,283.604,43.279
112.8,284.552,42.947
112.83,283.253,43.313
112.87,283.043,44.195
112.9,285.429,43.531
112.93,284.201,42.729
112.96,281.85,42.878
113.0,281.674,42.66
113.03,280.621,41.79
113.06,277.077,41.652
113.09,277.147,41.801
113.13,276.445,41.515
113.16,274.76,41.446
113.19,274.199,41.137
113.22,270.549,41.137
113.26,269.917,40.621
113.29,268.022,40.45
113.32,267.812,40.381
113.36,266.653,40.22
113.39,265.495,40.163
113.42,263.67,40.14
113.45,262.653,40.163
113.49,261.81,39.613
113.52,259.108,39.476
113.55,258.617,39.167
113.58,257.318,38.846
113.62,256.406,38.811
113.65,255.914,38.491
113.68,254.791,38.021
113.71,251.247,37.849
113.75,248.439,37.849
113.78,247.421,37.311
113.81,244.824,37.127
113.84,243.561,37.208
113.88,243.14,36.715
113.91,240.718,36.578
113.94,239.595,36.452
113.97,239.069,35.673
114.01,236.858,35.077
114.04,233.839,34.939
114.07,231.453,34.802
114.1,230.4,34.607
114.14,231.277,34.092
114.17,229.593,33.886
114.2,228.435,33.645
114.23,226.294,32.923
114.27,222.398,32.683
114.3,220.959,32.27
114.33,220.784,31.205
114.36,215.099,31.388
114.4,211.203,31.766
114.43,210.536,31.067
114.46,210.115,30.896
114.49,209.167,30.449
114.53,204.745,30.059
114.56,200.71,29.819
114.59,198.709,29.487
114.62,196.709,29.418
114.66,196.533,28.994
114.69,194.287,28.616
114.72,191.234,28.639
114.75,190.672,27.711
114.79,188.321,27.047
114.82,184.846,26.817
114.85,182.39,26.027
114.89,178.319,25.912
114.92,177.126,25.729
114.95,176.143,25.111
114.98,174.95,24.549
115.02,171.721,23.656
115.05,167.755,23.209
115.08,163.789,22.728
115.11,158.806,22.751
115.15,157.753,22.189
115.18,157.683,21.628
115.21,155.472,21.284
115.24,152.278,20.517
115.28,149.435,19.452
115.31,146.101,19.154
115.34,141.785,18.833
115.37,138.17,18.375
115.41,136.275,17.664
115.44,134.064,17.619
115.47,133.748,16.943
115.5,129.08,16.496
115.54,125.922,16.141
115.57,123.5,15.408
115.6,122.026,14.468
115.63,117.534,13.941
115.67,113.708,13.586
115.7,109.181,13.151
115.73,107.146,12.807
115.76,104.9,11.822
115.8,101.53,11.169
115.83,97.986,10.127
115.86,91.177,9.886
115.89,88.405,9.119
115.93,83.492,8.397
115.96,79.701,8.5
115.99,76.964,8.03
116.02,73.103,7.721
116.06,71.033,7.125
116.09,67.944,6.369
116.12,62.645,6.117
116.15,59.03,5.819
116.19,56.328,5.052
116.22,52.748,4.892
116.25,50.467,4.582
116.28,46.922,4.032
116.32,43.448,3.631
116.35,41.272,3.07
116.38,38.078,2.646
116.42,34.674,2.314
116.45,31.235,1.73
116.48,26.778,1.352
116.51,22.812,0.997
116.55,18.916,0.607
116.58,15.056,0.126
116.61,10.599,-0.172
116.64,5.299,-0.367
