Trigger_Date,2023/06/23
Trigger_Time,T 08:29:51.065 PDT
Samples_Per_Cycle,512
Microseconds_Per_Sample,32.511
Time (ms),Voltage (V),Current (A)
-16.65,-80.052,-0.584
-16.61,-82.79,-0.653
-16.58,-85.632,-0.619
-16.55,-89.037,-0.836
-16.52,-93.283,-1.031
-16.48,-97.67,-0.928
-16.45,-101.495,-0.79
-16.42,-104.829,-0.687
-16.39,-107.812,-0.607
-16.35,-110.725,-0.664
-16.32,-114.305,-0.871
-16.29,-118.411,-0.951
-16.26,-122.693,-0.951
-16.22,-126.869,-0.894
-16.19,-130.695,-0.825
-16.16,-133.958,-0.642
-16.13,-137.012,-0.676
-16.09,-139.995,-0.63
-16.06,-142.873,-0.619
-16.03,-145.891,-0.71
-16.0,-149.365,-0.779
-15.96,-153.12,-0.882
-15.93,-156.454,-0.642
-15.9,-158.981,-0.424
-15.87,-161.298,-0.573
-15.83,-164.035,-0.653
-15.8,-166.983,-0.653
-15.77,-170.317,-0.79
-15.74,-174.037,-0.859
-15.7,-177.441,-0.699
-15.67,-180.249,-0.515
-15.64,-182.425,-0.435
-15.61,-184.355,-0.412
-15.57,-186.461,-0.493
-15.54,-189.198,-0.676
-15.51,-192.708,-0.859
-15.48,-196.638,-0.894
-15.44,-200.288,-0.745
-15.41,-203.096,-0.504
-15.38,-205.061,-0.332
-15.35,-206.395,-0.241
-15.31,-207.623,-0.286
-15.28,-209.238,-0.367
-15.25,-211.484,-0.619
-15.22,-214.502,-0.733
-15.18,-217.59,-0.642
-15.15,-220.047,-0.458
-15.12,-221.872,-0.321
-15.09,-223.065,-0.206
-15.05,-224.083,-0.218
-15.02,-225.452,-0.367
-14.99,-227.592,-0.573
-14.96,-230.4,-0.664
-14.92,-233.313,-0.63
-14.89,-235.699,-0.435
-14.86,-237.209,-0.229
-14.82,-238.297,-0.241
-14.79,-239.735,-0.367
-14.76,-241.701,-0.481
-14.73,-243.912,-0.493
-14.69,-246.298,-0.527
-14.66,-248.474,-0.435
-14.63,-250.369,-0.389
-14.6,-252.054,-0.355
-14.56,-253.317,-0.218
-14.53,-254.23,-0.183
-14.5,-255.634,-0.367
-14.47,-257.809,-0.596
-14.43,-260.793,-0.733
-14.4,-264.021,-0.687
-14.37,-266.548,-0.481
-14.34,-268.022,-0.16
-14.3,-268.443,0.011
-14.27,-268.513,-0.034
-14.24,-269.005,-0.137
-14.21,-270.374,-0.424
-14.17,-272.69,-0.607
-14.14,-274.374,-0.206
-14.11,-275.287,-0.126
-14.08,-276.375,-0.344
-14.04,-277.287,-0.103
-14.01,-277.849,-0.103
-13.98,-278.972,-0.344
-13.95,-280.797,-0.47
-13.91,-282.903,-0.481
-13.88,-285.324,-0.573
-13.85,-287.465,-0.401
-13.82,-288.728,-0.16
-13.78,-289.5,-0.137
-13.75,-290.273,-0.195
-13.72,-291.185,-0.206
-13.69,-292.413,-0.298
-13.65,-293.922,-0.355
-13.62,-295.432,-0.332
-13.59,-296.555,-0.183
-13.56,-297.186,-0.103
-13.52,-297.643,-0.092
-13.49,-297.818,-0.034
-13.46,-297.818,0.023
-13.43,-298.134,-0.149
-13.39,-298.38,-0.034
-13.36,-299.011,-0.286
-13.33,-300.31,-0.412
-13.3,-301.468,-0.367
-13.26,-302.24,-0.321
-13.23,-302.065,0.023
-13.2,-301.433,0.103
-13.17,-301.608,-0.16
-13.13,-302.205,-0.16
-13.1,-302.345,0.046
-13.07,-302.065,0.023
-13.04,-301.678,0.137
-13.0,-300.52,0.367
-12.97,-298.801,0.424
-12.94,-297.397,0.229
-12.91,-297.081,-0.08
-12.87,-297.783,-0.241
-12.84,-298.59,-0.115
-12.81,-298.415,0.137
-12.78,-296.976,0.493
-12.74,-294.379,0.676
-12.71,-291.887,0.504
-12.68,-291.08,-0.08
-12.65,-292.905,-0.699
-12.61,-296.379,-0.882
-12.58,-298.73,-0.263
-12.55,-297.537,0.733
-12.52,-292.87,1.375
-12.48,-286.728,1.42
-12.45,-281.218,1.1
-12.42,-277.568,0.561
-12.39,-276.41,0.011
-12.35,-276.866,-0.252
-12.32,-277.673,-0.137
-12.29,-277.533,0.183
-12.26,-275.638,0.619
-12.22,-272.269,0.882
-12.19,-268.724,0.733
-12.16,-265.952,0.504
-12.13,-263.951,0.367
-12.09,-262.617,0.241
-12.06,-261.635,0.16
-12.03,-260.687,0.241
-12.0,-258.968,0.515
-11.96,-256.055,0.802
-11.93,-253.633,0.355
-11.9,-252.65,0.069
-11.87,-251.843,0.275
-11.83,-250.439,0.378
-11.8,-249.702,0.023
-11.77,-250.053,-0.229
-11.74,-249.738,0.309
-11.7,-247.035,0.871
-11.67,-243.526,0.802
-11.64,-240.683,0.481
-11.61,-238.437,0.504
-11.57,-236.121,0.55
-11.54,-234.015,0.401
-11.51,-232.19,0.389
-11.48,-230.084,0.55
-11.44,-227.628,0.561
-11.41,-225.346,0.47
-11.38,-223.135,0.481
-11.35,-220.995,0.47
-11.31,-219.17,0.389
-11.28,-217.59,0.321
-11.25,-216.046,0.367
-11.22,-214.081,0.47
-11.18,-211.87,0.538
-11.15,-209.589,0.504
-11.12,-207.307,0.538
-11.09,-204.921,0.538
-11.05,-202.605,0.515
-11.02,-200.534,0.412
-10.99,-198.604,0.424
-10.96,-196.393,0.561
-10.92,-193.761,0.619
-10.89,-191.023,0.619
-10.86,-188.04,0.71
-10.83,-185.092,0.642
-10.79,-182.425,0.504
-10.76,-180.214,0.47
-10.73,-177.827,0.584
-10.7,-175.055,0.63
-10.66,-172.247,0.664
-10.63,-169.545,0.538
-10.6,-166.457,0.779
-10.57,-162.701,0.939
-10.53,-159.613,0.47
-10.5,-157.121,0.584
-10.47,-154.243,0.733
-10.44,-151.085,0.676
-10.4,-147.926,0.71
-10.37,-144.347,0.871
-10.34,-140.627,0.825
-10.31,-137.257,0.687
-10.27,-134.309,0.619
-10.24,-131.537,0.619
-10.21,-128.624,0.664
-10.18,-125.044,0.894
-10.14,-120.657,1.088
-10.11,-115.99,0.997
-10.08,-112.129,0.745
-10.05,-109.146,0.596
-10.01,-106.444,0.584
-9.98,-103.531,0.699
-9.95,-100.197,0.825
-9.92,-96.371,0.894
-9.88,-92.195,0.939
-9.85,-88.054,0.928
-9.82,-84.264,0.768
-9.79,-81.21,0.596
-9.75,-78.754,0.504
-9.72,-76.332,0.584
-9.69,-73.454,0.676
-9.66,-70.12,0.825
-9.62,-66.154,0.928
-9.59,-62.013,0.939
-9.56,-58.083,0.859
-9.53,-54.398,0.768
-9.49,-50.888,0.779
-9.46,-47.063,0.882
-9.43,-43.167,0.871
-9.4,-39.412,0.813
-9.36,-35.692,0.848
-9.33,-31.656,0.951
-9.3,-27.444,0.962
-9.27,-23.268,0.894
-9.23,-19.478,0.825
-9.2,-15.863,0.802
-9.17,-12.248,0.813
-9.14,-8.528,0.859
-9.1,-4.703,0.871
-9.07,-0.912,0.825
-9.04,2.597,0.745
-9.01,5.791,0.699
-8.97,9.125,0.733
-8.94,12.704,0.859
-8.91,16.705,0.928
-8.88,20.776,0.894
-8.84,24.602,0.825
-8.81,28.252,0.802
-8.78,31.831,0.802
-8.75,35.306,0.745
-8.71,38.535,0.71
-8.68,41.658,0.664
-8.65,44.641,0.676
-8.62,48.01,0.779
-8.58,51.695,0.871
-8.55,55.521,0.848
-8.52,59.276,0.836
-8.49,63.031,0.848
-8.45,66.646,0.813
-8.42,70.296,0.802
-8.39,73.735,0.745
-8.36,76.718,0.596
-8.32,79.42,0.607
-8.29,82.544,0.756
-8.26,86.194,0.871
-8.23,90.16,0.916
-8.19,94.406,0.985
-8.16,98.688,0.939
-8.13,102.548,0.802
-8.1,105.637,0.619
-8.06,108.339,0.573
-8.03,110.936,0.607
-8.0,113.884,0.676
-7.97,117.183,0.813
-7.93,121.184,0.951
-7.9,125.465,0.962
-7.87,129.431,0.848
-7.84,132.484,0.55
-7.8,135.011,0.55
-7.77,137.538,0.607
-7.74,140.381,0.664
-7.71,143.82,0.871
-7.67,147.575,0.802
-7.64,151.401,0.905
-7.61,155.051,0.768
-7.58,157.823,0.47
-7.54,159.753,0.389
-7.51,162.175,0.642
-7.48,165.72,0.939
-7.44,170.001,0.985
-7.41,174.107,0.894
-7.38,177.757,0.733
-7.35,180.635,0.561
-7.31,182.565,0.355
-7.28,184.039,0.275
-7.25,185.619,0.412
-7.22,188.11,0.687
-7.18,191.655,0.882
-7.15,195.691,0.928
-7.12,199.551,0.836
-7.09,202.71,0.619
-7.05,204.851,0.344
-7.02,206.149,0.195
-6.99,207.202,0.252
-6.96,208.746,0.447
-6.92,211.273,0.664
-6.89,214.186,0.664
-6.86,216.783,0.515
-6.83,218.924,0.424
-6.79,220.503,0.298
-6.76,221.521,0.16
-6.73,222.504,0.275
-6.7,224.399,0.515
-6.66,227.066,0.699
-6.63,230.154,0.676
-6.6,232.997,0.607
-6.57,235.278,0.458
-6.53,236.928,0.286
-6.5,237.946,0.172
-6.47,238.893,0.241
-6.44,240.157,0.332
-6.4,242.052,0.504
-6.37,244.403,0.596
-6.34,247.105,0.596
-6.31,250.194,0.768
-6.27,253.107,0.584
-6.24,254.791,0.206
-6.21,255.598,0.115
-6.18,256.406,0.241
-6.14,257.634,0.286
-6.11,259.003,0.344
-6.08,260.898,0.515
-6.05,263.284,0.561
-6.01,265.285,0.389
-5.98,266.794,0.275
-5.95,268.022,0.309
-5.92,269.426,0.321
-5.88,271.075,0.412
-5.85,273.146,0.515
-5.82,275.392,0.493
-5.79,277.077,0.309
-5.75,277.849,0.034
-5.72,277.954,0.046
-5.69,278.481,0.206
-5.66,279.604,0.309
-5.62,281.183,0.401
-5.59,283.289,0.55
-5.56,285.78,0.584
-5.53,287.816,0.401
-5.49,289.22,0.229
-5.46,290.027,0.149
-5.43,290.939,0.229
-5.4,291.747,0.16
-5.36,292.343,0.103
-5.33,293.466,0.401
-5.3,294.905,0.286
-5.27,295.712,0.092
-5.23,296.274,0.149
-5.2,296.695,0.092
-5.17,296.449,-0.183
-5.14,296.274,0.092
-5.1,297.221,0.367
-5.07,298.625,0.275
-5.04,299.573,0.172
-5.01,300.485,0.218
-4.97,301.117,0.115
-4.94,301.152,-0.092
-4.91,301.257,0.126
-4.88,301.503,0.023
-4.84,301.187,-0.115
-4.81,301.363,0.137
-4.78,302.029,0.206
-4.75,302.24,-0.069
-4.71,301.538,-0.229
-4.68,300.38,-0.263
-4.65,299.117,-0.286
-4.62,297.818,-0.286
-4.58,297.327,0.023
-4.55,298.169,0.344
-4.52,299.187,0.183
-4.49,299.081,-0.195
-4.45,297.572,-0.481
-4.42,295.116,-0.607
-4.39,292.378,-0.596
-4.36,290.167,-0.424
-4.32,289.044,-0.08
-4.29,289.29,0.218
-4.26,289.957,0.115
-4.23,289.641,-0.206
-4.19,287.921,-0.515
-4.16,285.219,-0.653
-4.13,282.341,-0.642
-4.1,279.779,-0.504
-4.06,278.235,-0.206
-4.03,277.849,0.057
-4.0,277.989,0.08
-3.97,277.849,-0.08
-3.93,276.796,-0.367
-3.9,274.55,-0.619
-3.87,271.777,-0.63
-3.84,269.356,-0.458
-3.8,267.706,-0.263
-3.77,266.653,-0.172
-3.74,265.846,-0.183
-3.71,264.548,-0.321
-3.67,262.407,-0.619
-3.64,259.143,-0.779
-3.61,255.984,-0.676
-3.58,253.598,-0.378
-3.54,252.054,-0.252
-3.51,250.896,-0.252
-3.48,250.475,0.069
-3.45,250.58,0.034
-3.41,249.457,-0.481
-3.38,246.649,-0.745
-3.35,243.596,-0.642
-3.32,240.788,-0.561
-3.28,238.507,-0.47
-3.25,236.682,-0.332
-3.22,235.208,-0.309
-3.19,233.734,-0.332
-3.15,231.909,-0.435
-3.12,229.558,-0.607
-3.09,226.996,-0.527
-3.06,224.96,-0.355
-3.02,223.557,-0.252
-2.99,222.328,-0.263
-2.96,220.959,-0.309
-2.93,219.345,-0.412
-2.89,216.818,-0.664
-2.86,213.239,-0.905
-2.83,209.378,-0.859
-2.8,206.044,-0.642
-2.76,203.763,-0.378
-2.73,202.394,-0.183
-2.7,201.517,-0.149
-2.67,200.499,-0.263
-2.63,198.569,-0.561
-2.6,195.34,-0.848
-2.57,191.444,-0.894
-2.54,187.724,-0.768
-2.5,184.636,-0.596
-2.47,182.425,-0.389
-2.44,180.811,-0.263
-2.41,179.126,-0.447
-2.37,176.424,-0.71
-2.34,172.844,-0.859
-2.31,168.948,-0.882
-2.28,165.158,-0.79
-2.24,162.105,-0.55
-2.21,160.034,-0.367
-2.18,158.209,-0.435
-2.15,155.612,-0.664
-2.11,152.383,-0.768
-2.08,148.769,-0.79
-2.05,145.189,-0.813
-2.02,142.136,-0.584
-1.98,140.03,-0.344
-1.95,138.065,-0.447
-1.92,135.538,-0.676
-1.89,131.958,-0.882
-1.85,127.641,-1.02
-1.82,122.903,-1.054
-1.79,118.341,-0.974
-1.76,114.2,-0.882
-1.72,110.655,-0.687
-1.69,107.953,-0.493
-1.66,105.531,-0.55
-1.63,102.478,-0.745
-1.59,98.653,-0.939
-1.56,93.985,-1.1
-1.53,88.966,-1.123
-1.5,84.193,-0.997
-1.46,80.052,-0.836
-1.43,76.683,-0.664
-1.4,73.875,-0.561
-1.37,71.384,-0.515
-1.33,68.681,-0.664
-1.3,65.137,-0.871
-1.27,61.031,-0.951
-1.24,56.819,-0.905
-1.2,53.029,-0.756
-1.17,49.8,-0.653
-1.14,46.922,-0.63
-1.11,43.869,-0.687
-1.07,40.395,-0.836
-1.04,36.218,-1.008
-1.01,31.551,-1.042
-0.98,27.058,-0.962
-0.94,22.987,-0.825
-0.91,19.618,-0.676
-0.88,16.776,-0.573
-0.85,14.108,-0.596
-0.81,11.125,-0.71
-0.78,7.51,-0.836
-0.75,3.755,-0.871
-0.72,0.035,-0.79
-0.68,-3.545,-0.745
-0.65,-6.914,-0.733
-0.62,-10.072,-0.653
-0.59,-12.985,-0.642
-0.55,-16.425,-0.848
-0.52,-20.601,-0.997
-0.49,-25.023,-0.962
-0.46,-29.199,-0.882
-0.42,-33.025,-0.825
-0.39,-36.639,-0.756
-0.36,-40.079,-0.733
-0.33,-43.553,-0.79
-0.29,-47.238,-0.813
-0.26,-50.713,-0.745
-0.23,-54.187,-0.756
-0.2,-57.661,-0.768
-0.16,-61.101,-0.745
-0.13,-64.505,-0.733
-0.1,-67.979,-0.779
-0.07,-71.559,-0.779
-0.03,-75.174,-0.79
0.0,-78.578,-0.71
0.03,-81.877,-0.699
0.07,-85.316,-0.813
0.1,-89.212,-0.916
0.13,-93.353,-0.916
0.16,-97.53,-0.905
0.2,-101.425,-0.825
0.23,-104.865,-0.676
0.26,-107.602,-0.527
0.29,-109.953,-0.458
0.33,-112.375,-0.596
0.36,-115.569,-0.79
0.39,-119.604,-0.997
0.42,-124.062,-0.974
0.46,-128.203,-0.882
0.49,-131.537,-0.63
0.52,-134.415,-0.619
0.55,-137.363,-0.664
0.59,-140.591,-0.733
0.62,-144.171,-0.859
0.65,-147.926,-0.79
0.68,-151.506,-0.79
0.72,-154.735,-0.676
0.75,-156.876,-0.298
0.78,-158.35,-0.321
0.81,-160.736,-0.676
0.85,-164.211,-0.871
0.88,-168.141,-0.871
0.91,-172.142,-0.916
0.94,-175.967,-0.779
0.98,-178.845,-0.504
1.01,-180.881,-0.389
1.04,-182.846,-0.447
1.07,-185.197,-0.573
1.11,-188.04,-0.687
1.14,-191.515,-0.848
1.17,-195.445,-0.916
1.2,-199.306,-0.813
1.24,-202.394,-0.573
1.27,-204.395,-0.332
1.3,-205.728,-0.218
1.33,-206.781,-0.241
1.37,-208.185,-0.332
1.4,-210.115,-0.504
1.43,-212.958,-0.71
1.46,-216.116,-0.699
1.5,-218.748,-0.493
1.53,-220.538,-0.263
1.56,-221.451,-0.137
1.59,-222.118,-0.115
1.63,-223.276,-0.344
1.66,-225.417,-0.607
1.69,-228.47,-0.733
1.72,-231.593,-0.676
1.76,-234.401,-0.584
1.79,-236.647,-0.435
1.82,-238.437,-0.321
1.85,-239.946,-0.309
1.89,-241.595,-0.389
1.92,-243.526,-0.47
1.95,-245.456,-0.412
1.98,-247.772,-0.573
2.02,-250.404,-0.607
2.05,-252.194,-0.229
2.08,-252.686,0.034
2.11,-252.861,-0.08
2.15,-253.703,-0.263
2.18,-255.423,-0.458
2.21,-258.09,-0.687
2.24,-261.249,-0.745
2.28,-264.232,-0.584
2.31,-266.197,-0.309
2.34,-267.075,-0.08
2.37,-267.496,-0.057
2.41,-268.163,-0.218
2.44,-269.672,-0.435
2.47,-272.058,-0.607
2.5,-274.725,-0.607
2.54,-277.007,-0.412
2.57,-278.059,-0.057
2.6,-278.165,0.046
2.63,-278.235,-0.069
2.67,-278.481,0.0
2.7,-279.253,-0.298
2.73,-281.218,-0.573
2.76,-283.64,-0.527
2.8,-285.675,-0.401
2.83,-287.64,-0.458
2.86,-289.641,-0.412
2.89,-291.08,-0.252
2.93,-291.711,-0.023
2.96,-292.027,-0.092
2.99,-293.01,-0.332
3.02,-294.308,-0.252
3.06,-294.87,0.011
3.09,-295.256,-0.137
3.12,-296.239,-0.309
3.15,-297.327,-0.183
3.19,-297.221,0.195
3.22,-296.73,0.092
3.25,-297.572,-0.424
3.28,-299.187,-0.367
3.32,-299.187,0.149
3.35,-298.801,-0.046
3.38,-299.678,-0.344
3.41,-300.45,-0.149
3.45,-300.345,0.023
3.48,-300.555,-0.172
3.51,-301.257,-0.218
3.54,-301.678,-0.115
3.58,-301.854,-0.092
3.61,-301.994,-0.092
3.64,-301.749,0.103
3.67,-300.555,0.389
3.71,-298.73,0.458
3.74,-297.327,0.206
3.77,-297.221,-0.126
3.8,-297.818,-0.195
3.84,-298.274,0.0
3.87,-297.643,0.275
3.9,-295.782,0.573
3.93,-293.15,0.642
3.97,-290.869,0.412
4.0,-290.202,-0.069
4.03,-291.501,-0.493
4.06,-293.642,-0.481
4.1,-294.484,0.034
4.13,-292.764,0.687
4.16,-288.763,1.111
4.19,-283.885,1.134
4.23,-279.498,0.848
4.26,-277.007,0.344
4.29,-276.34,-0.046
4.32,-276.55,-0.092
4.36,-276.55,0.069
4.39,-275.603,0.344
4.42,-273.251,0.676
4.45,-270.198,0.722
4.49,-267.426,0.538
4.52,-265.671,0.298
4.55,-264.688,0.137
4.58,-264.232,0.069
4.62,-263.881,0.08
4.65,-263.039,0.252
4.68,-260.898,0.687
4.71,-257.809,0.733
4.75,-255.739,0.252
4.78,-254.756,0.126
4.81,-253.844,0.241
4.84,-252.861,0.252
4.88,-251.738,0.229
4.91,-250.194,0.412
4.94,-247.562,0.733
4.97,-244.157,0.802
5.01,-241.209,0.561
5.04,-239.139,0.367
5.07,-237.349,0.424
5.1,-235.489,0.412
5.14,-233.875,0.332
5.17,-232.085,0.424
5.2,-229.874,0.584
5.23,-227.382,0.55
5.27,-225.171,0.447
5.3,-223.241,0.401
5.33,-221.521,0.355
5.36,-220.082,0.286
5.4,-218.713,0.321
5.43,-216.853,0.504
5.46,-214.256,0.642
5.49,-211.308,0.676
5.53,-208.36,0.676
5.56,-205.553,0.596
5.59,-203.412,0.355
5.62,-202.043,0.252
5.66,-200.674,0.332
5.69,-198.709,0.55
5.72,-195.831,0.733
5.75,-192.357,0.802
5.79,-188.847,0.813
5.82,-185.443,0.733
5.85,-182.46,0.596
5.88,-179.617,0.676
5.92,-177.477,0.321
5.95,-175.967,0.321
5.98,-173.651,0.664
6.01,-170.142,0.905
6.05,-166.667,0.71
6.08,-163.649,0.63
6.11,-161.227,0.447
6.14,-159.227,0.435
6.18,-156.63,0.71
6.21,-153.331,0.768
6.24,-149.821,0.802
6.27,-146.312,0.768
6.31,-143.118,0.676
6.34,-140.276,0.584
6.37,-137.749,0.55
6.4,-135.117,0.63
6.44,-132.133,0.699
6.47,-128.764,0.813
6.5,-124.799,0.951
6.53,-120.306,1.042
6.57,-115.849,0.951
6.6,-112.129,0.733
6.63,-109.251,0.561
6.66,-106.689,0.573
6.7,-103.741,0.733
6.73,-100.127,0.882
6.76,-95.81,1.02
6.79,-91.037,1.111
6.83,-86.299,1.02
6.86,-82.158,0.848
6.89,-78.719,0.699
6.92,-75.771,0.619
6.96,-72.963,0.63
6.99,-69.839,0.733
7.02,-66.33,0.859
7.05,-62.469,0.859
7.09,-58.539,0.894
7.12,-54.503,0.928
7.15,-50.432,0.882
7.18,-46.712,0.779
7.22,-43.413,0.722
7.25,-40.254,0.687
7.28,-36.92,0.756
7.31,-33.2,0.916
7.35,-28.954,0.985
7.38,-24.707,0.916
7.41,-20.811,0.825
7.44,-17.372,0.745
7.48,-14.003,0.733
7.51,-10.599,0.756
7.54,-7.159,0.779
7.58,-3.65,0.779
7.61,-0.175,0.768
7.64,3.229,0.733
7.67,6.703,0.813
7.71,10.248,0.779
7.74,13.863,0.779
7.77,17.723,0.916
7.8,21.689,0.916
7.84,25.479,0.802
7.87,29.059,0.768
7.9,32.568,0.768
7.93,35.938,0.756
7.97,39.447,0.779
8.0,42.886,0.779
8.03,46.291,0.71
8.06,49.484,0.71
8.1,52.888,0.768
8.13,56.503,0.836
8.16,60.223,0.836
8.19,64.154,0.916
8.23,68.26,0.928
8.26,72.156,0.825
8.29,75.42,0.63
8.32,78.192,0.607
8.36,80.965,0.642
8.39,83.913,0.676
8.42,87.177,0.768
8.45,91.002,0.939
8.49,95.284,0.985
8.52,99.495,0.916
8.55,103.11,0.745
8.58,106.198,0.63
8.62,109.006,0.63
8.65,111.954,0.676
8.68,115.288,0.813
8.71,119.254,0.951
8.75,123.57,0.962
8.78,127.641,0.882
8.81,131.221,0.733
8.84,133.958,0.493
8.88,136.029,0.401
8.91,138.345,0.596
8.94,141.399,0.768
8.97,145.189,0.894
9.01,149.506,1.008
9.04,154.033,1.02
9.07,157.788,0.699
9.1,160.245,0.401
9.14,162.105,0.412
9.17,164.211,0.504
9.2,166.772,0.642
9.23,170.036,0.813
9.27,173.827,0.894
9.3,177.477,0.768
9.33,180.424,0.584
9.36,182.635,0.412
9.4,184.355,0.367
9.43,186.356,0.515
9.46,189.479,0.848
9.49,193.515,0.985
9.53,197.656,0.871
9.56,201.06,0.653
9.59,203.412,0.435
9.62,204.921,0.252
9.66,206.079,0.241
9.69,207.483,0.378
9.72,209.589,0.55
9.75,212.221,0.653
9.79,215.169,0.687
9.82,217.836,0.55
9.85,219.766,0.332
9.88,220.714,0.126
9.92,221.451,0.183
9.95,222.995,0.47
9.98,225.627,0.722
10.01,228.856,0.745
10.05,231.839,0.607
10.08,234.366,0.515
10.11,236.436,0.424
10.14,237.595,0.126
10.18,237.875,-0.023
10.21,238.998,0.447
10.24,241.631,0.756
10.27,244.824,0.687
10.31,247.105,0.389
10.34,248.825,0.355
10.37,250.79,0.504
10.4,252.721,0.389
10.44,254.054,0.218
10.47,255.283,0.309
10.5,256.967,0.447
10.53,258.792,0.401
10.57,260.547,0.389
10.6,262.547,0.493
10.63,264.478,0.424
10.66,265.952,0.241
10.7,267.004,0.241
10.73,268.338,0.344
10.76,269.952,0.389
10.79,271.848,0.47
10.83,274.059,0.504
10.86,276.234,0.447
10.89,277.498,0.172
10.92,277.814,-0.034
10.96,278.13,0.115
10.99,278.902,0.286
11.02,280.341,0.367
11.05,282.236,0.481
11.09,284.587,0.561
11.12,286.868,0.493
11.15,288.553,0.286
11.18,289.5,0.16
11.22,290.273,0.149
11.25,291.15,0.252
11.28,291.782,0.057
11.31,292.589,0.275
11.35,294.028,0.401
11.38,295.291,0.183
11.41,295.923,0.115
11.44,296.66,0.195
11.48,296.87,-0.057
11.51,296.484,-0.126
11.54,296.555,0.16
11.57,297.502,0.298
11.61,298.099,0.023
11.64,298.555,0.137
11.67,299.467,0.298
11.7,300.134,0.057
11.74,300.345,0.057
11.77,300.626,0.092
11.8,300.906,0.046
11.83,301.292,0.126
11.87,302.029,0.206
11.9,302.696,0.115
11.93,302.802,-0.034
11.96,302.38,-0.149
12.0,301.222,-0.332
12.03,299.432,-0.447
12.06,297.678,-0.332
12.09,297.186,0.069
12.13,297.783,0.241
12.16,298.415,0.092
12.19,298.204,-0.16
12.22,296.765,-0.412
12.26,294.484,-0.607
12.29,291.887,-0.573
12.32,289.922,-0.309
12.35,289.395,0.08
12.39,289.922,0.195
12.42,290.202,-0.023
12.45,289.185,-0.367
12.48,286.868,-0.664
12.52,283.64,-0.756
12.55,280.551,-0.619
12.58,278.586,-0.286
12.61,278.13,0.08
12.65,278.656,0.172
12.68,278.902,0.011
12.71,278.165,-0.263
12.74,276.129,-0.596
12.78,273.076,-0.756
12.81,270.058,-0.63
12.84,267.776,-0.378
12.87,266.513,-0.183
12.91,265.811,-0.092
12.94,265.32,-0.103
12.97,264.337,-0.298
13.0,262.302,-0.584
13.04,259.354,-0.733
13.07,256.3,-0.63
13.1,254.054,-0.378
13.13,252.405,-0.321
13.17,251.317,-0.16
13.2,250.861,0.011
13.23,249.738,-0.389
13.26,247.141,-0.756
13.3,243.947,-0.687
13.33,241.525,-0.424
13.36,239.7,-0.355
13.39,238.437,-0.195
13.43,237.454,-0.195
13.46,235.945,-0.435
13.49,233.945,-0.47
13.52,231.664,-0.504
13.56,228.961,-0.664
13.59,226.294,-0.527
13.62,224.68,-0.183
13.65,223.872,-0.126
13.69,222.925,-0.286
13.72,221.24,-0.424
13.75,218.748,-0.676
13.78,215.028,-0.939
13.82,210.957,-0.905
13.85,207.378,-0.676
13.88,204.886,-0.435
13.91,203.482,-0.183
13.95,202.85,-0.069
13.98,202.148,-0.195
14.01,200.464,-0.504
14.04,197.411,-0.825
14.08,193.48,-0.928
14.11,189.514,-0.848
14.14,186.075,-0.676
14.17,183.653,-0.401
14.21,182.214,-0.206
14.24,180.846,-0.344
14.27,178.354,-0.699
14.3,174.809,-0.871
14.34,170.844,-0.871
14.37,166.913,-0.871
14.4,163.368,-0.699
14.43,160.912,-0.389
14.47,159.332,-0.252
14.5,157.648,-0.447
14.53,154.665,-0.79
14.56,150.909,-0.905
14.6,146.979,-0.825
14.63,143.469,-0.733
14.66,140.591,-0.561
14.69,138.24,-0.447
14.73,135.783,-0.596
14.76,132.8,-0.71
14.79,129.501,-0.756
14.82,125.957,-0.813
14.86,121.991,-0.939
14.89,117.674,-0.962
14.92,113.498,-0.882
14.96,110.059,-0.653
14.99,107.251,-0.584
15.02,104.233,-0.71
15.05,100.618,-0.871
15.09,96.371,-0.974
15.12,91.739,-1.077
15.15,87.036,-1.02
15.18,82.649,-0.905
15.22,79.14,-0.664
15.25,76.262,-0.573
15.28,73.56,-0.607
15.31,70.612,-0.676
15.35,67.242,-0.79
15.38,63.347,-0.916
15.41,59.241,-0.916
15.44,55.38,-0.813
15.48,52.116,-0.63
15.51,49.379,-0.584
15.54,46.431,-0.676
15.57,43.062,-0.813
15.61,39.096,-0.939
15.64,34.604,-1.02
15.67,30.077,-0.974
15.7,25.97,-0.836
15.74,22.461,-0.71
15.77,19.337,-0.664
15.8,16.319,-0.664
15.83,13.161,-0.71
15.87,9.756,-0.779
15.9,6.001,-0.848
15.93,2.176,-0.836
15.96,-1.649,-0.871
16.0,-5.545,-0.848
16.03,-8.949,-0.664
16.06,-12.003,-0.687
16.09,-15.758,-0.928
16.13,-20.004,-0.985
16.16,-24.075,-0.813
16.19,-27.304,-0.63
16.22,-30.287,-0.664
16.26,-33.621,-0.779
16.29,-37.201,-0.79
16.32,-40.816,-0.779
16.35,-44.36,-0.779
16.39,-47.8,-0.745
16.42,-51.169,-0.71
16.45,-54.292,-0.653
16.48,-57.17,-0.596
16.52,-60.258,-0.745
16.55,-64.084,-0.916
16.58,-68.19,-0.916
16.61,-72.331,-0.905
16.65,-76.437,-0.894
16.68,-80.157,-0.768
16.71,-83.492,-0.676
16.74,-86.826,-0.779
16.78,-90.616,-0.871
16.81,-94.617,-0.894
16.84,-98.653,-0.894
16.87,-102.478,-0.813
16.91,-105.847,-0.664
16.94,-108.69,-0.584
16.97,-111.357,-0.596
17.0,-114.481,-0.733
17.04,-118.095,-0.871
17.07,-122.166,-0.928
17.1,-126.378,-0.928
17.13,-130.309,-0.825
17.17,-133.537,-0.619
17.2,-136.064,-0.481
17.23,-138.38,-0.504
17.26,-141.083,-0.676
17.3,-144.733,-0.905
17.33,-149.611,-1.203
17.36,-154.665,-1.088
17.39,-158.35,-0.63
17.43,-160.034,-0.115
17.46,-160.631,-0.08
17.49,-162.245,-0.584
17.52,-165.579,-0.905
17.56,-169.685,-0.928
17.59,-173.967,-0.951
17.62,-178.249,-0.939
17.65,-181.618,-0.607
17.69,-183.723,-0.298
17.72,-184.882,-0.206
17.75,-186.11,-0.309
17.78,-188.11,-0.527
17.82,-191.374,-0.894
17.85,-195.761,-1.042
17.88,-200.113,-0.905
17.91,-203.552,-0.619
17.95,-205.623,-0.367
17.98,-206.956,-0.195
18.01,-207.869,-0.16
18.04,-208.992,-0.286
18.08,-211.028,-0.596
18.11,-214.081,-0.756
18.14,-217.239,-0.653
18.17,-219.696,-0.435
18.21,-221.24,-0.252
18.24,-222.083,-0.126
18.27,-222.82,-0.149
18.3,-224.258,-0.401
18.34,-226.75,-0.687
18.37,-230.084,-0.813
18.4,-233.594,-0.756
18.43,-236.577,-0.573
18.47,-238.507,-0.286
18.5,-239.384,-0.115
18.53,-240.192,-0.172
18.56,-241.42,-0.367
18.6,-243.35,-0.447
18.63,-245.491,-0.515
18.66,-248.018,-0.573
18.69,-250.334,-0.47
18.73,-252.159,-0.309
18.76,-253.352,-0.218
18.79,-254.581,-0.298
18.82,-256.23,-0.424
18.86,-258.195,-0.47
18.89,-260.266,-0.435
18.92,-262.407,-0.504
18.95,-264.372,-0.389
18.99,-265.776,-0.229
19.02,-266.689,-0.137
19.05,-267.496,-0.195
19.08,-268.794,-0.344
19.12,-270.654,-0.481
19.15,-272.9,-0.515
19.18,-275.217,-0.481
19.21,-276.866,-0.298
19.25,-277.568,-0.034
19.28,-277.779,-0.034
19.31,-278.41,-0.218
19.34,-279.709,-0.332
19.38,-281.499,-0.458
19.41,-283.85,-0.573
19.44,-286.307,-0.527
19.47,-288.132,-0.309
19.51,-289.29,-0.149
19.54,-289.851,-0.115
19.57,-290.483,-0.126
19.6,-291.15,-0.16
19.64,-292.238,-0.309
19.67,-293.712,-0.344
19.7,-295.116,-0.309
19.73,-296.309,-0.195
19.77,-296.87,-0.069
19.8,-297.046,0.011
19.83,-296.906,0.069
19.86,-296.625,0.092
19.9,-297.046,-0.229
19.93,-298.169,-0.309
19.96,-299.117,-0.183
19.99,-299.818,-0.229
20.03,-300.696,-0.378
20.06,-301.292,-0.16
20.09,-301.152,-0.023
20.12,-301.187,-0.126
20.16,-301.363,-0.034
20.19,-301.398,-0.023
20.22,-301.608,-0.069
20.25,-301.819,-0.08
20.29,-301.608,0.08
20.32,-300.696,0.309
20.35,-299.187,0.401
20.38,-297.713,0.275
20.42,-297.256,-0.023
20.45,-297.783,-0.206
20.48,-298.485,-0.126
20.51,-298.485,0.103
20.55,-297.327,0.435
20.58,-294.8,0.664
20.61,-292.062,0.619
20.64,-290.062,0.298
20.68,-289.711,-0.115
20.71,-290.659,-0.321
20.74,-291.676,-0.149
20.77,-291.36,0.241
20.81,-289.114,0.733
20.84,-285.359,0.951
20.87,-281.464,0.836
20.9,-278.796,0.412
20.94,-277.989,-0.034
20.97,-278.551,-0.206
21.0,-279.147,-0.092
21.03,-278.937,0.172
21.07,-277.007,0.63
21.1,-273.532,0.939
21.13,-269.847,0.756
21.16,-267.32,0.389
21.2,-266.267,0.115
21.23,-266.057,0.0
21.26,-265.952,0.034
21.29,-265.25,0.275
21.33,-263.039,0.664
21.36,-259.319,1.008
21.39,-256.055,0.55
21.42,-254.616,0.092
21.46,-253.984,0.149
21.49,-252.931,0.321
21.52,-251.317,0.412
21.55,-249.316,0.47
21.59,-247.0,0.584
21.62,-244.298,0.619
21.65,-241.455,0.664
21.68,-239.384,0.332
21.72,-238.647,0.034
21.75,-238.332,0.08
21.78,-237.56,0.241
21.81,-236.296,0.321
21.85,-234.05,0.63
21.88,-230.681,0.894
21.91,-227.136,0.733
21.94,-224.609,0.424
21.98,-222.89,0.344
22.01,-221.486,0.298
22.04,-220.293,0.229
22.07,-218.994,0.321
22.11,-216.748,0.642
22.14,-213.449,0.859
22.17,-209.869,0.779
22.2,-206.641,0.664
22.24,-204.149,0.481
22.27,-202.464,0.286
22.3,-201.341,0.218
22.33,-199.937,0.355
22.37,-197.762,0.607
22.4,-194.533,0.825
22.43,-190.883,0.848
22.47,-187.303,0.756
22.5,-184.39,0.561
22.53,-182.39,0.344
22.56,-180.775,0.367
22.6,-178.529,0.607
22.63,-175.336,0.825
22.66,-171.545,0.894
22.69,-167.58,0.882
22.73,-163.789,0.813
22.76,-160.841,0.573
22.79,-158.806,0.344
22.82,-156.876,0.458
22.86,-154.279,0.687
22.89,-151.12,0.745
22.92,-147.54,0.825
22.95,-144.276,0.699
22.99,-141.96,0.332
23.02,-140.802,0.195
23.05,-139.363,0.378
23.08,-136.099,1.031
23.12,-130.975,1.283
23.15,-125.641,1.123
23.18,-121.008,0.951
23.21,-116.902,0.894
23.25,-113.112,0.802
23.28,-110.129,0.584
23.31,-107.532,0.538
23.34,-104.689,0.733
23.38,-101.039,0.882
23.41,-96.898,0.974
23.44,-92.406,1.031
23.47,-87.914,0.974
23.51,-83.842,0.836
23.54,-80.228,0.756
23.57,-76.683,0.813
23.6,-74.191,0.401
23.64,-74.437,-0.447
23.67,-75.946,-0.321
23.7,-75.314,0.515
23.73,-71.735,1.1
23.77,-65.909,1.489
23.8,-58.82,1.684
23.83,-51.906,1.455
23.86,-46.255,1.111
23.9,-41.342,1.031
23.93,-36.569,1.088
23.96,-31.691,1.111
23.99,-26.743,1.088
24.03,-22.145,0.997
24.06,-18.039,0.836
24.09,-14.705,0.653
24.12,-11.792,0.63
24.16,-8.458,0.836
24.19,-4.422,0.962
24.22,-0.702,0.756
24.25,2.036,0.493
24.29,4.071,0.401
24.32,5.896,0.412
24.35,7.932,0.481
24.38,10.599,0.687
24.42,14.108,0.859
24.45,18.004,0.894
24.48,21.935,0.905
24.51,25.935,0.882
24.55,29.831,0.859
24.58,33.832,0.916
24.61,37.833,0.916
24.64,41.869,0.871
24.68,46.291,1.088
24.71,51.66,1.283
24.74,56.538,0.951
24.77,59.872,0.55
24.81,62.434,0.573
24.84,65.417,0.722
24.87,68.471,0.687
24.9,71.454,0.664
24.94,74.788,0.768
24.97,78.157,0.745
25.0,81.07,0.596
25.03,83.667,0.573
25.07,86.931,0.859
25.1,91.072,1.008
25.13,95.248,0.905
25.16,99.144,0.836
25.2,103.004,0.882
25.23,106.514,0.71
25.26,109.286,0.493
25.29,111.848,0.63
25.33,115.428,0.962
25.36,119.991,1.077
25.39,124.483,0.939
25.42,128.378,0.802
25.46,131.958,0.779
25.49,134.976,0.63
25.52,137.187,0.367
25.55,139.293,0.538
25.59,142.662,0.939
25.62,147.049,1.042
25.65,151.436,0.951
25.68,155.402,0.836
25.72,158.104,0.458
25.75,158.876,-0.103
25.78,158.525,-0.103
25.81,159.508,0.481
25.85,162.982,1.077
25.88,168.141,1.26
25.91,173.616,1.18
25.94,178.284,0.939
25.98,181.723,0.63
26.01,183.653,0.275
26.04,184.531,0.103
26.07,185.619,0.355
26.11,188.321,0.825
26.14,192.497,1.077
26.17,197.235,1.042
26.2,201.341,0.836
26.24,204.5,0.573
26.27,206.255,0.252
26.3,207.202,0.16
26.33,205.412,-0.768
26.37,196.779,-2.887
26.4,184.32,-2.875
26.43,177.722,-0.367
26.46,180.846,1.718
26.5,190.041,2.474
26.53,200.253,2.234
26.56,209.097,1.73
26.59,216.292,1.489
26.63,221.872,1.042
26.66,226.224,0.859
26.69,230.33,0.951
26.72,234.12,0.802
26.76,237.173,0.584
26.79,239.139,0.344
26.82,240.016,0.057
26.85,240.437,0.115
26.89,241.666,0.401
26.92,243.982,0.664
26.95,247.07,0.71
26.98,250.089,0.642
27.02,252.861,0.619
27.05,254.861,0.321
27.08,255.423,-0.069
27.11,255.212,-0.046
27.15,255.002,-0.069
27.18,255.177,0.126
27.21,256.792,0.607
27.24,260.126,0.905
27.28,263.67,0.722
27.31,266.162,0.412
27.34,267.531,0.195
27.37,268.338,0.16
27.41,269.531,0.367
27.44,271.567,0.55
27.47,273.988,0.573
27.5,276.34,0.493
27.54,277.884,0.229
27.57,278.445,0.023
27.6,278.656,0.069
27.63,279.288,0.183
27.67,280.305,0.321
27.7,281.85,0.389
27.73,283.675,0.412
27.76,285.5,0.424
27.8,287.184,0.321
27.83,288.202,0.149
27.86,288.763,0.115
27.89,289.43,0.172
27.93,290.378,0.229
27.96,291.606,0.332
27.99,293.185,0.412
28.02,294.975,0.412
28.06,296.484,0.309
28.09,297.502,0.149
28.12,297.958,0.092
28.15,298.134,0.0
28.19,297.678,-0.16
28.22,297.186,-0.08
28.25,297.537,0.229
28.28,298.45,0.206
28.32,298.906,0.011
28.35,298.941,0.034
28.38,299.046,0.057
28.41,299.011,-0.08
28.45,298.45,-0.149
28.48,298.45,0.149
28.51,299.327,0.298
28.54,300.134,0.092
28.58,300.485,0.069
28.61,300.801,0.103
28.64,300.871,-0.046
28.67,300.169,-0.241
28.71,298.976,-0.321
28.74,298.029,-0.08
28.77,298.274,0.172
28.8,298.941,0.16
28.84,299.152,-0.034
28.87,298.309,-0.309
28.9,296.239,-0.584
28.93,293.501,-0.653
28.97,291.08,-0.435
29.0,289.992,-0.08
29.03,290.167,0.195
29.06,290.764,0.126
29.1,290.659,-0.126
29.13,289.255,-0.481
29.16,286.307,-0.768
29.19,282.832,-0.79
29.23,279.884,-0.504
29.26,278.691,-0.046
29.29,278.972,0.206
29.32,279.639,0.126
29.36,279.639,-0.092
29.39,278.445,-0.389
29.42,275.813,-0.722
29.45,272.479,-0.79
29.49,269.461,-0.55
29.52,267.636,-0.252
29.55,266.689,-0.137
29.58,266.127,-0.08
29.62,265.671,-0.103
29.65,264.758,-0.286
29.68,262.828,-0.561
29.71,260.126,-0.653
29.75,257.599,-0.481
29.78,255.739,-0.355
29.81,253.914,-0.424
29.85,252.194,-0.344
29.88,250.861,-0.229
29.91,249.422,-0.355
29.94,247.141,-0.619
29.98,244.368,-0.607
30.01,242.613,-0.195
30.04,241.771,-0.115
30.07,240.648,-0.332
30.11,238.823,-0.447
30.14,236.823,-0.424
30.17,234.331,-0.653
30.2,230.611,-0.928
30.24,226.891,-0.779
30.27,224.258,-0.401
30.3,222.784,-0.218
30.33,221.837,-0.206
30.37,220.749,-0.218
30.4,219.415,-0.355
30.43,217.134,-0.607
30.46,213.554,-0.962
30.5,209.729,-0.756
30.53,207.483,-0.252
30.56,206.255,-0.229
30.59,204.851,-0.367
30.63,203.166,-0.378
30.66,201.938,-0.172
30.69,200.253,-0.47
30.72,197.025,-0.951
30.76,192.848,-0.916
30.79,189.304,-0.653
30.82,186.707,-0.493
30.85,184.706,-0.355
30.89,183.022,-0.389
30.92,180.705,-0.596
30.95,177.406,-0.859
30.98,173.827,-0.733
31.02,169.615,-1.042
31.05,164.737,-1.146
31.08,160.806,-0.619
31.11,158.806,-0.309
31.15,157.332,-0.286
31.18,155.682,-0.401
31.21,153.191,-0.653
31.24,149.646,-0.905
31.28,145.294,-1.031
31.31,141.013,-0.905
31.34,137.643,-0.607
31.37,135.187,-0.447
31.41,133.081,-0.481
31.44,130.554,-0.584
31.47,127.641,-0.699
31.5,124.026,-0.859
31.54,120.026,-0.928
31.57,115.919,-0.871
31.6,112.445,-0.687
31.63,109.637,-0.527
31.67,107.005,-0.63
31.7,103.601,-0.836
31.73,99.495,-0.997
31.76,94.582,-1.157
31.8,89.423,-1.146
31.83,84.685,-0.985
31.86,80.754,-0.722
31.89,77.982,-0.504
31.93,75.63,-0.504
31.96,72.963,-0.63
31.99,69.699,-0.813
32.02,65.768,-0.928
32.06,61.592,-0.916
32.09,57.661,-0.825
32.12,54.292,-0.664
32.15,51.59,-0.55
32.19,48.993,-0.573
32.22,46.045,-0.722
32.25,42.535,-0.836
32.28,38.745,-0.859
32.32,34.85,-0.848
32.35,31.129,-0.825
32.38,27.374,-0.813
32.41,23.724,-0.79
32.45,20.11,-0.768
32.48,16.425,-0.848
32.51,12.389,-0.939
32.54,7.967,-1.008
32.58,3.404,-1.008
32.61,-0.983,-0.928
32.64,-4.878,-0.779
32.67,-8.177,-0.676
32.71,-11.23,-0.664
32.74,-14.178,-0.642
32.77,-17.372,-0.722
32.8,-20.917,-0.836
32.84,-24.742,-0.871
32.87,-28.708,-0.882
32.9,-32.603,-0.813
32.93,-35.938,-0.699
32.97,-38.605,-0.47
33.0,-40.921,-0.504
33.03,-43.939,-0.779
33.06,-47.87,-0.951
33.1,-52.187,-0.962
33.13,-56.503,-0.916
33.16,-60.504,-0.859
33.19,-64.259,-0.79
33.23,-67.769,-0.756
33.26,-71.208,-0.745
33.29,-74.612,-0.745
33.32,-78.087,-0.756
33.36,-81.526,-0.768
33.39,-85.141,-0.836
33.42,-89.072,-0.905
33.45,-93.143,-0.894
33.49,-97.003,-0.813
33.52,-100.443,-0.745
33.55,-103.741,-0.699
33.58,-106.9,-0.676
33.62,-109.953,-0.664
33.65,-113.112,-0.699
33.68,-116.411,-0.779
33.71,-120.166,-0.836
33.75,-123.991,-0.859
33.78,-127.747,-0.825
33.81,-131.046,-0.664
33.84,-133.713,-0.504
33.88,-136.555,-0.676
33.91,-139.784,-0.745
33.94,-143.364,-0.813
33.97,-147.295,-0.928
34.01,-151.26,-0.836
34.04,-155.016,-0.813
34.07,-157.964,-0.55
34.1,-159.543,-0.126
34.14,-161.157,-0.493
34.17,-164.035,-0.756
34.2,-167.369,-0.733
34.23,-170.703,-0.722
34.27,-174.318,-0.848
34.3,-177.933,-0.779
34.33,-180.951,-0.561
34.36,-183.267,-0.447
34.4,-185.373,-0.458
34.43,-187.619,-0.515
34.46,-190.567,-0.745
34.49,-194.498,-0.962
34.53,-198.674,-0.905
34.56,-202.113,-0.653
34.59,-204.535,-0.412
34.62,-206.079,-0.252
34.66,-207.167,-0.195
34.69,-208.325,-0.252
34.72,-209.94,-0.458
34.75,-212.572,-0.687
34.79,-215.695,-0.676
34.82,-218.327,-0.504
34.85,-220.293,-0.344
34.88,-221.556,-0.206
34.92,-222.433,-0.172
34.95,-223.662,-0.321
34.98,-225.697,-0.573
35.01,-228.61,-0.71
35.05,-231.909,-0.745
35.08,-235.103,-0.676
35.11,-237.77,-0.493
35.14,-239.56,-0.309
35.18,-240.648,-0.172
35.21,-241.701,-0.263
35.24,-243.21,-0.378
35.27,-244.719,-0.263
35.31,-246.684,-0.561
35.34,-249.492,-0.71
35.37,-251.878,-0.389
35.4,-252.475,0.103
35.44,-252.615,-0.069
35.47,-254.405,-0.687
35.5,-257.213,-0.607
35.53,-259.634,-0.435
35.57,-261.67,-0.458
35.6,-263.67,-0.412
35.63,-265.215,-0.286
35.66,-266.408,-0.206
35.7,-267.39,-0.218
35.73,-268.513,-0.252
35.76,-269.952,-0.355
35.79,-271.777,-0.435
35.83,-273.743,-0.424
35.86,-275.568,-0.367
35.89,-276.796,-0.195
35.92,-277.357,-0.034
35.96,-277.779,-0.115
35.99,-278.656,-0.252
36.02,-280.095,-0.378
36.05,-282.166,-0.504
36.09,-284.587,-0.584
36.12,-286.868,-0.458
36.15,-288.448,-0.229
36.18,-289.29,-0.137
36.22,-289.992,-0.126
36.25,-290.553,-0.126
36.28,-291.36,-0.218
36.31,-292.694,-0.344
36.35,-294.133,-0.332
36.38,-295.537,-0.252
36.41,-296.449,-0.137
36.44,-296.941,-0.08
36.48,-297.256,-0.057
36.51,-297.292,0.046
36.54,-297.256,0.011
36.57,-297.818,-0.218
36.61,-298.66,-0.206
36.64,-299.117,-0.126
36.67,-299.397,-0.137
36.7,-300.169,-0.321
36.74,-300.415,-0.023
36.77,-299.397,0.321
36.8,-298.73,0.034
36.83,-299.678,-0.447
36.87,-300.871,-0.183
36.9,-300.977,0.023
36.93,-300.871,-0.069
36.96,-300.696,0.103
37.0,-299.608,0.355
37.03,-298.064,0.367
37.06,-297.151,0.08
37.09,-297.572,-0.218
37.13,-298.625,-0.241
37.16,-299.081,-0.023
37.19,-298.415,0.298
37.22,-296.344,0.63
37.26,-293.431,0.71
37.29,-290.834,0.481
37.32,-289.746,0.069
37.36,-290.273,-0.309
37.39,-291.571,-0.298
37.42,-291.992,0.069
37.45,-290.623,0.538
37.49,-287.36,0.916
37.52,-283.289,0.939
37.55,-279.884,0.619
37.58,-278.375,0.103
37.62,-278.656,-0.218
37.65,-279.463,-0.183
37.68,-279.639,0.08
37.71,-278.445,0.447
37.75,-275.533,0.848
37.78,-271.883,0.859
37.81,-269.005,0.481
37.84,-267.636,0.126
37.88,-267.32,0.011
37.91,-267.215,0.034
37.94,-266.689,0.172
37.97,-265.109,0.504
38.01,-262.126,0.825
38.04,-258.617,0.779
38.07,-255.879,0.47
38.1,-254.51,0.172
38.14,-254.019,0.034
38.17,-253.493,0.183
38.2,-252.229,0.378
38.23,-250.018,0.596
38.27,-246.965,0.768
38.3,-243.771,0.687
38.33,-241.385,0.389
38.36,-240.297,0.149
38.4,-239.174,0.321
38.43,-237.84,0.298
38.46,-236.893,0.126
38.49,-235.524,0.424
38.53,-232.576,0.894
38.56,-228.786,0.882
38.59,-225.557,0.596
38.62,-223.135,0.47
38.66,-221.346,0.344
38.69,-220.082,0.206
38.72,-219.029,0.252
38.75,-217.239,0.504
38.79,-214.326,0.802
38.82,-210.712,0.836
38.85,-207.413,0.664
38.88,-204.921,0.458
38.92,-203.412,0.241
38.95,-202.394,0.172
38.98,-201.236,0.321
39.01,-199.236,0.607
39.05,-195.937,0.859
39.08,-192.076,0.894
39.11,-188.391,0.779
39.14,-185.373,0.584
39.18,-183.443,0.309
39.21,-182.144,0.241
39.24,-180.495,0.47
39.27,-177.652,0.756
39.31,-173.932,0.928
39.34,-169.756,0.939
39.37,-165.79,0.859
39.4,-162.386,0.687
39.44,-160.42,0.229
39.47,-159.087,0.298
39.5,-156.174,0.974
39.53,-152.243,0.871
39.57,-148.453,0.802
39.6,-145.329,0.642
39.63,-142.732,0.493
39.66,-140.381,0.561
39.7,-138.065,0.493
39.73,-135.503,0.619
39.76,-132.449,0.756
39.79,-128.87,0.848
39.83,-125.009,0.894
39.86,-120.903,0.916
39.89,-116.937,0.848
39.92,-113.498,0.71
39.96,-110.585,0.584
39.99,-107.672,0.699
40.02,-104.022,0.882
40.05,-99.846,0.997
40.09,-95.178,1.077
40.12,-90.265,1.123
40.15,-85.667,0.974
40.18,-81.877,0.71
40.22,-78.929,0.596
40.25,-76.508,0.504
40.28,-74.261,0.481
40.31,-71.629,0.664
40.35,-67.979,0.962
40.38,-63.487,1.065
40.41,-58.82,1.008
40.44,-54.608,0.916
40.48,-50.713,0.825
40.51,-47.028,0.836
40.54,-43.167,0.871
40.57,-39.342,0.848
40.61,-35.622,0.825
40.64,-32.077,0.756
40.67,-28.638,0.733
40.7,-25.233,0.802
40.74,-21.478,0.882
40.77,-17.618,0.848
40.8,-14.214,0.71
40.83,-11.16,0.664
40.87,-7.861,0.779
40.9,-4.071,0.905
40.93,-0.07,0.905
40.96,3.79,0.836
41.0,7.475,0.825
41.03,10.915,0.722
41.06,13.687,0.561
41.09,16.495,0.653
41.13,19.934,0.882
41.16,23.97,0.928
41.19,27.971,0.882
41.22,32.007,0.905
41.26,36.183,0.974
41.29,40.324,0.894
41.32,43.904,0.722
41.35,46.957,0.63
41.39,49.835,0.653
41.42,52.924,0.71
41.45,56.117,0.71
41.48,59.346,0.733
41.52,62.75,0.779
41.55,66.295,0.802
41.58,69.629,0.687
41.61,72.717,0.71
41.65,76.192,0.825
41.68,79.771,0.802
41.71,83.141,0.733
41.74,86.826,0.882
41.78,90.967,0.985
41.81,95.143,0.894
41.84,98.898,0.802
41.87,102.478,0.779
41.91,105.882,0.768
41.94,109.427,0.779
41.97,112.796,0.733
42.0,116.235,0.813
42.04,120.026,0.882
42.07,123.851,0.825
42.1,127.325,0.756
42.13,130.624,0.733
42.17,133.818,0.699
42.2,137.012,0.71
42.23,140.205,0.71
42.26,143.399,0.71
42.3,146.242,0.596
42.33,148.769,0.538
42.36,151.576,0.722
42.39,154.524,0.63
42.43,157.437,0.676
42.46,160.526,0.699
42.49,164.0,0.836
42.52,167.615,0.813
42.56,171.159,0.756
42.59,174.493,0.733
42.62,177.371,0.561
42.65,179.688,0.458
42.69,181.898,0.515
42.72,184.25,0.538
42.75,186.707,0.561
42.78,189.549,0.687
42.82,192.918,0.836
42.85,196.533,0.813
42.88,199.516,0.573
42.91,200.815,0.08
42.95,199.937,-0.458
42.98,197.937,-0.458
43.01,197.621,0.218
43.04,200.359,0.962
43.08,205.447,1.329
43.11,211.273,1.352
43.14,216.783,1.134
43.17,220.819,0.745
43.21,223.1,0.286
43.24,224.223,0.195
43.27,225.732,0.447
43.3,228.47,0.756
43.34,232.014,0.859
43.37,235.629,0.779
43.4,238.788,0.653
43.43,240.823,0.332
43.47,241.104,-0.16
43.5,240.262,-0.263
43.53,239.735,0.034
43.56,240.894,0.47
43.6,243.701,0.802
43.63,246.719,0.607
43.66,249.176,0.47
43.69,251.176,0.447
43.73,252.896,0.332
43.76,253.598,0.034
43.79,253.914,0.08
43.82,255.423,0.561
43.86,258.055,0.664
43.89,260.547,0.481
43.92,262.582,0.447
43.95,264.478,0.424
43.99,265.706,0.172
44.02,266.373,0.115
44.05,267.355,0.332
44.08,269.11,0.47
44.12,271.251,0.493
44.15,273.427,0.493
44.18,275.673,0.504
44.21,277.357,0.321
44.25,278.094,0.034
44.28,278.445,0.103
44.31,279.288,0.275
44.34,280.586,0.321
44.38,282.13,0.378
44.41,284.061,0.493
44.44,286.201,0.481
44.47,287.956,0.321
44.51,289.079,0.172
44.54,289.851,0.183
44.57,290.764,0.206
44.6,291.747,0.229
44.64,292.94,0.309
44.67,294.414,0.355
44.7,295.782,0.298
44.73,296.8,0.183
44.77,297.397,0.103
44.8,297.678,0.046
44.83,297.643,-0.057
44.87,297.572,0.023
44.9,298.064,0.229
44.93,299.117,0.275
44.96,299.959,0.115
45.0,300.45,0.103
45.03,300.941,0.149
45.06,301.714,0.206
45.09,302.38,0.103
45.13,302.521,-0.023
45.16,302.415,-0.023
45.19,303.152,0.332
45.22,303.714,0.046
45.26,303.188,-0.149
45.29,301.959,-0.332
45.32,300.661,-0.263
45.35,299.713,-0.126
45.39,298.73,-0.263
45.42,298.309,0.046
45.45,298.906,0.275
45.48,299.432,0.023
45.52,298.52,-0.367
45.55,296.414,-0.55
45.58,293.922,-0.584
45.61,291.466,-0.515
45.65,289.746,-0.252
45.68,289.641,0.183
45.71,290.448,0.252
45.74,290.764,-0.069
45.78,289.5,-0.435
45.81,287.044,-0.653
45.84,283.92,-0.699
45.87,281.007,-0.607
45.91,279.077,-0.298
45.94,278.691,0.103
45.97,279.112,0.16
46.0,279.288,-0.057
46.04,278.305,-0.332
46.07,276.164,-0.596
46.1,273.181,-0.722
46.13,270.198,-0.607
46.17,268.057,-0.332
46.2,266.899,-0.149
46.23,266.302,-0.103
46.26,265.565,-0.183
46.3,264.197,-0.389
46.33,261.88,-0.619
46.36,258.968,-0.664
46.39,256.3,-0.55
46.43,254.23,-0.344
46.46,252.65,-0.355
46.49,251.141,-0.286
46.52,250.159,-0.137
46.56,248.895,-0.367
46.59,246.684,-0.607
46.62,244.122,-0.55
46.65,241.876,-0.447
46.69,239.806,-0.447
46.72,238.016,-0.332
46.75,236.928,-0.149
46.78,235.489,-0.424
46.82,233.488,-0.458
46.85,231.313,-0.47
46.88,228.996,-0.55
46.91,227.171,-0.309
46.95,225.943,-0.206
46.98,224.644,-0.332
47.01,223.03,-0.389
47.04,221.275,-0.367
47.08,219.064,-0.584
47.11,215.8,-0.848
47.14,212.045,-0.836
47.17,208.711,-0.642
47.21,206.29,-0.424
47.24,204.781,-0.229
47.27,203.798,-0.183
47.3,202.429,-0.355
47.34,200.183,-0.607
47.37,196.954,-0.825
47.4,193.059,-0.871
47.43,189.339,-0.779
47.47,186.215,-0.619
47.5,184.004,-0.344
47.53,182.565,-0.252
47.56,180.951,-0.424
47.6,178.284,-0.722
47.63,174.704,-0.848
47.66,170.879,-0.859
47.69,167.053,-0.836
47.73,163.754,-0.653
47.76,161.578,-0.332
47.79,160.034,-0.298
47.82,157.964,-0.561
47.86,154.454,-0.962
47.89,150.243,-0.939
47.92,145.926,-0.928
47.95,141.679,-0.997
47.99,138.38,-0.504
48.02,136.836,-0.149
48.05,135.783,-0.218
48.08,133.994,-0.515
48.12,130.975,-0.779
48.15,127.01,-0.939
48.18,122.658,-0.985
48.21,118.236,-0.951
48.25,114.305,-0.779
48.28,111.252,-0.573
48.31,108.69,-0.515
48.34,105.707,-0.745
48.38,101.846,-0.962
48.41,97.284,-1.054
48.44,92.336,-1.111
48.47,87.282,-1.088
48.51,82.755,-0.939
48.54,79.175,-0.664
48.57,76.367,-0.527
48.6,73.77,-0.596
48.64,70.717,-0.71
48.67,67.348,-0.79
48.7,63.557,-0.836
48.73,59.872,-0.813
48.77,56.293,-0.768
48.8,53.099,-0.642
48.83,50.221,-0.596
48.86,47.203,-0.687
48.9,43.553,-0.905
48.93,39.272,-0.985
48.96,34.779,-1.02
48.99,30.182,-0.985
49.03,26.041,-0.882
49.06,22.391,-0.722
49.09,19.337,-0.607
49.12,16.74,-0.527
49.16,14.073,-0.607
49.19,10.809,-0.79
49.22,6.844,-0.951
49.25,2.386,-0.997
49.29,-1.895,-0.905
49.32,-5.65,-0.722
49.35,-8.704,-0.63
49.38,-11.757,-0.676
49.42,-14.951,-0.722
49.45,-18.495,-0.825
49.48,-22.426,-0.894
49.51,-26.532,-0.939
49.55,-30.884,-0.951
49.58,-35.025,-0.882
49.61,-38.394,-0.619
49.64,-40.64,-0.355
49.68,-42.746,-0.527
49.71,-45.834,-0.79
49.74,-49.695,-0.916
49.77,-53.836,-0.939
49.81,-58.153,-0.951
49.84,-62.259,-0.871
49.87,-65.944,-0.756
49.9,-69.348,-0.733
49.94,-72.858,-0.768
49.97,-76.367,-0.79
50.0,-79.947,-0.779
50.03,-83.421,-0.733
50.07,-86.931,-0.79
50.1,-90.756,-0.859
50.13,-94.617,-0.848
50.16,-98.407,-0.813
50.2,-102.057,-0.79
50.23,-105.391,-0.687
50.26,-108.304,-0.573
50.29,-110.971,-0.584
50.33,-114.095,-0.756
50.36,-117.815,-0.882
50.39,-121.78,-0.894
50.42,-125.781,-0.882
50.46,-129.642,-0.813
50.49,-132.8,-0.619
50.52,-135.397,-0.515
50.55,-137.924,-0.561
50.59,-140.872,-0.71
50.62,-144.557,-0.882
50.65,-149.155,-1.168
50.68,-153.998,-1.031
50.72,-157.437,-0.527
50.75,-158.665,-0.034
50.78,-159.613,-0.241
50.81,-162.21,-0.871
50.85,-166.246,-0.951
50.88,-170.422,-0.894
50.91,-174.564,-0.928
50.94,-178.494,-0.836
50.98,-181.372,-0.458
51.01,-182.881,-0.218
51.04,-184.004,-0.229
51.07,-185.443,-0.389
51.11,-187.724,-0.596
51.14,-191.234,-0.928
51.17,-195.656,-1.042
51.2,-199.973,-0.882
51.24,-203.236,-0.573
51.27,-205.272,-0.332
51.3,-206.57,-0.195
51.33,-207.588,-0.218
51.37,-208.922,-0.355
51.4,-211.098,-0.584
51.43,-213.976,-0.699
51.46,-216.924,-0.607
51.5,-219.205,-0.435
51.53,-220.924,-0.298
51.56,-222.012,-0.195
51.59,-223.065,-0.206
51.63,-224.539,-0.401
51.66,-226.926,-0.653
51.69,-230.049,-0.745
51.72,-233.243,-0.687
51.76,-235.875,-0.458
51.79,-237.384,-0.195
51.82,-238.051,-0.103
51.85,-238.963,-0.241
51.89,-240.648,-0.481
51.92,-243.034,-0.55
51.95,-245.877,-0.676
51.98,-248.72,-0.607
52.02,-250.931,-0.378
52.05,-252.124,-0.16
52.08,-252.791,-0.08
52.11,-253.914,-0.389
52.15,-255.949,-0.515
52.18,-258.266,-0.504
52.21,-260.582,-0.493
52.25,-263.004,-0.561
52.28,-265.25,-0.435
52.31,-266.724,-0.218
52.34,-267.496,-0.126
52.38,-268.233,-0.172
52.41,-269.18,-0.218
52.44,-270.549,-0.355
52.47,-272.409,-0.458
52.51,-274.445,-0.458
52.54,-276.234,-0.332
52.57,-277.147,-0.115
52.6,-277.603,-0.057
52.64,-278.165,-0.183
52.67,-279.253,-0.298
52.7,-281.007,-0.435
52.73,-283.253,-0.561
52.77,-285.675,-0.527
52.8,-287.535,-0.344
52.83,-288.799,-0.183
52.86,-289.606,-0.137
52.9,-290.273,-0.149
52.93,-291.045,-0.172
52.96,-292.203,-0.309
52.99,-293.642,-0.344
53.03,-295.045,-0.298
53.06,-296.133,-0.195
53.09,-296.8,-0.092
53.12,-297.011,-0.023
53.16,-296.906,0.057
53.19,-296.73,0.069
53.22,-297.116,-0.195
53.25,-298.064,-0.263
53.29,-298.906,-0.206
53.32,-299.257,-0.172
53.35,-300.064,-0.309
53.38,-300.801,-0.263
53.42,-300.661,0.08
53.45,-300.345,-0.034
53.48,-300.977,-0.263
53.51,-301.784,-0.183
53.55,-301.959,-0.046
53.58,-302.135,-0.115
53.61,-302.029,0.0
53.64,-301.222,0.309
53.68,-299.362,0.515
53.71,-297.572,0.344
53.74,-297.011,-0.057
53.77,-297.783,-0.263
53.81,-298.695,-0.183
53.84,-298.976,0.057
53.87,-297.818,0.424
53.9,-295.361,0.676
53.94,-292.484,0.642
53.97,-290.378,0.355
54.0,-289.746,-0.046
54.03,-290.448,-0.241
54.07,-291.15,-0.103
54.1,-290.729,0.252
54.13,-288.623,0.664
54.16,-285.289,0.871
54.2,-281.709,0.756
54.23,-279.288,0.378
54.26,-278.726,-0.069
54.29,-279.288,-0.229
54.33,-279.919,-0.08
54.36,-279.568,0.206
54.39,-277.708,0.607
54.42,-274.445,0.894
54.46,-270.865,0.756
54.49,-268.338,0.412
54.52,-267.11,0.137
54.55,-266.653,0.069
54.59,-266.232,0.103
54.62,-265.32,0.286
54.65,-263.249,0.63
54.68,-259.915,0.871
54.72,-257.002,0.515
54.75,-255.353,0.206
54.78,-254.265,0.241
54.81,-253.142,0.252
54.85,-251.808,0.367
54.88,-249.913,0.481
54.91,-247.491,0.607
54.94,-244.789,0.619
54.98,-242.438,0.435
55.01,-241.034,0.218
55.04,-239.946,0.218
55.07,-238.612,0.389
55.11,-236.752,0.424
55.14,-234.471,0.573
55.17,-231.664,0.699
55.2,-228.54,0.687
55.24,-225.241,0.779
55.27,-222.89,0.344
55.3,-222.293,-0.103
55.33,-222.398,0.023
55.37,-221.556,0.332
55.4,-219.661,0.55
55.43,-216.502,0.848
55.46,-212.361,1.008
55.5,-208.571,0.756
55.53,-205.904,0.458
55.56,-204.324,0.252
55.59,-203.377,0.149
55.63,-202.499,0.229
55.66,-200.85,0.481
55.69,-197.832,0.802
55.72,-194.006,0.951
55.76,-189.83,0.894
55.79,-186.285,0.71
55.82,-183.829,0.424
55.85,-182.39,0.206
55.89,-181.232,0.286
55.92,-179.126,0.607
55.95,-175.792,0.905
55.98,-171.721,0.939
56.02,-167.755,0.859
56.05,-164.175,0.745
56.08,-161.473,0.47
56.11,-160.034,0.195
56.15,-158.63,0.378
56.18,-156.209,0.699
56.21,-152.419,0.974
56.24,-147.961,1.042
56.28,-144.066,0.733
56.31,-140.942,0.653
56.34,-138.696,0.389
56.37,-137.187,0.286
56.41,-134.976,0.63
56.44,-131.537,0.916
56.47,-127.22,1.008
56.5,-122.552,1.065
56.54,-117.92,1.02
56.57,-113.814,0.836
56.6,-110.725,0.55
56.63,-108.479,0.424
56.67,-106.093,0.596
56.7,-102.899,0.859
56.73,-98.582,1.065
56.76,-93.634,1.134
56.8,-88.615,1.123
56.83,-84.018,0.962
56.86,-79.947,0.848
56.89,-76.508,0.71
56.93,-73.419,0.653
56.96,-70.541,0.63
56.99,-67.488,0.71
57.02,-64.189,0.745
57.06,-60.645,0.825
57.09,-56.889,0.871
57.12,-53.064,0.836
57.15,-49.344,0.848
57.19,-45.448,0.894
57.22,-41.553,0.871
57.25,-37.552,0.894
57.28,-33.411,0.939
57.32,-29.48,0.848
57.35,-25.97,0.699
57.38,-22.917,0.653
57.41,-19.899,0.699
57.45,-16.74,0.699
57.48,-13.757,0.619
57.51,-10.915,0.664
57.54,-7.475,0.848
57.58,-3.404,0.974
57.61,0.807,0.939
57.64,4.878,0.871
57.67,8.458,0.745
57.71,11.511,0.642
57.74,14.459,0.642
57.77,17.653,0.768
57.8,21.233,0.848
57.84,24.637,0.699
57.87,28.217,0.836
57.9,32.463,1.042
57.93,36.99,0.985
57.97,40.956,0.825
58.0,44.431,0.733
58.03,47.659,0.71
58.06,50.713,0.687
58.1,53.871,0.722
58.13,57.205,0.768
58.16,60.82,0.825
58.19,64.54,0.859
58.23,68.295,0.813
58.26,71.7,0.722
58.29,75.069,0.756
58.32,78.473,0.779
58.36,81.912,0.733
58.39,85.316,0.768
58.42,89.072,0.905
58.45,93.108,0.939
58.49,97.214,0.905
58.52,101.109,0.848
58.55,104.794,0.802
58.58,108.199,0.733
58.62,111.533,0.722
58.65,114.761,0.733
58.68,118.271,0.802
58.71,121.78,0.802
58.75,125.255,0.756
58.78,128.694,0.802
58.81,132.063,0.71
58.84,134.941,0.596
58.88,137.573,0.596
58.91,140.381,0.653
58.94,143.259,0.653
58.97,146.277,0.664
59.01,149.786,0.894
59.04,153.752,0.916
59.07,157.437,0.756
59.1,160.385,0.596
59.14,163.123,0.607
59.17,165.93,0.642
59.2,168.703,0.63
59.23,171.791,0.722
59.27,175.055,0.768
59.3,178.284,0.687
59.33,181.056,0.584
59.36,183.478,0.504
59.4,185.689,0.458
59.43,188.04,0.584
59.46,191.023,0.756
59.49,194.778,0.882
59.53,198.569,0.848
59.56,201.833,0.63
59.59,203.693,0.241
59.62,204.079,-0.046
59.66,204.289,0.08
59.69,205.623,0.493
59.72,208.711,0.859
59.76,212.747,0.985
59.79,216.994,0.905
59.82,220.538,0.71
59.85,222.925,0.401
59.89,224.083,0.126
59.92,224.855,0.195
59.95,226.364,0.458
59.98,228.926,0.676
60.02,231.769,0.642
60.05,234.261,0.481
60.08,236.015,0.332
60.11,237.068,0.16
60.15,237.068,-0.126
60.18,237.524,0.252
60.21,239.876,0.779
60.24,242.964,0.664
60.28,245.667,0.561
60.31,247.632,0.378
60.34,249.422,0.378
60.37,251.106,0.389
60.41,252.791,0.378
60.44,253.668,0.057
60.47,254.44,0.229
60.5,256.546,0.699
60.54,259.564,0.699
60.57,262.091,0.458
60.6,264.091,0.424
60.63,265.671,0.321
60.67,266.618,0.115
60.7,267.285,0.172
60.73,268.619,0.412
60.76,270.584,0.493
60.8,272.725,0.493
60.83,274.866,0.47
60.86,276.796,0.412
60.89,277.849,0.103
60.93,278.024,-0.023
60.96,278.445,0.172
60.99,279.498,0.321
61.02,281.007,0.367
61.06,282.903,0.47
61.09,285.114,0.55
61.12,287.289,0.47
61.15,288.834,0.252
61.19,289.746,0.149
61.22,290.448,0.172
61.25,291.255,0.195
61.28,292.238,0.241
61.32,293.466,0.321
61.35,294.87,0.332
61.38,296.098,0.241
61.41,296.906,0.137
61.45,297.327,0.08
61.48,297.432,0.0
61.51,297.221,-0.08
61.54,297.081,0.023
61.58,297.783,0.286
61.61,298.801,0.218
61.64,299.538,0.103
61.67,300.064,0.115
61.71,300.836,0.241
61.74,301.573,0.172
61.77,301.468,-0.195
61.8,301.292,0.034
61.84,302.065,0.367
61.87,302.942,0.103
61.9,302.872,-0.115
61.93,302.486,-0.069
61.97,301.608,-0.263
62.0,299.889,-0.481
62.03,297.923,-0.412
62.06,296.976,-0.023
62.1,297.502,0.252
62.13,298.45,0.206
62.16,298.73,-0.046
62.19,297.748,-0.367
62.23,295.396,-0.63
62.26,292.624,-0.619
62.29,290.378,-0.424
62.32,289.22,-0.092
62.36,289.43,0.183
62.39,289.992,0.149
62.42,289.957,-0.115
62.45,288.693,-0.447
62.49,286.096,-0.687
62.52,282.832,-0.745
62.55,279.884,-0.561
62.58,278.34,-0.149
62.62,278.305,0.16
62.65,278.796,0.115
62.68,278.656,-0.115
62.71,277.357,-0.424
62.75,274.725,-0.722
62.78,271.356,-0.779
62.81,268.443,-0.55
62.84,266.653,-0.241
62.88,265.776,-0.103
62.91,265.25,-0.103
62.94,264.583,-0.183
62.97,263.319,-0.344
63.01,261.354,-0.504
63.04,258.862,-0.573
63.07,256.476,-0.481
63.1,254.475,-0.389
63.14,252.65,-0.401
63.17,251.387,-0.195
63.2,250.299,-0.218
63.23,248.404,-0.561
63.27,245.596,-0.699
63.3,242.999,-0.458
63.33,241.209,-0.286
63.36,240.086,-0.218
63.4,239.209,-0.149
63.43,238.261,-0.218
63.46,236.682,-0.435
63.49,234.155,-0.63
63.53,230.576,-0.939
63.56,227.171,-0.653
63.59,225.206,-0.218
63.62,224.048,-0.229
63.66,222.784,-0.298
63.69,221.591,-0.229
63.72,220.222,-0.332
63.75,217.801,-0.676
63.79,214.291,-0.882
63.82,210.501,-0.825
63.85,207.132,-0.664
63.88,204.64,-0.435
63.92,203.166,-0.195
63.95,202.254,-0.183
63.98,200.955,-0.355
64.01,198.674,-0.63
64.05,195.27,-0.836
64.08,191.479,-0.848
64.11,187.865,-0.756
64.14,184.811,-0.584
64.18,182.846,-0.309
64.21,181.548,-0.229
64.24,179.652,-0.504
64.27,176.529,-0.825
64.31,172.633,-0.905
64.34,168.633,-0.882
64.37,164.912,-0.779
64.4,161.929,-0.527
64.44,159.999,-0.298
64.47,158.455,-0.344
64.5,156.033,-0.664
64.53,152.524,-0.905
64.57,148.874,-0.71
64.6,145.119,-0.905
64.63,141.328,-0.825
64.66,138.661,-0.401
64.7,136.906,-0.309
64.73,135.046,-0.47
64.76,132.239,-0.722
64.79,128.589,-0.882
64.83,124.307,-0.997
64.86,119.745,-1.02
64.89,115.288,-0.951
64.92,111.568,-0.722
64.96,108.69,-0.527
64.99,106.128,-0.573
65.02,103.04,-0.756
65.05,99.179,-0.951
65.09,94.441,-1.1
65.12,89.493,-1.111
65.15,84.72,-1.02
65.18,80.649,-0.79
65.22,77.49,-0.573
65.25,74.963,-0.504
65.28,72.296,-0.642
65.31,69.138,-0.756
65.35,65.488,-0.848
65.38,61.662,-0.848
65.41,57.837,-0.825
65.44,54.398,-0.71
65.48,51.45,-0.573
65.51,48.677,-0.596
65.54,45.554,-0.756
65.57,41.693,-0.928
65.61,37.341,-0.997
65.64,32.779,-1.031
65.67,28.322,-0.928
65.7,24.321,-0.825
65.74,20.882,-0.687
65.77,17.969,-0.607
65.8,15.091,-0.619
65.83,12.003,-0.733
65.87,8.458,-0.836
65.9,4.527,-0.882
65.93,0.562,-0.871
65.96,-3.229,-0.79
66.0,-6.493,-0.619
66.03,-9.265,-0.584
66.06,-12.389,-0.779
66.09,-16.284,-0.905
66.13,-20.39,-0.916
66.16,-24.391,-0.848
66.19,-28.146,-0.825
66.22,-31.796,-0.768
66.26,-35.411,-0.779
66.29,-38.64,-0.664
66.32,-41.518,-0.607
66.35,-44.641,-0.71
66.39,-48.151,-0.813
66.42,-51.801,-0.825
66.45,-55.766,-0.894
66.48,-59.872,-0.939
66.52,-64.154,-0.928
66.55,-68.19,-0.882
66.58,-72.015,-0.79
66.61,-75.525,-0.71
66.65,-78.683,-0.676
66.68,-81.737,-0.664
66.71,-85.036,-0.768
66.74,-88.651,-0.836
66.78,-92.371,-0.836
66.81,-96.301,-0.859
66.84,-100.127,-0.848
66.87,-103.741,-0.733
66.91,-107.04,-0.687
66.94,-110.199,-0.71
66.97,-113.428,-0.687
67.0,-116.692,-0.745
67.04,-120.306,-0.836
67.07,-124.167,-0.859
67.1,-127.957,-0.836
67.14,-131.396,-0.699
67.17,-134.415,-0.584
67.2,-137.012,-0.55
67.23,-139.679,-0.63
67.27,-142.802,-0.733
67.3,-146.733,-0.951
67.33,-151.295,-1.088
67.36,-155.226,-0.71
67.4,-157.262,-0.206
67.43,-157.928,-0.034
67.46,-159.999,-0.733
67.49,-164.14,-1.123
67.53,-168.562,-0.894
67.56,-172.353,-0.768
67.59,-175.932,-0.813
67.62,-179.021,-0.596
67.66,-181.021,-0.298
67.69,-182.39,-0.286
67.72,-184.109,-0.435
67.75,-186.531,-0.596
67.79,-189.865,-0.848
67.82,-194.147,-1.054
67.85,-198.604,-0.939
67.88,-202.113,-0.63
67.92,-204.324,-0.367
67.95,-205.728,-0.218
67.98,-206.711,-0.183
68.01,-207.799,-0.263
68.05,-209.624,-0.481
68.08,-212.431,-0.722
68.11,-215.555,-0.699
68.14,-218.292,-0.515
68.18,-220.258,-0.344
68.21,-221.486,-0.183
68.24,-222.328,-0.149
68.27,-223.451,-0.298
68.31,-225.346,-0.527
68.34,-228.189,-0.699
68.37,-231.453,-0.756
68.4,-234.682,-0.664
68.44,-237.033,-0.412
68.47,-238.507,-0.206
68.5,-239.42,-0.149
68.53,-240.543,-0.309
68.57,-242.227,-0.458
68.6,-244.438,-0.493
68.63,-246.93,-0.596
68.66,-249.141,-0.412
68.7,-250.896,-0.367
68.73,-252.124,-0.183
68.76,-253.177,-0.206
68.79,-254.721,-0.447
68.83,-256.932,-0.515
68.86,-259.178,-0.47
68.89,-261.53,-0.55
68.92,-263.951,-0.561
68.96,-265.881,-0.332
68.99,-266.899,-0.115
69.02,-267.601,-0.149
69.05,-268.478,-0.229
69.09,-269.742,-0.309
69.12,-271.391,-0.401
69.15,-273.357,-0.47
69.18,-275.392,-0.424
69.22,-276.866,-0.218
69.25,-277.463,-0.034
69.28,-277.814,-0.103
69.31,-278.621,-0.229
69.35,-279.99,-0.355
69.38,-281.955,-0.493
69.41,-284.271,-0.561
69.44,-286.588,-0.47
69.48,-288.307,-0.286
69.51,-289.36,-0.172
69.54,-290.132,-0.16
69.57,-291.01,-0.16
69.61,-291.887,-0.206
69.64,-293.08,-0.309
69.67,-294.449,-0.298
69.7,-295.607,-0.229
69.74,-296.379,-0.115
69.77,-296.906,-0.069
69.8,-297.046,0.0
69.83,-296.976,0.057
69.87,-296.941,-0.034
69.9,-297.678,-0.241
69.93,-298.555,-0.183
69.96,-299.081,-0.16
70.0,-299.608,-0.183
70.03,-300.591,-0.378
70.06,-301.117,-0.126
70.09,-300.766,0.069
70.13,-300.871,-0.149
70.16,-301.678,-0.263
70.19,-302.065,-0.069
70.22,-301.994,-0.023
70.26,-301.889,-0.023
70.29,-301.328,0.206
70.32,-299.889,0.458
70.35,-297.923,0.458
70.39,-296.765,0.103
70.42,-297.186,-0.263
70.45,-298.415,-0.309
70.48,-299.152,-0.057
70.52,-298.555,0.309
70.55,-296.414,0.653
70.58,-293.396,0.722
70.61,-290.694,0.538
70.65,-289.325,0.126
70.68,-289.641,-0.229
70.71,-290.623,-0.263
70.74,-291.15,0.034
70.78,-290.062,0.435
70.81,-287.325,0.779
70.84,-283.71,0.848
70.87,-280.551,0.63
70.91,-278.796,0.195
70.94,-278.761,-0.172
70.97,-279.463,-0.183
71.0,-279.744,0.057
71.04,-278.691,0.401
71.07,-275.954,0.813
71.1,-272.269,0.882
71.13,-269.005,0.607
71.17,-267.11,0.286
71.2,-266.267,0.103
71.23,-265.881,0.069
71.26,-265.355,0.149
71.3,-264.021,0.401
71.33,-261.424,0.756
71.36,-258.125,0.756
71.39,-255.844,0.332
71.43,-254.475,0.241
71.46,-253.387,0.275
71.49,-252.159,0.252
71.52,-250.861,0.332
71.56,-249.036,0.47
71.59,-246.579,0.642
71.62,-243.771,0.63
71.65,-241.42,0.424
71.69,-239.911,0.229
71.72,-238.788,0.275
71.75,-237.384,0.355
71.78,-235.699,0.378
71.82,-233.839,0.493
71.85,-231.207,0.653
71.88,-228.329,0.676
71.91,-225.522,0.584
71.95,-223.206,0.47
71.98,-220.959,0.538
72.01,-218.959,0.389
72.04,-217.906,0.103
72.08,-216.888,0.286
72.11,-214.783,0.676
72.14,-211.694,0.71
72.17,-208.852,0.596
72.21,-206.395,0.504
72.24,-204.395,0.367
72.27,-202.956,0.286
72.3,-201.482,0.389
72.34,-199.236,0.619
72.37,-195.937,0.836
72.4,-192.181,0.871
72.43,-188.602,0.768
72.47,-185.548,0.607
72.5,-183.478,0.344
72.53,-182.109,0.252
72.56,-180.389,0.47
72.6,-177.547,0.802
72.63,-173.546,0.974
72.66,-169.405,0.894
72.69,-165.614,0.779
72.73,-162.526,0.619
72.76,-160.455,0.332
72.79,-159.122,0.241
72.82,-157.332,0.561
72.86,-154.279,0.813
72.89,-150.172,1.031
72.92,-146.066,0.859
72.95,-142.627,0.653
72.99,-139.714,0.664
73.02,-137.503,0.367
73.05,-135.538,0.458
73.08,-132.87,0.733
73.12,-129.326,0.848
73.15,-125.395,0.928
73.18,-121.008,1.02
73.21,-116.551,0.985
73.25,-112.515,0.813
73.28,-109.462,0.596
73.31,-106.865,0.573
73.34,-104.022,0.676
73.38,-100.618,0.848
73.41,-96.301,1.077
73.44,-91.248,1.203
73.47,-86.194,1.111
73.51,-81.807,0.859
73.54,-78.438,0.653
73.57,-75.665,0.596
73.6,-72.893,0.619
73.64,-69.804,0.756
73.67,-65.944,0.951
73.7,-61.592,0.997
73.73,-57.275,0.928
73.77,-53.485,0.779
73.8,-50.256,0.676
73.83,-47.133,0.676
73.86,-43.974,0.745
73.9,-40.395,0.848
73.93,-36.148,1.02
73.96,-31.656,1.008
73.99,-27.515,0.871
74.03,-23.97,0.722
74.06,-20.847,0.653
74.09,-18.179,0.584
74.12,-15.547,0.584
74.16,-12.95,0.584
74.19,-10.072,0.687
74.22,-6.563,0.871
74.25,-2.386,0.985
74.29,1.825,0.928
74.32,5.791,0.859
74.35,9.476,0.779
74.38,12.985,0.768
74.42,16.565,0.825
74.45,20.285,0.836
74.48,23.865,0.802
74.51,27.374,0.756
74.55,30.919,0.813
74.58,34.744,0.905
74.61,38.921,0.951
74.65,42.746,0.825
74.68,45.799,0.561
74.71,48.361,0.573
74.74,51.379,0.733
74.78,54.749,0.802
74.81,58.293,0.813
74.84,62.154,0.905
74.87,66.19,0.939
74.91,70.155,0.836
74.94,73.665,0.756
74.97,77.209,0.802
75.0,80.649,0.768
75.04,83.948,0.71
75.07,87.387,0.802
75.1,91.212,0.905
75.13,95.248,0.894
75.17,99.039,0.859
75.2,102.724,0.802
75.23,106.163,0.745
75.26,109.392,0.71
75.3,112.515,0.676
75.33,115.709,0.745
75.36,119.324,0.871
75.39,123.079,0.848
75.43,126.729,0.779
75.46,130.028,0.699
75.49,132.906,0.63
75.52,135.503,0.538
75.56,138.521,0.768
75.59,142.065,0.836
75.62,145.715,0.802
75.65,149.576,0.905
75.69,153.331,0.802
75.72,156.279,0.538
75.75,158.42,0.401
75.78,160.526,0.538
75.82,163.263,0.676
75.85,166.422,0.733
75.88,169.931,0.825
75.91,173.686,0.859
75.95,177.196,0.733
75.98,180.038,0.584
76.01,182.32,0.424
76.04,184.074,0.378
76.08,186.04,0.481
76.11,188.847,0.722
76.14,192.392,0.894
76.17,196.498,0.939
76.21,200.394,0.836
76.24,203.412,0.584
76.27,205.096,0.195
76.3,205.728,0.069
76.34,206.535,0.275
76.37,208.43,0.584
76.4,211.659,0.825
76.43,215.274,0.859
76.47,218.713,0.722
76.5,221.31,0.481
76.53,222.574,0.115
76.56,222.855,0.0
76.6,223.416,0.241
76.63,225.381,0.607
76.66,228.4,0.779
76.69,231.418,0.607
76.73,233.945,0.55
76.76,236.331,0.538
76.79,238.332,0.401
76.82,240.157,0.389
76.86,242.227,0.55
76.89,244.93,0.664
76.92,247.702,0.607
76.95,250.124,0.493
76.99,252.124,0.412
77.02,253.914,0.389
77.05,255.774,0.412
77.08,257.704,0.481
77.12,259.95,0.504
77.15,262.267,0.538
77.18,264.478,0.493
77.21,266.478,0.389
77.25,268.163,0.389
77.28,270.058,0.447
77.31,272.128,0.481
77.34,274.269,0.481
77.38,276.585,0.55
77.41,278.481,0.378
77.44,279.639,0.149
77.47,280.341,0.16
77.51,280.937,0.16
77.54,281.429,0.069
77.57,281.393,-0.057
77.6,281.218,-0.046
77.64,281.639,0.218
77.67,283.183,0.458
77.7,285.219,0.481
77.73,287.254,0.435
77.77,289.149,0.412
77.8,290.659,0.321
77.83,291.747,0.183
77.86,292.554,0.183
77.9,293.501,0.241
77.93,294.589,0.275
77.96,295.853,0.298
77.99,297.046,0.275
78.03,298.064,0.183
78.06,298.555,0.046
78.09,298.38,-0.069
78.12,297.958,-0.103
78.16,297.678,-0.023
78.19,297.888,0.115
78.22,298.695,0.286
78.25,299.783,0.229
78.29,300.415,0.08
78.32,300.626,0.046
78.35,300.871,0.08
78.38,301.047,0.046
78.42,301.117,-0.023
78.45,301.292,0.092
78.48,302.135,0.298
78.51,303.258,0.252
78.55,303.819,0.08
78.58,303.679,0.023
78.61,302.802,-0.183
78.64,301.257,-0.424
78.68,299.467,-0.401
78.71,298.344,-0.103
78.74,298.695,0.252
78.77,299.889,0.309
78.81,300.31,-0.046
78.84,298.836,-0.504
78.87,295.958,-0.779
78.9,292.589,-0.733
78.94,290.062,-0.412
78.97,289.255,0.046
79.0,290.167,0.401
79.03,291.747,0.367
79.07,292.097,-0.115
79.1,290.167,-0.71
79.13,286.377,-0.985
79.16,282.271,-0.859
79.2,279.182,-0.527
79.23,277.919,-0.057
79.26,278.41,0.321
79.29,279.674,0.309
79.33,279.919,-0.126
79.36,278.2,-0.584
79.39,275.111,-0.779
79.42,271.181,-0.882
79.46,261.284,-3.162
79.49,240.858,-5.854
79.52,219.731,-4.067
79.55,211.554,0.126
79.59,216.924,2.394
79.62,228.294,2.795
79.65,240.508,2.726
79.68,250.685,1.959
79.72,256.125,0.607
79.75,256.897,-0.252
79.78,255.247,-0.493
79.81,253.107,-0.47
79.85,251.703,-0.16
79.88,251.633,0.137
79.91,251.668,-0.046
79.94,250.404,-0.504
79.98,247.807,-0.653
80.01,245.175,-0.504
80.04,242.648,-0.584
80.07,240.086,-0.561
80.11,238.051,-0.344
80.14,236.401,-0.344
80.17,233.98,-0.653
80.2,230.576,-0.848
80.24,227.242,-0.664
80.27,224.644,-0.447
80.3,222.784,-0.367
80.33,221.065,-0.378
80.37,219.38,-0.355
80.4,217.59,-0.412
80.43,214.888,-0.71
80.46,211.449,-0.836
80.5,208.325,-0.561
80.53,206.57,-0.229
80.56,205.693,-0.126
80.59,204.956,-0.172
80.63,203.833,-0.298
80.66,202.078,-0.447
80.69,199.095,-0.813
80.72,194.954,-1.02
80.76,190.778,-0.859
80.79,187.549,-0.573
80.82,185.303,-0.401
80.85,183.548,-0.355
80.89,181.653,-0.412
80.92,179.231,-0.63
80.95,175.757,-0.894
80.98,171.616,-0.951
81.02,167.474,-0.871
81.05,163.895,-0.687
81.08,161.227,-0.481
81.11,159.016,-0.447
81.15,156.735,-0.527
81.18,154.033,-0.63
81.21,150.874,-0.768
81.24,147.014,-0.905
81.28,142.662,-0.997
81.31,138.275,-0.939
81.34,134.695,-0.642
81.37,132.309,-0.412
81.41,130.379,-0.389
81.44,128.448,-0.458
81.47,125.922,-0.63
81.5,122.552,-0.836
81.54,118.692,-0.882
81.57,114.902,-0.779
81.6,111.743,-0.619
81.63,108.971,-0.584
81.67,106.058,-0.687
81.7,102.583,-0.836
81.73,98.372,-1.008
81.76,93.318,-1.18
81.8,88.159,-1.134
81.83,83.562,-0.882
81.86,80.193,-0.619
81.89,77.56,-0.515
81.93,75.104,-0.55
81.96,72.296,-0.664
81.99,68.892,-0.836
82.02,64.751,-0.951
82.06,60.645,-0.894
82.09,56.784,-0.79
82.12,53.52,-0.653
82.16,50.677,-0.584
82.19,47.905,-0.619
82.22,44.711,-0.756
82.25,41.026,-0.871
82.29,37.061,-0.928
82.32,32.954,-0.882
82.35,29.094,-0.813
82.38,25.514,-0.756
82.42,22.04,-0.756
82.45,18.495,-0.779
82.48,14.67,-0.894
82.51,10.318,-1.008
82.55,5.685,-1.042
82.58,1.228,-0.928
82.61,-2.527,-0.745
82.64,-5.721,-0.63
82.68,-8.493,-0.596
82.71,-11.02,-0.515
82.74,-13.441,-0.515
82.77,-16.284,-0.687
82.81,-20.004,-0.939
82.84,-24.567,-1.088
82.87,-29.41,-1.054
82.9,-33.937,-0.962
82.94,-38.043,-0.859
82.97,-41.658,-0.745
83.0,-44.957,-0.687
83.03,-48.186,-0.699
83.07,-51.379,-0.722
83.1,-54.678,-0.71
83.13,-58.153,-0.813
83.16,-61.803,-0.813
83.2,-65.523,-0.836
83.23,-69.383,-0.871
83.26,-73.209,-0.825
83.29,-76.859,-0.756
83.33,-80.087,-0.664
83.36,-82.965,-0.607
83.39,-86.018,-0.687
83.42,-89.563,-0.859
83.46,-93.599,-0.928
83.49,-97.775,-0.928
83.52,-101.636,-0.813
83.55,-104.97,-0.653
83.59,-107.812,-0.573
83.62,-110.515,-0.607
83.65,-113.568,-0.71
83.68,-117.148,-0.859
83.72,-121.289,-0.939
83.75,-125.395,-0.894
83.78,-129.08,-0.745
83.81,-132.098,-0.596
83.85,-134.625,-0.493
83.88,-137.082,-0.55
83.91,-139.925,-0.699
83.94,-143.504,-0.859
83.98,-147.575,-0.951
84.01,-151.892,-0.974
84.04,-155.893,-0.79
84.07,-158.595,-0.412
84.11,-160.35,-0.309
84.14,-162.175,-0.47
84.17,-164.737,-0.619
84.2,-167.931,-0.779
84.24,-171.686,-0.859
84.27,-175.371,-0.779
84.3,-178.459,-0.607
84.33,-181.091,-0.527
84.37,-183.478,-0.504
84.4,-185.864,-0.55
84.43,-188.672,-0.664
84.46,-192.287,-0.882
84.5,-196.323,-0.916
84.53,-200.043,-0.745
84.56,-202.815,-0.481
84.59,-204.605,-0.309
84.63,-205.904,-0.241
84.66,-207.167,-0.298
84.69,-208.781,-0.401
84.72,-211.168,-0.607
84.76,-214.186,-0.722
84.79,-217.064,-0.619
84.82,-219.31,-0.378
84.85,-220.714,-0.229
84.89,-221.732,-0.183
84.92,-222.784,-0.252
84.95,-224.434,-0.435
84.98,-226.855,-0.607
85.02,-229.944,-0.722
85.05,-233.173,-0.733
85.08,-236.121,-0.573
85.11,-238.191,-0.355
85.15,-239.56,-0.229
85.18,-240.753,-0.252
85.21,-242.297,-0.378
85.24,-244.228,-0.447
85.28,-246.263,-0.458
85.31,-248.439,-0.493
85.34,-250.404,-0.389
85.37,-251.738,-0.183
85.41,-252.545,-0.137
85.44,-253.633,-0.321
85.47,-255.704,-0.561
85.5,-258.441,-0.642
85.54,-261.214,-0.596
85.57,-263.565,-0.458
85.6,-265.109,-0.241
85.63,-265.811,-0.046
85.67,-266.232,-0.115
85.7,-266.864,-0.149
85.73,-268.268,-0.412
85.76,-270.549,-0.607
85.8,-272.865,-0.435
85.83,-275.041,-0.493
85.86,-277.042,-0.412
85.89,-277.814,0.034
85.93,-277.393,0.218
85.96,-277.673,-0.263
85.99,-279.323,-0.47
86.02,-281.113,-0.344
86.06,-283.043,-0.47
86.09,-285.359,-0.584
86.12,-287.395,-0.332
86.15,-288.623,-0.172
86.19,-289.43,-0.172
86.22,-290.237,-0.195
86.25,-291.15,-0.183
86.28,-292.238,-0.298
86.32,-293.607,-0.309
86.35,-294.975,-0.309
86.38,-296.169,-0.241
86.41,-297.116,-0.149
86.45,-297.467,-0.034
86.48,-297.537,0.034
86.51,-297.572,-0.034
86.54,-297.713,-0.023
86.58,-297.993,-0.115
86.61,-298.625,-0.183
86.64,-299.467,-0.252
86.67,-300.31,-0.298
86.71,-301.187,-0.321
86.74,-301.784,-0.218
86.77,-301.889,-0.103
86.8,-302.065,-0.115
86.84,-302.31,-0.092
86.87,-302.31,0.023
86.9,-301.994,0.103
86.93,-301.292,0.206
86.97,-300.099,0.309
87.0,-298.59,0.378
87.03,-297.292,0.252
87.06,-297.081,-0.115
87.1,-298.064,-0.344
87.13,-299.081,-0.16
87.16,-299.081,0.172
87.19,-297.537,0.504
87.23,-294.8,0.71
87.26,-291.887,0.63
87.29,-289.886,0.309
87.32,-289.43,-0.08
87.36,-290.167,-0.286
87.39,-290.974,-0.115
87.42,-290.694,0.218
87.45,-288.728,0.642
87.49,-285.324,0.894
87.52,-281.639,0.813
87.55,-278.937,0.447
87.58,-278.024,0.0
87.62,-278.445,-0.206
87.65,-279.077,-0.103
87.68,-278.972,0.126
87.71,-277.463,0.515
87.75,-274.374,0.882
87.78,-270.724,0.802
87.81,-267.917,0.493
87.84,-266.338,0.241
87.88,-265.565,0.103
87.91,-265.215,0.08
87.94,-264.478,0.229
87.97,-262.653,0.573
88.01,-259.564,0.825
88.04,-256.055,0.768
88.07,-253.177,0.55
88.1,-251.422,0.252
88.14,-250.79,0.057
88.17,-250.861,-0.069
88.2,-251.141,-0.069
88.23,-250.72,0.218
88.27,-248.615,0.687
88.3,-245.631,0.687
88.33,-242.683,0.607
88.36,-239.7,0.722
88.4,-236.858,0.596
88.43,-234.822,0.344
88.46,-233.383,0.298
88.49,-231.593,0.47
88.53,-229.277,0.584
88.56,-226.715,0.573
88.59,-224.118,0.619
88.62,-221.416,0.596
88.66,-219.135,0.447
88.69,-217.485,0.286
88.72,-216.151,0.309
88.75,-214.537,0.435
88.79,-212.361,0.55
88.82,-209.834,0.596
88.85,-207.272,0.573
88.88,-205.096,0.401
88.92,-203.622,0.286
88.95,-202.219,0.332
88.98,-200.394,0.458
89.01,-197.726,0.722
89.05,-194.217,0.871
89.08,-190.356,0.836
89.11,-187.198,0.642
89.14,-184.882,0.378
89.18,-183.267,0.332
89.21,-181.583,0.447
89.24,-179.091,0.619
89.27,-176.108,0.733
89.31,-172.563,0.848
89.34,-168.527,0.951
89.37,-164.948,0.676
89.4,-162.28,0.515
89.44,-160.596,0.275
89.47,-159.227,0.332
89.5,-156.946,0.653
89.54,-153.191,1.008
89.57,-148.558,1.065
89.6,-144.136,0.928
89.63,-140.521,0.71
89.67,-137.714,0.538
89.7,-135.432,0.481
89.73,-133.081,0.561
89.76,-130.273,0.664
89.8,-126.869,0.848
89.83,-122.833,0.985
89.86,-118.341,0.997
89.89,-114.095,0.905
89.93,-110.515,0.733
89.96,-107.532,0.584
89.99,-104.865,0.607
90.02,-102.022,0.687
90.06,-98.653,0.813
90.09,-94.687,0.951
90.12,-90.089,1.1
90.15,-85.141,1.134
90.19,-80.579,0.951
90.22,-76.964,0.676
90.25,-73.911,0.653
90.28,-70.717,0.768
90.32,-67.242,0.768
90.35,-63.908,0.745
90.38,-60.399,0.825
90.41,-56.644,0.859
90.45,-52.994,0.779
90.48,-49.59,0.722
90.51,-46.291,0.745
90.54,-42.886,0.768
90.58,-39.131,0.882
90.61,-34.744,1.031
90.64,-30.252,1.008
90.67,-26.216,0.825
90.71,-22.847,0.687
90.74,-19.899,0.642
90.77,-17.056,0.63
90.8,-14.143,0.664
90.84,-10.844,0.825
90.87,-6.879,0.939
90.9,-2.773,0.916
90.93,1.299,0.871
90.97,4.913,0.756
91.0,8.037,0.653
91.03,10.529,0.481
91.06,12.318,0.332
91.1,14.88,0.733
91.13,19.513,1.329
91.16,25.444,1.375
91.19,30.849,1.088
91.23,35.201,0.871
91.26,38.745,0.71
91.29,41.728,0.607
91.32,44.536,0.619
91.36,47.484,0.699
91.39,50.853,0.779
91.42,54.468,0.825
91.45,58.188,0.836
91.49,61.873,0.836
91.52,65.417,0.779
91.55,69.418,0.939
91.58,73.419,0.916
91.62,76.332,0.401
91.65,78.613,0.561
91.68,81.982,0.939
91.71,85.667,0.733
91.75,89.072,0.768
91.78,93.248,1.1
91.81,97.775,0.962
91.84,101.53,0.71
91.88,104.478,0.607
91.91,107.111,0.584
91.94,109.567,0.504
91.97,112.059,0.584
92.01,115.147,0.802
92.04,119.254,1.042
92.07,123.956,1.088
92.1,128.273,0.848
92.14,131.396,0.596
92.17,133.958,0.504
92.2,136.871,0.779
92.23,139.96,0.653
92.27,142.978,0.653
92.3,146.558,0.905
92.33,150.348,0.813
92.36,154.033,0.848
92.4,157.613,0.779
92.43,160.596,0.573
92.46,163.228,0.596
92.49,166.106,0.699
92.53,169.405,0.733
92.56,172.844,0.836
92.59,176.389,0.756
92.62,179.442,0.607
92.66,181.688,0.435
92.69,183.443,0.355
92.72,185.092,0.401
92.75,187.549,0.642
92.79,191.023,0.916
92.82,195.129,0.939
92.85,198.849,0.768
92.88,201.973,0.607
92.92,204.184,0.435
92.95,205.728,0.275
92.98,206.886,0.241
93.01,208.36,0.401
93.05,210.536,0.573
93.08,213.274,0.653
93.11,215.976,0.596
93.14,218.327,0.458
93.18,220.047,0.321
93.21,221.205,0.218
93.24,222.398,0.309
93.27,224.434,0.584
93.31,227.768,0.871
93.34,232.05,1.077
93.37,236.752,1.077
93.4,240.648,0.722
93.44,242.824,0.298
93.47,242.964,-0.183
93.5,242.017,-0.263
93.53,241.771,0.149
93.57,243.28,0.504
93.6,245.631,0.584
93.63,248.123,0.584
93.66,250.966,0.699
93.7,253.773,0.607
93.73,255.458,0.183
93.76,255.809,-0.046
93.79,255.879,0.08
93.83,256.581,0.241
93.86,257.845,0.332
93.89,259.494,0.435
93.92,261.635,0.504
93.96,263.53,0.378
93.99,264.548,0.126
94.02,264.723,-0.046
94.05,264.337,-0.126
94.09,264.162,0.046
94.12,265.215,0.401
94.15,267.776,0.733
94.18,271.426,0.894
94.22,275.041,0.802
94.25,277.673,0.412
94.28,278.831,0.126
94.31,279.498,0.149
94.35,280.481,0.275
94.38,281.885,0.389
94.41,283.92,0.493
94.44,286.026,0.47
94.48,287.816,0.355
94.51,289.185,0.286
94.54,290.378,0.241
94.57,291.29,0.16
94.61,292.027,0.195
94.64,293.08,0.286
94.67,294.238,0.286
94.7,295.326,0.229
94.74,296.274,0.206
94.77,297.081,0.16
94.8,297.678,0.126
94.83,297.923,0.0
94.87,297.923,0.034
94.9,297.783,-0.069
94.93,297.853,0.08
94.96,298.941,0.424
95.0,300.099,0.16
95.03,300.626,0.069
95.06,301.292,0.218
95.09,301.819,0.057
95.13,301.854,-0.08
95.16,301.819,0.069
95.19,302.135,0.115
95.22,302.38,0.0
95.26,302.17,-0.057
95.29,301.678,-0.137
95.32,300.591,-0.298
95.35,298.766,-0.504
95.39,296.765,-0.389
95.42,295.958,0.011
95.45,296.204,0.149
95.48,296.66,0.092
95.52,296.625,-0.057
95.55,295.782,-0.263
95.58,294.238,-0.412
95.61,292.343,-0.424
95.65,290.623,-0.321
95.68,289.606,-0.137
95.71,289.149,-0.057
95.74,288.693,-0.115
95.78,287.64,-0.309
95.81,285.815,-0.47
95.84,283.359,-0.561
95.87,280.621,-0.642
95.91,278.2,-0.47
95.94,276.866,-0.126
95.97,276.445,-0.023
96.0,275.883,-0.172
96.04,273.883,-0.653
96.07,269.847,-1.123
96.1,264.899,-1.1
96.13,261.179,-0.607
96.17,259.74,-0.034
96.2,260.477,0.367
96.23,262.442,0.55
96.26,264.478,0.435
96.3,265.39,0.023
96.33,264.407,-0.435
96.36,262.126,-0.584
96.39,259.81,-0.47
96.43,258.125,-0.286
96.46,257.037,-0.16
96.49,256.265,-0.16
96.52,255.423,-0.172
96.56,254.44,-0.241
96.59,252.615,-0.493
96.62,249.281,-0.928
96.65,244.649,-1.123
96.69,239.876,-1.031
96.72,235.735,-0.779
96.75,232.857,-0.515
96.78,231.418,-0.115
96.82,231.242,0.069
96.85,230.856,-0.183
96.88,229.347,-0.481
96.91,226.82,-0.619
96.95,223.837,-0.699
96.98,220.819,-0.63
97.01,218.468,-0.424
97.05,216.924,-0.252
97.08,215.625,-0.298
97.11,213.695,-0.504
97.14,211.168,-0.607
97.18,208.395,-0.607
97.21,205.833,-0.515
97.24,203.903,-0.321
97.27,202.394,-0.321
97.31,200.394,-0.504
97.34,198.218,-0.47
97.37,195.586,-0.63
97.4,192.076,-0.905
97.44,188.461,-0.745
97.47,185.548,-0.527
97.5,183.092,-0.515
97.53,180.986,-0.412
97.57,179.021,-0.412
97.6,176.459,-0.699
97.63,172.844,-0.871
97.66,168.948,-0.871
97.7,165.263,-0.768
97.73,162.456,-0.481
97.76,161.052,-0.137
97.79,160.175,-0.183
97.83,158.42,-0.504
97.86,155.121,-0.916
97.89,150.453,-1.146
97.92,145.294,-1.168
97.96,141.75,-0.458
97.99,139.925,-0.263
98.02,138.1,-0.515
98.05,135.432,-0.619
98.09,132.204,-0.813
98.12,127.992,-1.02
98.15,123.43,-1.02
98.18,118.797,-0.985
98.22,114.27,-0.997
98.25,110.445,-0.745
98.28,107.848,-0.367
98.31,106.058,-0.378
98.35,103.706,-0.63
98.38,100.337,-0.859
98.41,95.845,-1.088
98.44,90.44,-1.283
98.48,84.579,-1.317
98.51,79.385,-1.02
98.54,75.771,-0.584
98.57,73.419,-0.401
98.61,71.559,-0.424
98.64,69.208,-0.561
98.67,66.084,-0.813
98.7,62.013,-0.985
98.74,57.521,-0.997
98.77,53.485,-0.779
98.8,50.327,-0.596
98.83,47.624,-0.573
98.87,44.852,-0.642
98.9,41.693,-0.733
98.93,37.903,-0.928
98.96,33.34,-1.077
99.0,28.638,-1.02
99.03,24.251,-0.928
99.06,20.285,-0.813
99.09,16.916,-0.676
99.13,13.968,-0.619
99.16,10.95,-0.687
99.19,7.651,-0.779
99.22,4.176,-0.733
99.26,0.632,-0.779
99.29,-3.159,-0.871
99.32,-6.773,-0.756
99.35,-10.037,-0.653
99.39,-13.371,-0.768
99.42,-17.091,-0.882
99.45,-20.987,-0.836
99.48,-24.707,-0.79
99.52,-28.462,-0.848
99.55,-32.253,-0.848
99.58,-35.973,-0.79
99.61,-39.658,-0.79
99.65,-43.307,-0.825
99.68,-46.852,-0.756
99.71,-50.151,-0.664
99.74,-53.345,-0.71
99.78,-56.784,-0.79
99.81,-60.504,-0.836
99.84,-64.54,-0.894
99.87,-68.576,-0.905
99.91,-72.401,-0.768
99.94,-75.7,-0.676
99.97,-78.578,-0.596
100.0,-81.316,-0.573
100.04,-84.158,-0.653
100.07,-87.492,-0.779
100.1,-91.563,-0.985
100.13,-95.985,-1.008
100.17,-100.056,-0.813
100.2,-103.285,-0.63
100.23,-106.163,-0.584
100.26,-108.83,-0.584
100.3,-111.568,-0.619
100.33,-114.621,-0.71
100.36,-118.271,-0.871
100.39,-122.447,-0.962
100.43,-126.729,-0.939
100.46,-130.589,-0.768
100.49,-133.748,-0.653
100.52,-136.275,-0.447
100.56,-139.012,-0.699
100.59,-142.311,-0.779
100.62,-146.207,-0.905
100.65,-150.243,-0.871
100.69,-153.928,-0.768
100.72,-156.876,-0.527
100.75,-158.911,-0.344
100.78,-161.157,-0.596
100.82,-164.105,-0.722
100.85,-167.439,-0.733
100.88,-171.054,-0.848
100.91,-174.809,-0.836
100.95,-178.003,-0.596
100.98,-180.389,-0.447
101.01,-182.671,-0.515
101.04,-185.057,-0.55
101.08,-187.619,-0.561
101.11,-190.742,-0.745
101.14,-194.392,-0.882
101.17,-198.183,-0.779
101.21,-201.517,-0.687
101.24,-204.044,-0.435
101.27,-205.623,-0.252
101.3,-206.992,-0.309
101.34,-208.641,-0.412
101.37,-210.606,-0.47
101.4,-213.098,-0.607
101.43,-215.8,-0.596
101.47,-218.011,-0.412
101.5,-219.591,-0.263
101.53,-220.749,-0.229
101.56,-221.977,-0.286
101.6,-223.592,-0.401
101.63,-225.732,-0.527
101.66,-228.47,-0.642
101.69,-231.348,-0.642
101.73,-234.085,-0.573
101.76,-236.436,-0.458
101.79,-238.297,-0.355
101.82,-239.735,-0.286
101.86,-241.139,-0.309
101.89,-242.648,-0.367
101.92,-244.298,-0.355
101.95,-246.017,-0.401
101.99,-247.878,-0.412
102.02,-250.439,-0.676
102.05,-253.072,-0.561
102.08,-255.212,-0.378
102.12,-255.879,0.057
102.15,-255.423,0.206
102.18,-255.142,-0.023
102.21,-256.757,-0.607
102.25,-260.968,-1.249
102.28,-266.057,-1.111
102.31,-269.637,-0.493
102.34,-271.075,-0.137
102.38,-271.391,0.034
102.41,-271.111,0.126
102.44,-271.005,-0.057
102.47,-272.198,-0.424
102.51,-274.48,-0.596
102.54,-276.726,-0.424
102.57,-277.744,-0.046
102.6,-277.954,-0.023
102.64,-278.551,-0.206
102.67,-279.814,-0.332
102.7,-281.709,-0.458
102.73,-284.061,-0.584
102.77,-286.552,-0.55
102.8,-288.553,-0.332
102.83,-289.676,-0.16
102.86,-290.413,-0.115
102.9,-291.045,-0.16
102.93,-291.852,-0.172
102.96,-292.834,-0.241
102.99,-294.063,-0.286
103.03,-295.256,-0.241
103.06,-296.133,-0.137
103.09,-296.519,-0.046
103.12,-296.695,0.011
103.16,-296.555,0.069
103.19,-296.344,0.057
103.22,-296.941,-0.298
103.25,-298.309,-0.344
103.29,-298.625,0.103
103.32,-298.625,-0.08
103.35,-299.467,-0.332
103.38,-300.204,-0.115
103.42,-300.169,-0.034
103.45,-300.345,-0.149
103.48,-300.836,-0.16
103.51,-301.152,-0.069
103.55,-301.292,-0.103
103.58,-301.538,-0.103
103.61,-301.328,0.092
103.64,-300.204,0.355
103.68,-298.52,0.435
103.71,-297.151,0.195
103.74,-296.976,-0.069
103.77,-297.467,-0.172
103.81,-298.029,-0.08
103.84,-297.818,0.172
103.87,-296.204,0.504
103.9,-293.782,0.63
103.94,-291.396,0.493
103.97,-289.781,0.229
104.0,-289.43,-0.046
104.03,-289.851,-0.16
104.07,-290.132,0.011
104.1,-289.29,0.344
104.13,-286.974,0.687
104.16,-283.78,0.779
104.2,-280.656,0.63
104.23,-278.691,0.252
104.26,-278.375,-0.092
104.29,-278.867,-0.137
104.33,-278.937,0.069
104.36,-277.989,0.367
104.39,-275.462,0.733
104.43,-271.953,0.859
104.46,-268.654,0.664
104.49,-266.513,0.332
104.52,-265.601,0.103
104.56,-265.355,0.011
104.59,-265.109,0.08
104.62,-264.232,0.309
104.65,-261.705,0.756
104.69,-258.055,0.905
104.72,-255.212,0.435
104.75,-253.668,0.206
104.78,-252.58,0.252
104.82,-251.668,0.149
104.85,-251.668,-0.092
104.88,-251.317,0.183
104.91,-249.141,0.745
104.95,-245.491,0.916
104.98,-241.946,0.699
105.01,-239.209,0.538
105.04,-236.893,0.481
105.08,-234.962,0.401
105.11,-233.418,0.309
105.14,-231.523,0.493
105.17,-229.137,0.596
105.21,-227.101,0.355
105.24,-225.487,0.332
105.27,-223.557,0.515
105.3,-221.626,0.389
105.34,-220.328,0.218
105.37,-219.064,0.298
105.4,-217.134,0.561
105.43,-214.397,0.699
105.47,-211.343,0.676
105.5,-208.325,0.664
105.53,-205.658,0.55
105.56,-203.552,0.412
105.6,-201.903,0.321
105.63,-200.78,0.195
105.66,-199.516,0.344
105.69,-197.27,0.664
105.73,-193.901,0.848
105.76,-190.041,0.894
105.79,-186.25,0.836
105.82,-183.302,0.538
105.86,-181.337,0.355
105.89,-179.547,0.424
105.92,-177.161,0.619
105.95,-173.967,0.836
105.99,-170.177,0.859
106.02,-166.457,0.825
106.05,-163.368,0.584
106.08,-161.122,0.424
106.12,-159.402,0.367
106.15,-157.613,0.412
106.18,-154.98,0.733
106.21,-150.945,1.065
106.25,-146.803,0.859
106.28,-143.925,0.424
106.31,-141.925,0.47
106.34,-139.223,0.699
106.38,-135.468,0.962
106.41,-131.361,0.894
106.44,-127.641,0.802
106.47,-124.132,0.768
106.51,-120.622,0.802
106.54,-116.902,0.859
106.57,-113.252,0.779
106.6,-110.234,0.584
106.64,-107.462,0.63
106.67,-103.987,0.882
106.7,-99.635,1.077
106.73,-94.582,1.168
106.77,-89.458,1.146
106.8,-84.72,1.008
106.83,-80.614,0.848
106.86,-77.28,0.676
106.9,-74.507,0.55
106.93,-72.05,0.55
106.96,-69.173,0.722
106.99,-65.382,0.962
107.03,-60.925,1.02
107.06,-56.538,0.962
107.09,-52.573,0.813
107.12,-49.379,0.607
107.16,-46.852,0.538
107.19,-44.22,0.607
107.22,-41.307,0.699
107.25,-37.833,0.859
107.29,-33.727,0.985
107.32,-29.34,0.962
107.35,-25.374,0.836
107.38,-21.794,0.756
107.42,-18.636,0.687
107.45,-15.652,0.642
107.48,-12.669,0.676
107.51,-9.37,0.825
107.55,-5.475,0.916
107.58,-1.334,0.928
107.61,2.702,0.871
107.64,6.387,0.802
107.68,9.792,0.745
107.71,12.599,0.538
107.74,14.88,0.458
107.77,18.214,0.962
107.81,23.163,1.272
107.84,28.322,1.077
107.87,32.639,0.859
107.9,36.359,0.813
107.94,39.693,0.699
107.97,42.711,0.63
108.0,45.624,0.676
108.03,48.888,0.756
108.07,52.327,0.813
108.1,55.942,0.813
108.13,59.521,0.779
108.16,63.031,0.779
108.2,66.505,0.768
108.23,69.945,0.768
108.26,73.384,0.756
108.29,76.753,0.768
108.33,80.228,0.756
108.36,83.667,0.768
108.39,87.212,0.825
108.42,91.248,0.974
108.46,95.599,0.997
108.49,99.6,0.802
108.52,102.794,0.664
108.55,105.637,0.607
108.59,108.339,0.607
108.62,111.076,0.63
108.65,114.27,0.779
108.68,118.095,0.916
108.72,122.482,1.031
108.75,127.045,1.02
108.78,131.186,0.894
108.81,133.994,0.401
108.85,135.889,0.401
108.88,138.275,0.676
108.91,141.153,0.607
108.94,144.417,0.813
108.98,148.453,0.985
109.01,152.559,0.882
109.04,155.753,0.596
109.07,157.858,0.389
109.11,159.789,0.584
109.14,163.158,1.1
109.17,167.86,1.226
109.2,172.282,0.985
109.24,175.792,0.813
109.27,178.424,0.63
109.3,180.214,0.435
109.33,181.653,0.401
109.37,183.232,0.504
109.4,185.478,0.71
109.43,188.812,0.997
109.46,192.953,1.146
109.5,197.165,1.008
109.53,200.604,0.768
109.56,202.956,0.573
109.59,204.395,0.321
109.63,205.342,0.275
109.66,206.57,0.481
109.69,208.817,0.722
109.72,211.694,0.848
109.76,214.888,0.882
109.79,217.906,0.699
109.82,219.977,0.447
109.85,220.995,0.229
109.89,221.556,0.252
109.92,222.784,0.573
109.95,225.557,0.928
109.98,229.347,1.146
110.02,233.488,1.031
110.05,236.752,0.756
110.08,238.718,0.447
110.11,238.998,0.023
110.15,237.981,-0.172
110.18,237.91,0.355
110.21,239.7,0.745
110.24,242.332,0.71
110.28,244.754,0.687
110.31,247.772,0.871
110.34,250.966,0.859
110.37,252.931,0.504
110.41,253.949,0.275
110.44,254.651,0.321
110.47,255.634,0.481
110.5,257.353,0.573
110.54,259.319,0.664
110.57,261.74,0.664
110.6,263.67,0.504
110.63,264.758,0.344
110.67,265.636,0.344
110.7,266.478,0.412
110.73,267.671,0.515
110.76,269.601,0.733
110.8,272.198,0.813
110.83,274.796,0.722
110.86,276.796,0.538
110.89,277.638,0.298
110.93,277.884,0.275
110.96,278.481,0.401
110.99,279.639,0.515
111.02,281.499,0.664
111.06,283.745,0.733
111.09,285.675,0.607
111.12,287.219,0.447
111.15,288.412,0.435
111.19,289.43,0.378
111.22,290.097,0.309
111.25,290.939,0.412
111.28,292.273,0.619
111.32,293.922,0.55
111.35,295.01,0.481
111.38,296.063,0.458
111.41,296.765,0.218
111.45,296.625,0.229
111.48,296.695,0.275
111.51,297.081,0.229
111.54,297.713,0.206
111.58,298.134,0.458
111.61,299.011,0.515
111.64,299.818,0.367
111.67,300.31,0.332
111.71,301.187,0.584
111.74,301.924,0.241
111.77,301.012,-0.16
111.8,301.222,0.642
111.84,303.152,0.836
111.87,303.679,0.206
111.9,303.539,0.286
111.94,303.012,0.206
111.97,301.538,-0.218
112.0,299.292,-0.332
112.03,297.397,-0.16
112.07,296.59,0.126
112.1,297.362,0.504
112.13,298.976,0.493
112.16,299.362,0.103
112.2,297.888,-0.241
112.23,295.256,-0.619
112.26,291.957,-0.493
112.29,289.325,-0.229
112.33,288.483,0.092
112.36,288.623,0.206
112.39,288.658,0.195
112.42,288.132,0.011
112.46,286.588,-0.218
112.49,284.517,-0.389
112.52,282.06,-0.367
112.55,279.919,-0.16
112.59,278.937,0.08
112.62,278.621,0.195
112.65,278.551,0.172
112.68,277.779,-0.103
112.72,275.392,-0.504
112.75,271.812,-0.745
112.78,268.338,-0.584
112.81,266.022,-0.103
112.85,265.565,0.195
112.88,266.197,0.309
112.91,267.145,0.458
112.94,267.987,0.332
112.98,266.864,-0.401
113.01,262.898,-0.997
113.04,258.792,-0.55
113.07,256.23,-0.195
113.11,254.195,-0.298
113.14,251.703,-0.458
113.17,249.106,-0.367
113.2,247.597,0.023
113.24,246.825,-0.023
113.27,245.386,-0.309
113.3,243.315,-0.367
113.33,241.209,-0.355
113.37,238.998,-0.355
113.4,236.998,-0.263
113.43,235.559,-0.069
113.46,234.366,-0.137
113.5,232.33,-0.481
113.53,229.277,-0.619
113.56,226.189,-0.481
113.59,223.521,-0.367
113.63,221.451,-0.263
113.66,219.977,-0.16
113.69,219.029,-0.046
113.72,217.906,-0.16
113.76,215.906,-0.424
113.79,212.993,-0.63
113.82,209.729,-0.619
113.85,206.886,-0.481
113.89,204.71,-0.263
113.92,203.201,-0.137
113.95,201.833,-0.183
113.98,200.008,-0.401
114.02,197.2,-0.584
114.05,193.901,-0.653
114.08,190.462,-0.664
114.11,187.128,-0.55
114.15,184.776,-0.321
114.18,183.022,-0.229
114.21,181.126,-0.355
114.24,178.424,-0.607
114.28,174.774,-0.768
114.31,170.808,-0.779
114.34,166.878,-0.79
114.37,163.263,-0.63
114.41,160.841,-0.286
114.44,159.087,-0.286
114.47,156.841,-0.515
114.5,153.717,-0.642
114.54,150.348,-0.687
114.57,146.944,-0.664
114.6,143.715,-0.642
114.63,141.048,-0.481
114.67,139.468,-0.229
114.7,137.854,-0.435
114.73,135.011,-0.79
114.76,130.94,-0.985
114.8,126.483,-0.974
114.83,122.131,-0.939
114.86,117.78,-0.974
114.89,114.024,-0.722
114.93,111.111,-0.527
114.96,108.304,-0.653
114.99,104.689,-0.916
115.02,100.232,-1.042
115.06,95.389,-1.111
115.09,90.44,-1.1
115.12,85.843,-0.939
115.15,82.158,-0.687
115.19,79.456,-0.504
115.22,77.104,-0.515
115.25,74.402,-0.619
115.28,71.313,-0.756
115.32,67.558,-0.882
115.35,63.452,-0.916
115.38,59.416,-0.859
115.41,55.696,-0.779
115.45,52.538,-0.619
115.48,49.94,-0.515
115.51,47.343,-0.596
115.54,44.185,-0.768
115.58,40.219,-0.962
115.61,35.551,-1.1
115.64,30.638,-1.077
115.67,26.111,-0.951
115.71,22.075,-0.79
115.74,18.776,-0.653
115.77,16.144,-0.493
115.8,13.687,-0.55
115.84,10.564,-0.779
115.87,6.528,-0.974
115.9,2.211,-0.962
115.93,-1.755,-0.79
115.97,-5.299,-0.733
116.0,-8.598,-0.745
116.03,-11.757,-0.653
116.06,-14.319,-0.493
116.1,-16.951,-0.619
116.13,-20.11,-0.756
116.16,-24.181,-0.997
116.19,-29.375,-1.283
116.23,-34.85,-1.157
116.26,-39.236,-0.813
116.29,-42.43,-0.596
116.32,-45.097,-0.573
116.36,-47.94,-0.676
116.39,-51.379,-0.813
116.42,-55.064,-0.836
116.45,-58.784,-0.79
116.49,-62.259,-0.745
