Trigger_Date,2023/06/23
Trigger_Time,T 08:32:27.338 PDT
Samples_Per_Cycle,512
Microseconds_Per_Sample,32.553
Time (ms),Voltage (V),Current (A)
-16.67,-0.456,1.031
-16.63,3.088,2.062
-16.6,7.861,2.325
-16.57,14.143,2.394
-16.54,19.337,2.463
-16.5,21.303,2.944
-16.47,22.742,3.322
-16.44,23.233,4.307
-16.41,27.129,5.04
-16.37,31.621,5.544
-16.34,39.763,5.327
-16.31,42.992,5.247
-16.28,42.36,6.243
-16.24,44.781,6.667
-16.21,49.976,6.564
-16.18,52.783,7.286
-16.15,54.468,8.397
-16.11,59.732,8.443
-16.08,63.487,8.912
-16.05,67.769,9.497
-16.02,68.26,9.955
-15.98,71.84,10.608
-15.95,75.771,10.642
-15.92,76.859,11.994
-15.89,82.333,12.086
-15.85,85.667,12.521
-15.82,90.546,13.071
-15.79,92.511,13.414
-15.76,94.336,14.193
-15.72,99.214,14.193
-15.69,102.513,14.663
-15.66,107.356,14.927
-15.63,109.216,15.144
-15.59,110.936,16.141
-15.56,114.27,16.611
-15.53,117.078,17.527
-15.5,122.447,17.63
-15.46,125.009,18.065
-15.43,128.729,18.741
-15.4,132.133,18.821
-15.36,135.503,19.44
-15.33,137.643,19.875
-15.3,140.276,20.517
-15.27,145.119,20.62
-15.23,147.33,21.044
-15.2,149.33,21.468
-15.17,150.629,21.937
-15.14,153.436,23.026
-15.1,158.63,23.381
-15.07,162.07,23.77
-15.04,164.842,24.446
-15.01,167.018,24.939
-14.97,169.264,25.317
-14.94,171.896,25.775
-14.91,175.546,26.016
-14.88,178.494,26.256
-14.84,180.951,26.886
-14.81,182.881,27.585
-14.78,186.601,27.826
-14.75,189.584,27.963
-14.71,191.444,28.57
-14.68,194.463,28.49
-14.65,194.989,28.616
-14.62,196.288,29.303
-14.58,199.341,29.658
-14.55,201.271,29.956
-14.52,202.64,30.518
-14.49,205.447,30.667
-14.45,206.676,30.804
-14.42,208.395,31.125
-14.39,210.22,31.148
-14.36,210.501,31.801
-14.32,213.94,32.224
-14.29,216.783,32.362
-14.26,218.959,32.832
-14.23,221.065,33.118
-14.19,222.258,33.301
-14.16,223.557,33.53
-14.13,224.785,33.84
-14.1,225.417,34.367
-14.06,227.522,34.733
-14.03,229.172,35.191
-14.0,232.155,35.604
-13.97,235.419,35.948
-13.93,237.419,36.257
-13.9,238.858,36.326
-13.87,239.735,36.532
-13.83,242.052,36.852
-13.8,244.052,37.013
-13.77,245.386,37.219
-13.74,247.246,37.276
-13.7,247.562,37.929
-13.67,250.089,38.227
-13.64,251.773,38.158
-13.61,253.668,38.456
-13.57,254.861,38.777
-13.54,256.581,39.086
-13.51,259.424,38.96
-13.48,260.126,39.43
-13.44,261.038,39.9
-13.41,262.582,39.762
-13.38,263.495,39.556
-13.35,263.705,40.072
-13.31,264.653,40.243
-13.28,265.671,40.656
-13.25,267.952,40.438
-13.22,268.373,41.091
-13.18,271.672,41.423
-13.15,272.128,41.32
-13.12,272.83,42.019
-13.09,275.182,41.011
-13.05,275.182,41.125
-13.02,276.831,41.836
-12.99,278.13,41.79
-12.96,278.516,42.248
-12.92,280.305,42.397
-12.89,280.902,42.317
-12.86,281.429,42.363
-12.83,281.639,41.916
-12.79,280.867,42.317
-12.76,281.92,42.729
-12.73,283.71,42.34
-12.7,285.184,42.145
-12.66,286.798,41.847
-12.63,284.763,42.58
-12.6,285.219,42.66
-12.57,286.623,42.34
-12.53,286.903,42.546
-12.5,287.184,42.523
-12.47,287.43,42.58
-12.44,288.237,42.489
-12.4,288.307,42.317
-12.37,288.202,42.088
-12.34,287.289,41.824
-12.3,286.201,41.71
-12.27,285.956,41.263
-12.24,284.552,41.24
-12.21,284.938,41.584
-12.17,285.921,41.206
-12.14,283.078,41.423
-12.11,282.973,41.309
-12.08,282.622,40.61
-12.04,281.288,40.45
-12.01,280.305,40.232
-11.98,278.094,40.186
-11.95,276.129,40.598
-11.91,276.27,40.564
-11.88,274.866,40.404
-11.85,273.567,40.335
-11.82,272.374,39.865
-11.78,271.04,39.43
-11.75,269.847,39.029
-11.72,267.145,39.132
-11.69,266.162,39.281
-11.65,266.232,38.8
-11.62,264.091,38.857
-11.59,263.776,38.697
-11.56,261.424,38.25
-11.52,260.371,38.032
-11.49,259.459,37.597
-11.46,257.388,37.735
-11.43,256.09,37.551
-11.39,254.475,37.368
-11.36,253.633,37.082
-11.33,251.562,36.852
-11.3,249.878,36.257
-11.26,247.456,35.718
-11.23,244.403,35.673
-11.2,242.157,35.615
-11.17,240.648,35.283
-11.13,239.735,35.604
-11.1,240.578,35.18
-11.07,237.033,34.596
-11.04,232.541,34.687
-11.0,230.891,34.527
-10.97,231.102,33.943
-10.94,229.488,33.622
-10.91,227.066,33.679
-10.87,225.381,33.267
-10.84,223.03,33.084
-10.81,221.591,33.061
-10.77,220.468,32.568
-10.74,219.064,32.018
-10.71,217.169,31.801
-10.68,215.134,31.606
-10.64,213.274,31.319
-10.61,212.993,30.632
-10.58,209.483,30.426
-10.55,206.184,30.426
-10.51,204.43,29.567
-10.48,202.148,29.154
-10.45,199.516,28.948
-10.42,197.2,28.593
-10.38,195.129,28.238
-10.35,192.111,28.352
-10.32,189.97,28.146
-10.29,187.444,27.837
-10.25,186.601,27.31
-10.22,186.32,26.222
-10.19,181.548,26.05
-10.16,178.74,25.741
-10.12,176.74,25.053
-10.09,174.072,25.088
-10.06,171.44,24.698
-10.03,168.773,24.125
-9.99,166.0,23.702
-9.96,163.123,23.507
-9.93,160.104,22.682
-9.9,156.876,22.602
-9.86,154.279,22.476
-9.83,151.225,22.27
-9.8,149.33,21.834
-9.77,147.4,21.216
-9.73,145.575,20.723
-9.7,142.873,19.944
-9.67,138.731,19.578
-9.64,136.345,19.131
-9.6,133.643,18.695
-9.57,131.046,18.317
-9.54,128.835,17.516
-9.51,123.991,17.229
-9.47,121.394,16.702
-9.44,117.885,15.866
-9.41,114.445,15.454
-9.38,111.743,14.697
-9.34,106.76,14.709
-9.31,105.356,14.102
-9.28,101.495,13.403
-9.24,96.828,13.254
-9.21,92.055,12.956
-9.18,88.58,12.372
-9.15,86.124,11.627
-9.11,82.79,11.215
-9.08,78.929,11.032
-9.05,76.332,10.333
-9.02,72.612,9.714
-8.98,68.295,9.646
-8.95,66.611,8.993
-8.92,64.014,7.939
-8.89,59.978,7.618
-8.85,54.362,7.469
-8.82,49.625,7.584
-8.79,49.519,6.495
-8.76,44.22,6.53
-8.72,42.43,6.289
-8.69,39.622,5.155
-8.66,36.885,4.124
-8.63,30.077,4.009
-8.59,26.532,3.7
-8.56,21.548,2.99
-8.53,16.916,3.334
-8.5,15.196,2.83
-8.46,10.669,2.497
-8.43,8.072,2.245
-8.4,5.37,1.695
-8.37,1.193,1.673
-8.33,-0.597,1.191
-8.3,-2.843,0.389
-8.27,-5.791,-0.069
-8.24,-10.002,-0.309
-8.2,-13.687,-1.1
-8.17,-16.881,-1.982
-8.14,-17.197,-3.139
-8.11,-18.109,-4.731
-8.07,-22.917,-5.831
-8.04,-29.655,-6.381
-8.01,-34.323,-7.137
-7.98,-40.43,-7.274
-7.94,-44.957,-6.954
-7.91,-46.677,-7.435
-7.88,-50.362,-7.584
-7.85,-54.117,-7.561
-7.81,-55.872,-8.237
-7.78,-58.644,-8.935
-7.75,-62.364,-9.107
-7.71,-64.751,-9.978
-7.68,-68.752,-10.516
-7.65,-70.927,-11.1
-7.62,-75.244,-11.616
-7.58,-78.368,-12.12
-7.55,-81.526,-13.036
-7.52,-86.264,-13.323
-7.49,-90.686,-13.689
-7.45,-94.652,-14.079
-7.42,-97.354,-14.285
-7.39,-98.126,-14.915
-7.36,-100.372,-15.476
-7.32,-104.443,-15.935
-7.29,-109.918,-16.061
-7.26,-111.497,-17.011
-7.23,-115.709,-17.424
-7.19,-118.025,-17.722
-7.16,-121.991,-18.306
-7.13,-125.044,-18.764
-7.1,-127.747,-19.612
-7.06,-129.642,-19.898
-7.03,-133.748,-20.54
-7.0,-140.591,-20.322
-6.97,-141.609,-21.307
-6.93,-144.943,-21.193
-6.9,-145.54,-21.078
-6.87,-147.646,-22.04
-6.84,-150.558,-22.522
-6.8,-155.086,-22.762
-6.77,-157.718,-23.129
-6.74,-159.016,-24.183
-6.71,-162.631,-24.572
-6.67,-165.439,-24.985
-6.64,-168.913,-25.466
-6.61,-171.721,-25.706
-6.58,-174.985,-25.89
-6.54,-177.722,-25.924
-6.51,-178.705,-26.749
-6.48,-182.249,-27.184
-6.45,-185.127,-27.402
-6.41,-189.268,-27.539
-6.38,-192.216,-27.459
-6.35,-193.269,-27.539
-6.32,-192.743,-28.055
-6.28,-193.655,-28.582
-6.25,-196.498,-28.834
-6.22,-198.709,-29.509
-6.18,-200.955,-30.197
-6.15,-202.675,-30.483
-6.12,-203.587,-30.953
-6.09,-206.079,-31.251
-6.05,-207.693,-31.56
-6.02,-208.501,-32.305
-5.99,-210.115,-33.118
-5.96,-213.239,-33.507
-5.92,-214.958,-34.241
-5.89,-218.082,-34.905
-5.86,-221.17,-34.779
-5.83,-223.17,-34.962
-5.79,-225.768,-35.18
-5.76,-227.628,-35.443
-5.73,-230.47,-35.443
-5.7,-233.383,-35.329
-5.66,-235.594,-35.375
-5.63,-236.612,-35.432
-5.6,-235.98,-35.936
-5.57,-236.647,-36.417
-5.53,-239.279,-36.36
-5.5,-241.666,-36.474
-5.47,-243.666,-36.772
-5.44,-244.543,-37.116
-5.4,-245.421,-37.494
-5.37,-246.93,-37.918
-5.34,-248.053,-38.456
-5.31,-250.053,-38.777
-5.27,-252.054,-38.857
-5.24,-253.001,-39.419
-5.21,-255.739,-39.716
-5.18,-258.862,-39.648
-5.14,-260.687,-39.671
-5.11,-261.038,-40.049
-5.08,-261.705,-39.991
-5.05,-261.916,-39.957
-5.01,-263.916,-40.026
-4.98,-264.548,-39.705
-4.95,-264.267,-40.301
-4.92,-266.934,-40.243
-4.88,-267.25,-40.69
-4.85,-269.426,-41.32
-4.82,-270.76,-41.137
-4.79,-271.286,-42.202
-4.75,-274.129,-41.996
-4.72,-274.164,-41.744
-4.69,-275.989,-41.847
-4.66,-278.516,-41.469
-4.62,-279.568,-41.446
-4.59,-279.604,-42.007
-4.56,-281.639,-41.859
-4.52,-282.13,-41.744
-4.49,-282.903,-42.019
-4.46,-282.762,-41.4
-4.43,-282.025,-41.309
-4.39,-282.727,-41.962
-4.36,-284.377,-41.881
-4.33,-284.061,-41.332
-4.3,-284.271,-41.755
-4.26,-285.289,-41.893
-4.23,-285.219,-42.111
-4.2,-285.64,-41.859
-4.17,-284.903,-42.053
-4.13,-285.851,-42.328
-4.1,-286.693,-41.927
-4.07,-286.026,-42.168
-4.04,-285.78,-42.592
-4.0,-285.71,-42.523
-3.97,-286.728,-41.813
-3.94,-285.78,-41.423
-3.91,-283.85,-41.927
-3.87,-284.377,-41.778
-3.84,-284.306,-41.446
-3.81,-283.815,-41.423
-3.78,-282.236,-41.332
-3.74,-280.867,-40.896
-3.71,-279.042,-40.621
-3.68,-277.568,-40.759
-3.65,-277.217,-41.011
-3.61,-278.13,-41.114
-3.58,-278.516,-41.068
-3.55,-277.708,-40.759
-3.52,-275.427,-40.324
-3.48,-274.129,-39.671
-3.45,-271.391,-39.155
-3.42,-268.935,-39.063
-3.39,-267.952,-38.605
-3.35,-265.671,-38.548
-3.32,-264.618,-38.491
-3.29,-263.214,-38.067
-3.26,-259.74,-38.124
-3.22,-257.704,-38.101
-3.19,-255.914,-37.815
-3.16,-254.16,-37.895
-3.13,-253.809,-37.872
-3.09,-252.51,-37.746
-3.06,-250.896,-37.918
-3.03,-251.984,-37.46
-2.99,-250.615,-36.921
-2.96,-247.702,-36.841
-2.93,-245.772,-36.589
-2.9,-244.894,-36.165
-2.86,-243.912,-36.005
-2.83,-241.876,-35.97
-2.8,-240.964,-35.535
-2.77,-240.016,-35.283
-2.73,-237.595,-35.535
-2.7,-235.945,-34.939
-2.67,-233.313,-34.321
-2.64,-232.822,-33.966
-2.6,-230.365,-33.805
-2.57,-228.084,-33.267
-2.54,-223.03,-33.29
-2.51,-221.1,-33.507
-2.47,-218.327,-33.404
-2.44,-216.994,-33.485
-2.41,-216.713,-32.923
-2.38,-214.888,-32.843
-2.34,-214.221,-32.373
-2.31,-212.326,-31.961
-2.28,-210.08,-31.732
-2.25,-207.658,-31.663
-2.21,-207.553,-30.896
-2.18,-205.202,-30.357
-2.15,-202.991,-30.059
-2.12,-201.306,-29.28
-2.08,-200.148,-28.639
-2.05,-199.692,-27.78
-2.02,-196.779,-27.299
-1.99,-193.445,-26.817
-1.95,-189.268,-26.485
-1.92,-187.022,-26.027
-1.89,-184.25,-25.729
-1.86,-182.881,-25.133
-1.82,-178.81,-24.767
-1.79,-174.634,-24.836
-1.76,-171.791,-24.297
-1.73,-170.457,-24.469
-1.69,-170.457,-23.77
-1.66,-166.913,-23.186
-1.63,-161.929,-22.842
-1.6,-159.192,-22.625
-1.56,-156.77,-22.453
-1.53,-155.437,-22.373
-1.5,-153.752,-21.628
-1.46,-149.084,-21.204
-1.43,-145.329,-20.941
-1.4,-142.978,-20.368
-1.37,-139.609,-20.471
-1.33,-137.363,-20.483
-1.3,-136.871,-19.646
-1.27,-136.31,-18.741
-1.24,-132.239,-18.02
-1.2,-128.519,-17.493
-1.17,-124.413,-16.668
-1.14,-120.096,-16.244
-1.11,-116.516,-15.511
-1.07,-112.375,-15.133
-1.04,-109.076,-14.686
-1.01,-104.935,-14.606
-0.98,-102.267,-14.125
-0.94,-99.039,-13.552
-0.91,-95.178,-13.22
-0.88,-92.757,-12.555
-0.85,-88.931,-11.696
-0.81,-82.649,-11.891
-0.78,-79.561,-11.662
-0.75,-77.35,-10.929
-0.72,-73.665,-10.803
-0.68,-71.068,-10.803
-0.65,-70.752,-9.737
-0.62,-68.541,-8.683
-0.59,-62.505,-8.557
-0.55,-58.539,-8.168
-0.52,-54.573,-7.24
-0.49,-50.572,-7.102
-0.46,-47.624,-6.759
-0.42,-45.448,-6.06
-0.39,-42.325,-5.201
-0.36,-36.85,-5.304
-0.33,-33.902,-4.766
-0.29,-29.234,-4.239
-0.26,-26.567,-3.849
-0.23,-23.409,-3.196
-0.2,-18.776,-2.921
-0.16,-16.425,-2.142
-0.13,-10.143,-1.844
-0.1,-6.071,-2.005
-0.07,-5.721,-0.733
-0.03,-1.965,-0.183
0.0,-1.369,0.447
0.03,0.562,1.959
0.07,6.142,2.658
0.1,13.055,2.658
0.13,20.074,2.417
0.16,22.531,2.486
0.2,22.601,2.99
0.23,25.304,3.093
0.26,25.409,3.987
0.29,28.287,5.373
0.33,34.218,5.384
0.36,38.394,5.739
0.39,41.272,6.449
0.42,44.255,7.034
0.46,47.414,7.228
0.49,49.379,8.202
0.52,54.047,8.706
0.55,58.925,8.935
0.59,64.68,8.844
0.62,65.242,9.703
0.65,68.892,10.184
0.68,72.296,10.356
0.72,76.753,10.94
0.75,79.315,11.307
0.78,81.807,12.017
0.81,85.808,12.349
0.85,88.931,13.082
0.88,93.143,13.46
0.91,96.652,13.655
0.94,100.443,13.815
0.98,101.636,14.457
1.01,103.25,15.522
1.04,108.936,15.935
1.07,114.586,16.106
1.11,116.446,17.08
1.14,120.657,17.264
1.17,123.079,17.458
1.2,126.939,18.042
1.24,130.87,17.871
1.27,132.344,18.776
1.3,135.889,19.326
1.33,137.573,19.83
1.37,141.539,20.78
1.4,144.768,21.044
1.43,145.54,21.399
1.46,148.804,21.64
1.5,151.05,22.327
1.53,155.156,23.152
1.56,159.964,22.842
1.6,160.526,23.644
1.63,162.947,24.652
1.66,166.702,24.515
1.69,169.405,24.95
1.73,173.16,25.179
1.76,173.932,25.672
1.79,176.599,26.016
1.82,179.091,26.543
1.86,183.162,27.092
1.89,186.18,27.539
1.92,189.023,27.952
1.95,190.813,28.318
1.99,193.094,28.513
2.02,195.2,28.639
2.05,197.411,28.845
2.08,197.832,29.578
2.12,201.517,29.888
2.15,203.412,29.956
2.18,205.132,30.701
2.21,208.15,30.621
2.25,208.29,30.724
2.28,209.904,31.113
2.31,212.115,31.342
2.34,213.94,31.835
2.38,215.976,32.499
2.41,218.011,33.003
2.44,219.942,33.301
2.47,221.346,33.737
2.51,223.767,33.805
2.54,225.627,33.943
2.57,227.908,34.309
2.6,229.347,34.699
2.64,230.365,35.317
2.67,232.541,35.443
2.7,234.576,35.535
2.73,237.244,35.776
2.77,238.191,36.154
2.8,239.841,36.291
2.83,241.42,36.371
2.86,242.789,36.807
2.9,244.333,37.299
2.93,247.141,37.448
2.96,249.352,37.689
2.99,250.861,38.136
3.03,252.756,38.101
3.06,253.387,38.193
3.09,253.949,38.857
3.13,256.441,39.018
3.16,257.143,39.35
3.19,259.459,39.762
3.22,261.635,39.877
3.26,263.741,39.671
3.29,263.811,39.648
3.32,264.864,39.636
3.35,265.144,39.625
3.39,265.916,40.312
3.42,267.601,40.427
3.45,268.97,40.885
3.48,270.865,41.103
3.52,271.286,41.721
3.55,273.602,41.503
3.58,274.129,41.171
3.61,274.866,41.733
3.65,277.007,41.503
3.68,277.744,41.549
3.71,278.094,42.477
3.74,279.358,42.821
3.78,280.235,42.603
3.81,281.183,42.477
3.84,282.095,42.26
3.87,282.166,42.271
3.91,282.376,42.718
3.94,284.552,42.34
3.97,284.377,42.328
4.0,284.552,43.027
4.04,285.359,42.752
4.07,285.254,42.798
4.1,286.201,42.454
4.13,285.675,42.557
4.17,286.693,42.832
4.2,287.851,43.027
4.23,289.044,42.729
4.26,288.483,42.408
4.3,287.184,42.626
4.33,287.395,42.271
4.36,285.289,41.927
4.39,283.955,41.962
4.43,284.587,41.95
4.46,285.991,41.916
4.49,286.272,41.675
4.52,283.359,41.927
4.56,283.043,41.652
4.59,282.622,40.919
4.62,281.042,40.931
4.66,280.937,40.576
4.69,279.498,40.186
4.72,277.954,40.404
4.75,278.375,40.072
4.79,275.954,39.819
4.82,274.69,39.728
4.85,273.532,39.109
4.88,269.987,39.075
4.92,268.092,39.132
4.95,266.829,39.098
4.98,266.759,39.098
5.01,266.618,38.937
5.05,263.916,39.132
5.08,262.512,39.098
5.11,261.6,38.514
5.14,259.845,38.388
5.18,259.178,38.262
5.21,258.266,37.975
5.24,257.95,37.505
5.27,255.247,37.402
5.31,252.194,37.666
5.34,251.738,37.013
5.37,249.387,36.417
5.4,246.719,36.486
5.44,245.421,36.188
5.47,243.385,35.764
5.5,241.42,35.684
5.53,241.56,35.443
5.57,239.034,35.203
5.6,235.735,35.191
5.63,233.138,34.836
5.66,232.19,34.561
5.7,231.593,34.309
5.73,230.014,34.08
5.76,227.557,33.886
5.79,225.908,33.439
5.83,224.539,32.923
5.86,222.574,32.832
5.89,220.398,32.545
5.92,218.713,32.064
5.96,217.204,31.743
5.99,215.134,31.904
6.02,213.449,31.743
6.05,211.87,31.411
6.09,210.641,30.919
6.12,207.869,30.518
6.15,205.869,29.762
6.18,202.429,29.28
6.22,199.551,29.04
6.25,196.638,28.753
6.28,194.673,28.708
6.32,194.322,28.295
6.35,193.024,27.734
6.38,189.304,27.367
6.41,185.478,26.989
6.45,183.092,26.531
6.48,182.53,25.832
6.51,179.266,25.523
6.54,175.862,25.58
6.58,173.967,25.122
6.61,172.282,24.561
6.64,168.913,24.045
6.67,164.772,23.988
6.71,163.719,23.22
6.74,161.052,22.602
6.77,156.911,22.671
6.8,155.121,22.224
6.84,152.629,21.926
6.87,149.435,21.754
6.9,147.47,20.735
6.93,143.925,20.609
6.97,141.328,20.127
7.0,138.521,19.142
7.03,135.187,19.555
7.06,133.994,19.028
7.1,129.607,18.535
7.13,127.466,18.203
7.16,127.08,16.931
7.19,122.131,16.645
7.23,118.797,15.98
7.26,111.778,15.751
7.29,109.251,15.591
7.32,108.374,14.915
7.36,106.97,14.239
7.39,102.303,13.735
7.42,98.723,13.105
7.45,94.722,12.04
7.49,89.037,12.005
7.52,86.475,11.501
7.55,81.631,10.963
7.58,76.753,11.307
7.62,75.911,10.631
7.65,71.384,10.241
7.68,68.927,10.138
7.71,66.435,9.348
7.75,61.873,8.993
7.78,58.012,8.844
7.81,57.03,7.87
7.85,51.414,7.687
7.88,49.695,7.538
7.91,46.957,6.392
7.94,42.184,6.197
7.98,38.675,5.682
8.01,33.797,5.304
8.04,31.2,4.571
8.07,28.462,3.895
8.11,23.83,3.563
8.14,20.425,3.127
8.17,16.53,2.291
8.2,10.388,2.589
8.24,8.493,2.199
8.27,4.001,1.982
8.3,3.194,1.501
8.33,0.597,0.596
8.37,-3.088,0.241
8.4,-6.879,-0.321
8.43,-12.389,-0.825
8.46,-17.513,-1.031
8.5,-18.495,-1.684
8.53,-16.776,-3.219
8.56,-18.25,-4.445
8.59,-22.917,-5.361
8.63,-29.62,-6.175
8.66,-35.306,-6.575
8.69,-39.026,-6.896
8.72,-42.992,-6.954
8.76,-45.554,-7.16
8.79,-47.203,-7.847
8.82,-51.274,-7.939
8.85,-53.696,-8.237
8.89,-56.187,-9.21
8.92,-60.785,-9.508
8.95,-63.873,-10.058
8.98,-66.295,-11.135
9.02,-70.717,-11.593
9.05,-74.612,-12.04
9.08,-79.034,-12.635
9.11,-84.158,-12.773
9.15,-88.194,-13.002
9.18,-91.458,-13.3
9.21,-93.95,-13.724
9.24,-96.407,-14.056
9.28,-97.495,-14.892
9.31,-102.513,-15.156
9.34,-106.514,-15.316
9.38,-108.093,-16.381
9.41,-109.883,-17.195
9.44,-114.516,-17.699
9.47,-120.236,-17.962
9.51,-122.447,-18.638
9.54,-124.342,-19.096
9.57,-127.22,-19.486
9.6,-131.818,-19.875
9.64,-134.695,-20.391
9.67,-138.486,-21.009
9.7,-141.644,-21.605
9.73,-145.75,-21.892
9.77,-148.734,-21.548
9.8,-148.242,-22.178
9.83,-150.945,-22.819
9.86,-155.753,-23.026
9.9,-158.63,-23.484
9.93,-160.385,-24.148
9.96,-164.351,-24.263
9.99,-165.614,-24.973
10.03,-168.878,-25.454
10.06,-170.352,-25.672
10.09,-172.212,-26.451
10.12,-175.967,-26.588
10.16,-179.091,-27.012
10.19,-183.513,-27.425
10.22,-186.917,-27.539
10.25,-188.426,-27.791
10.29,-190.392,-28.066
10.32,-193.094,-27.963
10.35,-194.357,-28.226
10.38,-195.796,-28.616
10.42,-195.866,-29.246
10.45,-198.218,-29.91
10.48,-200.955,-30.208
10.51,-202.745,-30.815
10.55,-204.605,-31.205
10.58,-204.921,-31.686
10.61,-207.132,-32.041
10.64,-208.887,-32.442
10.68,-210.185,-33.439
10.71,-215.204,-33.611
10.74,-218.748,-33.542
10.77,-220.433,-34.103
10.81,-221.1,-34.516
10.84,-222.328,-34.653
10.87,-224.188,-34.905
10.91,-226.68,-35.489
10.94,-229.312,-35.799
10.97,-232.155,-35.867
11.0,-233.734,-35.993
11.04,-234.576,-36.52
11.07,-237.419,-36.326
11.1,-238.472,-36.245
11.13,-239.384,-36.784
11.17,-242.122,-36.91
11.2,-242.438,-37.127
11.23,-243.034,-37.906
11.26,-246.614,-37.849
11.3,-247.491,-38.136
11.33,-249.316,-38.605
11.36,-250.475,-38.662
11.39,-251.562,-38.823
11.43,-253.212,-39.201
11.46,-256.581,-39.201
11.49,-257.037,-39.441
11.52,-257.845,-40.14
11.56,-260.406,-39.957
11.59,-260.968,-40.003
11.62,-262.126,-40.312
11.65,-263.425,-40.358
11.69,-264.021,-40.587
11.72,-266.092,-40.656
11.75,-268.092,-40.621
11.78,-269.917,-41.011
11.82,-271.181,-41.458
11.85,-272.655,-41.458
11.88,-273.427,-41.16
11.91,-273.637,-41.515
11.95,-275.427,-41.423
11.98,-276.726,-41.171
12.01,-277.603,-41.629
12.04,-279.077,-42.007
12.08,-279.744,-42.065
12.11,-280.13,-42.34
12.14,-281.779,-41.79
12.17,-280.902,-41.767
12.21,-280.762,-42.26
12.24,-282.516,-42.088
12.27,-283.359,-41.939
12.3,-283.815,-42.363
12.34,-284.552,-42.512
12.37,-284.798,-42.546
12.4,-285.394,-42.512
12.44,-285.289,-42.741
12.47,-286.833,-42.248
12.5,-286.201,-42.076
12.53,-286.377,-42.305
12.57,-286.974,-42.317
12.6,-287.325,-42.374
12.63,-286.237,-41.687
12.66,-285.289,-41.859
12.7,-284.973,-41.481
12.73,-283.008,-41.332
12.76,-282.271,-41.778
12.79,-283.815,-42.007
12.83,-284.763,-41.641
12.86,-282.867,-41.584
12.89,-281.323,-41.492
12.92,-280.446,-41.011
12.96,-278.937,-40.736
12.99,-278.059,-40.724
13.02,-277.603,-40.61
13.05,-276.445,-40.908
13.09,-276.831,-40.931
13.12,-276.726,-40.484
13.15,-275.392,-40.026
13.18,-273.076,-39.59
13.22,-269.707,-39.373
13.25,-268.9,-39.029
13.28,-267.426,-38.823
13.31,-264.864,-39.35
13.35,-263.495,-39.476
13.38,-262.231,-39.43
13.41,-261.67,-39.315
13.44,-261.67,-38.823
13.48,-260.336,-38.181
13.51,-257.423,-38.17
13.54,-256.16,-38.078
13.57,-254.581,-37.78
13.61,-253.107,-37.895
13.64,-253.528,-37.551
13.67,-251.247,-37.219
13.7,-248.965,-36.749
13.74,-245.877,-36.497
13.77,-244.543,-36.761
13.8,-243.947,-36.222
13.83,-241.876,-35.879
13.87,-240.262,-35.489
13.9,-238.367,-35.547
13.93,-237.279,-34.928
13.97,-233.945,-34.768
14.0,-233.839,-33.863
14.03,-230.225,-33.668
14.06,-229.207,-33.851
14.1,-226.469,-33.714
14.13,-225.136,-33.633
14.16,-223.521,-33.416
14.19,-221.486,-33.45
14.23,-219.977,-32.866
14.26,-217.029,-32.751
14.29,-215.836,-32.728
14.32,-214.888,-32.27
14.36,-212.782,-32.076
14.39,-211.589,-31.824
14.42,-209.589,-31.526
14.45,-208.009,-31.056
14.49,-205.974,-30.323
14.52,-203.833,-29.75
14.55,-200.99,-29.303
14.58,-199.692,-28.662
14.62,-198.499,-27.826
14.65,-196.077,-27.539
14.68,-194.954,-26.657
14.71,-191.304,-26.038
14.75,-186.882,-25.844
14.78,-183.899,-25.397
14.81,-181.828,-24.881
14.84,-178.108,-24.939
14.88,-175.125,-25.007
14.91,-172.949,-24.813
14.94,-171.51,-24.458
14.97,-169.615,-23.954
15.01,-166.667,-23.392
15.04,-162.456,-23.175
15.07,-160.385,-22.476
15.1,-157.332,-22.018
15.14,-154.454,-21.972
15.17,-150.137,-21.72
15.2,-147.4,-21.422
15.23,-146.487,-20.7
15.27,-144.698,-20.047
15.3,-141.504,-19.394
15.33,-137.538,-19.474
15.36,-136.626,-19.177
15.4,-134.801,-18.466
15.43,-129.782,-18.031
15.46,-126.834,-17.069
15.5,-121.324,-16.794
15.53,-117.604,-16.828
15.56,-114.656,-16.21
15.59,-111.919,-15.591
15.63,-108.304,-15.282
15.66,-106.023,-14.972
15.69,-104.233,-13.873
15.72,-99.249,-13.506
15.76,-94.441,-13.334
15.79,-91.037,-12.601
15.82,-87.984,-11.834
15.85,-83.983,-11.788
15.89,-81.491,-11.295
15.92,-77.315,-10.768
15.95,-74.542,-10.745
15.98,-74.051,-11.284
16.02,-75.174,-11.032
16.05,-72.261,-10.642
16.08,-71.84,-9.657
16.11,-69.664,-7.881
16.15,-63.768,-7.091
16.18,-58.714,-6.243
16.21,-51.941,-5.373
16.24,-44.571,-5.132
16.28,-39.728,-4.387
16.31,-30.533,-4.399
16.34,-26.497,-4.525
16.37,-23.479,-3.677
16.41,-17.407,-4.113
16.44,-14.635,-4.342
16.47,-15.968,-2.99
16.5,-12.599,-1.879
16.54,-6.001,-2.234
16.57,-4.001,-1.524
16.6,-3.825,-0.309
16.63,-2.141,0.172
16.67,0.912,0.435
16.7,3.264,1.546
16.73,7.195,2.131
16.76,11.792,2.131
16.8,16.565,2.154
16.83,17.969,3.013
16.86,20.987,3.666
16.89,22.461,4.72
16.93,27.62,5.728
16.96,34.779,5.487
16.99,38.605,5.625
17.03,41.939,6.117
17.06,45.203,6.404
17.09,47.729,6.896
17.12,50.642,7.354
17.16,54.784,7.847
17.19,59.1,8.214
17.22,61.452,8.844
17.25,64.961,9.073
17.29,68.015,9.359
17.32,71.138,9.921
17.35,73.7,10.23
17.38,76.227,10.573
17.42,78.192,11.536
17.45,83.386,12.189
17.48,88.019,12.2
17.51,89.598,13.254
17.55,94.792,13.518
17.58,96.161,14.056
17.61,99.179,14.881
17.64,104.9,14.468
17.68,106.584,15.465
17.71,110.199,16.324
17.74,113.673,16.37
17.77,116.832,17.023
17.81,120.166,17.722
17.84,124.272,17.985
17.87,126.974,18.134
17.9,128.729,18.879
17.94,132.906,19.268
17.97,137.117,19.715
18.0,141.083,20.07
18.03,143.294,20.563
18.07,145.75,21.307
18.1,150.172,21.445
18.13,152.243,21.766
18.16,154.77,22.384
18.2,159.016,22.533
18.23,162.245,22.911
18.26,164.386,23.301
18.29,166.457,23.736
18.33,168.948,24.034
18.36,170.282,24.847
18.39,173.651,25.065
18.42,175.055,25.5
18.46,178.178,26.405
18.49,182.144,26.909
18.52,185.548,27.287
18.55,189.163,27.516
18.59,191.304,27.791
18.62,192.532,28.215
18.65,194.006,28.57
18.69,194.357,28.032
18.72,188.777,25.764
18.75,179.337,24.916
18.78,176.88,25.603
18.82,177.722,26.863
18.85,180.424,28.032
18.88,181.372,29.315
18.91,185.022,30.838
18.95,190.953,32.305
18.98,198.639,33.84
19.01,206.676,34.733
19.04,212.221,35.753
19.08,219.064,35.867
19.11,222.89,35.673
19.14,225.732,35.695
19.17,229.698,34.802
19.21,230.049,34.321
19.24,230.19,34.745
19.27,232.05,34.733
19.3,232.33,35.065
19.34,234.647,35.615
19.37,237.84,35.707
19.4,239.63,35.81
19.43,240.543,35.89
19.47,240.192,36.337
19.5,241.455,36.566
19.53,244.894,36.383
19.56,245.526,36.818
19.6,246.684,37.712
19.63,250.194,37.322
19.66,250.545,37.517
19.69,251.562,38.113
19.73,252.159,38.445
19.76,254.23,38.869
19.79,257.318,39.201
19.82,259.775,39.441
19.86,261.249,39.636
19.89,262.372,39.705
19.92,263.179,39.693
19.95,263.6,39.659
19.99,263.565,40.037
20.02,265.916,39.877
20.05,267.075,39.831
20.08,267.566,40.919
20.12,269.707,41.16
20.15,270.584,41.08
20.18,271.988,41.389
20.22,273.532,40.919
20.25,272.971,41.412
20.28,275.146,41.492
20.31,276.024,41.263
20.35,277.673,41.87
20.38,279.955,41.584
20.41,279.709,42.179
20.44,281.393,42.374
20.48,281.92,41.813
20.51,281.393,42.076
20.54,282.06,41.939
20.57,281.674,42.019
20.61,281.85,42.592
20.64,283.429,42.477
20.67,283.92,42.248
20.7,283.604,42.775
20.74,284.271,42.878
20.77,284.622,42.592
20.8,284.412,42.408
20.83,284.622,42.477
20.87,285.64,42.237
20.9,285.851,42.088
20.93,286.342,42.145
20.96,286.201,42.191
21.0,285.535,42.317
21.03,285.289,42.156
21.06,285.78,41.79
21.09,285.956,41.813
21.13,287.009,41.71
21.16,286.658,41.389
21.19,284.938,41.629
21.22,284.868,41.148
21.26,282.867,40.69
21.29,280.902,40.61
21.32,279.955,40.358
21.35,279.604,40.117
21.39,279.99,40.026
21.42,278.761,39.842
21.45,275.568,40.003
21.48,274.831,39.522
21.52,272.514,39.098
21.55,270.303,39.132
21.58,268.092,39.144
21.61,267.426,39.144
21.65,267.215,39.063
21.68,266.373,39.109
21.71,264.864,39.052
21.75,263.109,38.926
21.78,261.565,38.582
21.81,259.143,38.514
21.84,258.476,38.399
21.88,257.985,38.078
21.91,256.862,37.918
21.94,254.686,37.838
21.97,252.545,37.918
22.01,252.65,37.368
22.04,251.352,36.864
22.07,249.983,36.578
22.1,246.895,36.543
22.14,245.035,36.486
22.17,244.473,35.856
22.2,242.859,35.604
22.23,241.56,35.466
22.27,240.016,34.825
22.3,236.086,34.458
22.33,233.769,34.298
22.36,231.944,34.069
22.4,229.979,34.103
22.43,228.259,33.863
22.46,226.575,33.84
22.49,225.417,33.679
22.53,223.1,33.301
22.56,220.959,32.625
22.59,218.398,32.293
22.62,217.064,32.007
22.66,215.625,31.377
22.69,211.378,31.48
22.72,209.869,31.503
22.75,209.624,30.758
22.79,207.378,30.449
22.82,204.254,29.945
22.85,201.025,29.693
22.88,199.411,29.681
22.92,198.218,29.383
22.95,196.042,28.971
22.98,193.796,28.765
23.01,193.515,28.49
23.05,191.339,28.02
23.08,188.707,27.207
23.11,185.654,26.577
23.14,183.022,26.256
23.18,179.758,26.004
23.21,176.669,25.477
23.24,174.283,24.939
23.28,173.265,24.939
23.31,172.282,23.931
23.34,167.088,23.805
23.37,163.228,23.094
23.41,158.876,22.441
23.44,154.7,22.957
23.47,154.594,22.419
23.5,152.875,21.96
23.54,150.734,21.914
23.57,148.944,20.838
23.6,144.136,20.494
23.63,140.276,20.185
23.67,137.854,19.589
23.7,136.485,19.096
23.73,133.116,18.821
23.76,130.238,18.306
23.8,126.132,17.905
23.83,124.026,17.481
23.86,121.535,16.702
23.89,118.552,16.141
23.93,114.937,15.534
23.96,110.41,15.373
23.99,107.251,15.144
24.02,104.829,14.663
24.06,102.162,14.102
24.09,98.407,13.644
24.12,94.02,13.094
24.15,90.651,12.372
24.19,86.826,11.788
24.22,83.667,11.467
24.25,80.193,11.02
24.28,75.314,10.883
24.32,70.576,10.883
24.35,69.699,10.001
24.38,66.681,9.164
24.41,63.838,8.786
24.45,58.679,8.317
24.48,54.327,8.145
24.51,51.66,7.721
24.54,50.362,7.251
24.58,48.221,6.369
24.61,43.027,6.175
24.64,39.938,5.544
24.67,36.218,4.697
24.71,30.884,4.639
24.74,27.234,4.548
24.77,24.988,3.826
24.81,22.005,3.276
24.84,15.688,3.54
24.87,11.687,3.677
24.9,10.529,2.681
24.94,8.247,2.051
24.97,5.896,1.329
25.0,-1.088,1.077
25.03,-5.51,0.859
25.07,-8.072,0.0
25.1,-11.476,-0.172
25.13,-14.67,-0.412
25.16,-15.723,-1.432
25.2,-13.617,-3.631
25.23,-18.039,-4.72
25.26,-22.636,-5.453
25.29,-29.48,-6.438
25.33,-35.201,-6.449
25.36,-39.412,-6.495
25.39,-42.851,-6.61
25.42,-44.676,-7.16
25.46,-47.449,-7.675
25.49,-51.379,-7.927
25.52,-53.134,-8.821
25.55,-57.626,-9.439
25.59,-61.031,-9.668
25.62,-62.189,-10.974
25.65,-66.891,-11.627
25.68,-73.454,-11.421
25.72,-77.28,-11.742
25.75,-80.614,-12.074
25.78,-83.351,-12.189
25.81,-87.106,-12.59
25.85,-91.002,-12.807
25.88,-91.985,-13.621
25.91,-94.827,-14.148
25.94,-98.091,-14.64
25.98,-102.443,-15.144
26.01,-105.391,-15.66
26.04,-108.62,-16.244
26.07,-112.094,-16.599
26.11,-115.288,-17.298
26.14,-118.762,-17.699
26.17,-120.201,-18.363
26.2,-122.728,-19.051
26.24,-127.711,-19.497
26.27,-132.625,-19.681
26.3,-134.695,-20.437
26.34,-137.503,-20.815
26.37,-139.574,-21.433
26.4,-143.364,-22.063
26.43,-147.295,-21.811
26.47,-149.681,-22.132
26.5,-151.611,-22.659
26.53,-153.787,-22.991
26.56,-157.191,-23.289
26.6,-160.35,-23.782
26.63,-161.543,-24.618
26.66,-164.246,-25.259
26.69,-168.773,-25.179
26.73,-170.914,-25.741
26.76,-174.599,-26.061
26.79,-177.652,-25.821
26.82,-179.512,-26.382
26.86,-182.425,-27.069
26.89,-185.97,-27.207
26.92,-188.672,-27.287
26.95,-190.707,-27.642
26.99,-191.515,-28.089
27.02,-192.813,-28.433
27.05,-195.34,-28.616
27.08,-197.446,-29.051
27.12,-198.183,-29.979
27.15,-200.148,-30.518
27.18,-202.148,-30.781
27.21,-204.079,-31.297
27.25,-204.991,-31.95
27.28,-207.237,-32.305
27.31,-210.641,-32.27
27.34,-212.431,-32.809
27.38,-213.66,-33.691
27.41,-217.555,-33.794
27.44,-220.328,-33.782
27.47,-222.258,-34.355
27.51,-224.294,-34.63
27.54,-226.645,-34.47
27.57,-227.803,-34.917
27.6,-230.681,-35.226
27.64,-232.014,-35.18
27.67,-232.822,-35.856
27.7,-235.384,-35.879
27.73,-236.261,-36.039
27.77,-237.068,-36.119
27.8,-238.121,-36.646
27.83,-241.455,-37.024
27.87,-243.175,-37.173
27.9,-244.228,-37.574
27.93,-245.351,-37.838
27.96,-246.509,-38.158
28.0,-248.334,-38.605
28.03,-250.404,-38.72
28.06,-251.141,-39.063
28.09,-253.773,-39.235
28.13,-256.3,-39.258
28.16,-258.055,-39.499
28.19,-259.494,-39.716
28.22,-260.301,-39.819
28.26,-260.757,-39.945
28.29,-260.793,-40.22
28.32,-262.758,-40.438
28.35,-265.215,-40.037
28.39,-264.969,-40.77
28.42,-267.004,-41.435
28.45,-269.672,-40.919
28.48,-271.461,-40.919
28.52,-271.988,-41.526
28.55,-273.006,-41.698
28.58,-273.392,-41.595
28.61,-274.515,-41.79
28.65,-276.761,-41.217
28.68,-277.042,-41.584
28.71,-278.796,-42.191
28.74,-280.551,-41.87
28.78,-280.972,-41.778
28.81,-280.902,-42.168
28.84,-281.815,-41.87
28.87,-281.393,-41.744
28.91,-281.99,-42.088
28.94,-283.604,-41.939
28.97,-284.447,-41.813
29.0,-285.149,-41.881
29.04,-285.745,-41.847
29.07,-285.5,-42.191
29.1,-285.5,-42.111
29.13,-283.71,-41.251
29.17,-283.008,-41.4
29.2,-284.517,-42.225
29.23,-285.851,-42.557
29.26,-284.868,-42.431
29.3,-284.447,-42.225
29.33,-284.657,-42.214
29.36,-285.429,-41.927
29.4,-284.026,-41.572
29.43,-282.516,-41.859
29.46,-283.113,-41.973
29.49,-284.306,-41.629
29.53,-283.499,-41.549
29.56,-282.622,-41.423
29.59,-281.534,-40.839
29.62,-280.411,-40.438
29.66,-279.323,-40.22
29.69,-277.673,-40.495
29.72,-277.287,-40.656
29.75,-277.428,-40.461
29.79,-276.34,-40.289
29.82,-273.918,-40.232
29.85,-272.163,-39.774
29.88,-270.409,-39.235
29.92,-268.233,-39.224
29.95,-267.917,-39.098
29.98,-266.443,-38.983
30.01,-264.723,-39.178
30.05,-263.6,-39.109
30.08,-261.6,-38.926
30.11,-259.424,-38.857
30.14,-257.739,-38.754
30.18,-256.967,-38.72
30.21,-257.564,-38.353
30.24,-255.142,-38.433
30.27,-254.3,-38.445
30.31,-253.703,-37.861
30.34,-251.984,-37.448
30.37,-250.089,-36.979
30.4,-249.316,-36.326
30.44,-246.895,-36.016
30.47,-245.105,-36.154
30.5,-244.228,-35.512
30.53,-240.613,-35.524
30.57,-240.016,-35.501
30.6,-238.016,-34.745
30.63,-234.471,-34.63
30.66,-235.103,-33.897
30.7,-232.962,-33.37
30.73,-228.856,-33.782
30.76,-226.785,-33.29
30.79,-223.627,-33.233
30.83,-221.275,-34.046
30.86,-221.942,-33.633
30.89,-220.714,-32.706
30.92,-217.941,-32.797
30.96,-216.748,-32.488
30.99,-213.309,-32.213
31.02,-213.309,-31.846
31.06,-213.239,-30.941
31.09,-208.852,-31.182
31.12,-207.237,-30.667
31.15,-203.622,-29.979
31.19,-201.271,-29.922
31.22,-200.359,-29.292
31.25,-199.025,-28.902
31.28,-198.779,-28.055
31.32,-195.27,-27.883
31.35,-193.234,-27.299
31.38,-189.479,-26.84
31.41,-188.637,-26.05
31.45,-183.548,-25.752
31.48,-179.547,-25.935
31.51,-178.424,-25.214
31.54,-178.143,-24.927
31.58,-174.704,-24.744
31.61,-170.036,-24.733
31.64,-166.702,-24.297
31.67,-164.983,-24.137
31.71,-163.86,-23.507
31.74,-160.806,-23.014
31.77,-157.332,-22.59
31.8,-154.173,-22.705
31.84,-152.313,-21.926
31.87,-149.751,-20.975
31.9,-146.382,-20.712
31.93,-143.855,-20.368
31.97,-141.609,-19.715
32.0,-136.134,-19.635
32.03,-134.45,-19.131
32.06,-131.783,-18.661
32.1,-127.782,-19.016
32.13,-126.729,-18.306
32.16,-124.307,-17.493
32.19,-121.535,-17.046
32.23,-118.552,-16.221
32.26,-112.621,-16.003
32.29,-109.392,-15.717
32.32,-105.847,-15.328
32.36,-104.935,-14.583
32.39,-102.022,-13.678
32.42,-98.056,-13.128
32.45,-93.704,-12.143
32.49,-87.387,-11.799
32.52,-83.492,-11.547
32.55,-80.157,-11.33
32.59,-77.315,-11.307
32.62,-74.928,-11.204
32.65,-71.419,-11.032
32.68,-68.892,-10.642
32.72,-67.383,-9.462
32.75,-62.294,-9.038
32.78,-58.925,-8.557
32.81,-54.854,-7.618
32.85,-50.923,-6.942
32.88,-46.957,-6.301
32.91,-41.763,-6.003
32.94,-36.288,-6.014
32.98,-33.691,-5.797
33.01,-31.305,-5.27
33.04,-28.778,-4.96
33.07,-25.444,-4.387
33.11,-21.899,-4.113
33.14,-19.969,-3.288
33.17,-13.301,-3.448
33.2,-9.265,-3.654
33.24,-7.932,-2.795
33.27,-5.124,-2.131
33.3,-2.036,-2.085
33.33,-2.527,-0.527
33.37,2.597,0.344
33.4,4.317,1.008
33.43,7.721,2.303
33.46,14.073,2.841
33.5,21.829,2.497
33.53,24.321,2.841
33.56,26.953,3.391
33.59,27.304,3.849
33.63,30.603,4.697
33.66,35.902,4.88
33.69,39.342,5.567
33.72,44.431,5.751
33.76,45.905,6.289
33.79,48.958,6.931
33.82,52.888,6.999
33.85,55.31,7.732
33.89,59.767,8.225
33.92,62.891,8.454
33.95,66.049,9.073
33.98,71.419,8.912
34.02,71.243,9.921
34.05,75.174,10.596
34.08,79.666,10.402
34.12,82.79,11.421
34.15,86.089,11.925
34.18,88.44,12.429
34.21,92.722,12.784
34.25,94.617,13.609
34.28,97.073,14.652
34.31,104.654,14.251
34.34,107.672,14.549
34.38,110.304,15.431
34.41,112.761,15.419
34.44,113.533,16.553
34.47,119.499,16.874
34.51,123.57,16.954
34.54,125.536,18.008
34.57,128.729,18.214
34.6,131.853,18.65
34.64,134.801,19.669
34.67,137.292,20.139
34.7,142.206,20.322
34.73,145.154,20.872
34.77,148.418,21.181
34.8,151.295,21.284
34.83,152.559,21.766
34.86,155.226,22.086
34.9,157.367,22.522
34.93,160.245,23.415
34.96,165.193,23.415
34.99,166.632,23.885
35.03,168.773,24.664
35.06,171.651,24.95
35.09,173.897,25.546
35.12,177.196,26.061
35.16,181.302,26.256
35.19,183.759,26.714
35.22,185.443,27.39
35.25,187.97,27.321
35.29,188.777,26.932
35.32,187.724,26.966
35.35,186.426,27.7
35.38,189.549,28.249
35.42,193.515,28.65
35.45,195.515,29.83
35.48,198.604,30.689
35.51,202.956,30.93
35.55,207.413,31.102
35.58,209.975,31.468
35.61,210.571,32.247
35.65,213.976,32.534
35.68,217.836,32.568
35.71,220.609,33.015
35.74,222.539,33.381
35.78,224.715,33.622
35.81,226.926,33.45
35.84,227.242,33.221
35.87,227.908,33.416
35.91,228.259,33.977
35.94,229.102,34.424
35.97,230.962,34.642
36.0,232.927,35.088
36.04,235.173,35.455
36.07,236.963,35.501
36.1,238.402,35.558
36.13,238.858,36.005
36.17,240.472,36.509
36.2,244.017,36.497
36.23,245.21,36.852
36.26,245.491,37.803
36.3,248.123,38.01
36.33,249.948,38.044
36.36,252.51,38.216
36.39,253.773,38.307
36.43,255.283,38.353
36.46,256.055,38.41
36.49,256.335,39.086
36.52,258.722,39.304
36.56,260.442,39.556
36.59,261.6,39.911
36.62,262.267,40.22
36.65,264.162,40.129
36.69,264.864,40.186
36.72,265.495,40.828
36.75,267.145,41.068
36.78,269.145,41.034
36.82,271.426,41.183
36.85,272.971,41.24
36.88,273.532,41.526
36.91,274.059,41.824
36.95,276.129,41.618
36.98,277.779,41.034
37.01,277.849,41.824
37.04,280.2,42.03
37.08,280.235,41.996
37.11,280.937,42.386
37.14,281.709,42.053
37.18,281.99,42.019
37.21,282.762,41.859
37.24,282.938,42.076
37.27,283.99,42.294
37.31,284.938,42.282
37.34,284.938,42.534
37.37,285.219,42.775
37.4,286.342,42.615
37.44,287.044,42.489
37.47,287.465,42.386
37.5,287.149,42.649
37.53,288.237,42.97
37.57,289.22,42.534
37.6,288.483,42.477
37.63,288.377,42.523
37.66,288.202,41.859
37.7,286.412,41.939
37.73,285.64,41.916
37.76,284.973,41.755
37.79,285.921,41.744
37.83,286.096,41.629
37.86,284.938,41.561
37.89,282.762,41.343
37.92,281.604,41.125
37.96,281.007,40.702
37.99,279.533,40.541
38.02,278.445,40.576
38.05,278.235,40.472
38.09,276.375,40.461
38.12,275.111,40.518
38.15,274.585,39.9
38.18,272.198,39.716
38.22,270.444,39.602
38.25,267.776,39.567
38.28,268.233,39.258
38.31,266.899,39.189
38.35,265.495,39.464
38.38,263.881,39.247
38.41,262.477,39.178
38.44,261.705,38.846
38.48,259.459,38.903
38.51,259.213,38.456
38.54,256.546,38.365
38.57,255.809,38.342
38.61,253.598,38.101
38.64,252.58,37.998
38.67,251.247,37.357
38.71,248.755,37.196
38.74,247.562,36.646
38.77,245.035,36.429
38.8,243.877,36.016
38.84,240.823,35.753
38.87,239.349,35.844
38.9,238.051,35.661
38.93,236.156,35.329
38.97,233.348,35.157
39.0,232.19,34.871
39.03,230.084,34.699
39.06,229.066,34.447
39.1,227.838,34.183
39.13,225.241,34.092
39.16,223.346,33.92
39.19,224.258,32.946
39.23,219.731,32.637
39.26,217.415,33.152
39.29,216.748,32.637
39.32,214.993,32.454
39.36,213.379,32.476
39.39,212.747,32.236
39.42,212.326,31.434
39.45,209.448,30.907
39.49,204.991,30.529
39.52,201.376,30.185
39.55,199.657,29.796
39.58,198.253,29.521
39.62,196.919,29.154
39.65,194.112,28.765
39.68,190.216,28.731
39.71,188.812,28.123
39.75,186.25,27.585
39.78,183.618,27.333
39.81,182.32,26.371
39.84,178.073,26.21
39.88,175.23,26.302
39.91,173.897,25.626
39.94,170.879,25.408
39.97,168.913,24.813
40.01,164.456,24.549
40.04,161.789,24.377
40.07,160.42,23.472
40.1,157.191,23.392
40.14,153.998,23.255
40.17,151.682,22.705
40.2,148.839,22.235
40.24,146.523,21.72
40.27,145.013,21.009
40.3,141.223,20.299
40.33,136.591,19.967
40.37,133.853,19.749
40.4,133.081,19.406
40.43,130.87,18.925
40.46,126.659,18.65
40.5,124.167,18.054
40.53,121.78,17.264
40.56,118.376,16.828
40.59,114.937,16.267
40.63,111.111,15.854
40.66,108.76,15.339
40.69,104.198,14.995
40.72,99.986,14.812
40.76,96.933,14.056
40.79,92.862,13.747
40.82,90.265,13.243
40.85,85.983,12.681
40.89,82.298,12.315
40.92,79.526,11.73
40.95,76.718,11.055
40.98,72.226,10.745
41.02,68.365,10.47
41.05,65.663,9.726
41.08,63.136,9.004
41.11,57.942,8.901
41.15,54.012,8.844
41.18,51.204,8.317
41.21,48.221,8.042
41.24,44.606,7.927
41.28,42.22,7.366
41.31,40.57,6.358
41.34,36.745,5.842
41.37,33.411,5.315
41.41,28.603,4.628
41.44,25.128,4.135
41.47,20.882,3.563
41.5,13.441,4.032
41.54,12.038,3.402
41.57,7.826,2.738
41.6,6.949,2.268
41.63,3.685,1.272
41.67,-3.369,1.455
41.7,-4.878,0.756
41.73,-7.545,-0.206
41.77,-11.16,-0.309
41.8,-14.565,-0.756
41.83,-15.021,-2.096
41.86,-14.74,-4.078
41.9,-18.951,-4.892
41.93,-25.093,-5.682
41.96,-31.586,-6.014
41.99,-32.568,-6.965
42.03,-38.394,-6.85
42.06,-40.254,-6.931
42.09,-43.237,-8.007
42.12,-48.01,-7.973
42.16,-51.66,-8.202
42.19,-54.398,-8.993
42.22,-57.942,-9.439
42.25,-59.521,-10.161
42.29,-63.943,-10.906
42.32,-68.892,-11.066
42.35,-73.314,-11.65
42.38,-78.473,-11.593
42.42,-80.894,-11.845
42.45,-82.649,-12.555
42.48,-87.071,-12.761
42.51,-90.125,-13.094
42.55,-91.879,-14.136
42.58,-96.056,-14.4
42.61,-99.074,-14.697
42.64,-101.109,-15.511
42.68,-103.531,-16.164
42.71,-106.689,-16.954
42.74,-112.55,-17.309
42.77,-117.534,-17.493
42.81,-120.096,-17.939
42.84,-120.903,-18.535
42.87,-123.465,-18.947
42.9,-124.974,-19.852
42.94,-129.747,-20.551
42.97,-135.468,-20.494
43.0,-140.135,-21.067
43.03,-142.101,-21.628
43.07,-143.61,-21.903
43.1,-146.242,-21.788
43.13,-149.19,-22.166
43.16,-153.542,-22.716
43.2,-156.068,-23.083
43.23,-157.613,-23.598
43.26,-160.35,-24.022
43.29,-162.701,-24.744
43.33,-166.422,-25.271
43.36,-170.528,-25.133
43.39,-171.826,-25.408
43.43,-172.353,-26.222
43.46,-176.494,-26.107
43.49,-179.582,-26.279
43.52,-183.443,-26.978
43.56,-185.408,-27.333
43.59,-187.408,-27.585
43.62,-189.619,-27.631
43.65,-191.058,-28.192
43.69,-193.866,-28.387
43.72,-195.41,-28.513
43.75,-195.656,-29.406
43.78,-199.762,-29.819
43.82,-202.359,-29.658
43.85,-202.289,-30.655
43.88,-205.132,-30.884
43.91,-205.447,-31.125
43.95,-207.623,-31.675
43.98,-209.483,-32.087
44.01,-209.869,-33.049
44.04,-212.431,-33.874
44.08,-215.976,-34.183
44.11,-218.187,-34.756
44.14,-221.346,-34.985
44.17,-223.872,-34.836
44.21,-225.241,-34.997
44.24,-226.855,-35.455
44.27,-230.47,-35.249
44.3,-232.401,-35.237
44.34,-233.875,-35.764
44.37,-236.226,-35.695
44.4,-237.63,-35.535
44.43,-237.314,-35.776
44.47,-237.946,-36.509
44.5,-240.367,-36.761
44.53,-241.946,-37.15
44.56,-244.087,-37.654
44.6,-246.158,-37.987
44.63,-247.281,-38.456
44.66,-248.685,-38.834
44.69,-250.299,-38.983
44.73,-252.545,-39.098
44.76,-254.124,-39.247
44.79,-255.177,-39.659
44.82,-257.494,-39.693
44.86,-258.476,-39.923
44.89,-260.056,-40.232
44.92,-261.003,-40.232
44.96,-262.442,-40.186
44.99,-264.091,-40.014
45.02,-264.091,-40.507
45.05,-265.776,-40.667
45.09,-267.18,-40.656
45.12,-268.513,-41.32
45.15,-270.865,-41.412
45.18,-272.479,-41.08
45.22,-272.304,-41.458
45.25,-273.181,-41.95
45.28,-275.497,-41.263
45.31,-275.568,-41.526
45.35,-277.603,-41.973
45.38,-279.007,-41.836
45.41,-279.955,-42.03
45.44,-280.656,-42.145
45.48,-281.569,-41.904
45.51,-281.007,-41.939
45.54,-281.218,-42.076
45.57,-282.025,-42.03
45.61,-283.113,-42.111
45.64,-283.85,-42.076
45.67,-284.271,-42.271
45.7,-284.622,-42.351
45.74,-284.447,-42.615
45.77,-284.903,-42.5
45.8,-283.955,-42.065
45.83,-283.604,-41.973
45.87,-284.798,-42.512
45.9,-286.377,-42.615
45.93,-286.482,-42.237
45.96,-285.114,-42.397
46.0,-286.272,-42.271
46.03,-286.763,-41.721
46.06,-284.692,-41.641
46.09,-283.99,-41.767
46.13,-284.938,-41.595
46.16,-285.605,-41.32
46.19,-283.85,-41.355
46.22,-282.201,-41.297
46.26,-281.007,-40.759
46.29,-279.744,-40.621
46.32,-279.674,-40.324
46.35,-277.077,-40.576
46.39,-276.48,-40.885
46.42,-276.585,-40.541
46.45,-275.638,-40.472
46.49,-274.69,-40.22
46.52,-271.883,-39.877
46.55,-270.163,-39.567
46.58,-268.443,-39.27
46.62,-267.004,-39.522
46.65,-267.847,-39.201
46.68,-265.846,-39.121
46.71,-264.407,-39.178
46.75,-262.267,-38.846
46.78,-259.88,-38.617
46.81,-258.757,-38.284
46.84,-257.002,-38.204
46.88,-255.072,-38.468
46.91,-255.072,-38.262
46.94,-254.16,-37.929
46.97,-253.493,-37.735
47.01,-251.738,-37.208
47.04,-249.001,-36.795
47.07,-247.527,-36.257
47.1,-245.596,-35.97
47.14,-244.263,-35.753
47.17,-242.297,-35.569
47.2,-240.402,-35.169
47.23,-237.209,-35.123
47.27,-235.98,-35.031
47.3,-234.927,-34.493
47.33,-232.997,-34.355
47.36,-230.54,-34.481
47.4,-229.277,-34.218
47.43,-226.75,-33.851
47.46,-225.522,-33.943
47.49,-225.838,-33.038
47.53,-220.644,-33.107
47.56,-220.152,-32.809
47.59,-217.099,-31.938
47.62,-213.976,-32.293
47.66,-213.66,-32.293
47.69,-212.607,-31.95
47.72,-210.712,-31.778
47.75,-208.781,-31.56
47.79,-207.062,-31.033
47.82,-206.29,-30.025
47.85,-203.307,-29.578
47.88,-201.411,-29.063
47.92,-199.973,-28.318
47.95,-198.148,-27.837
47.98,-195.761,-27.539
48.02,-194.568,-26.646
48.05,-189.444,-26.416
48.08,-186.847,-25.993
48.11,-184.846,-25.076
48.15,-181.618,-24.996
48.18,-179.442,-24.675
48.21,-177.231,-24.332
48.24,-172.984,-24.572
48.28,-172.528,-23.885
48.31,-168.422,-23.323
48.34,-164.175,-23.702
48.37,-163.368,-22.613
48.41,-159.648,-22.487
48.44,-157.016,-22.304
48.47,-153.717,-22.109
48.5,-152.032,-21.972
48.54,-150.804,-21.273
48.57,-148.488,-20.471
48.6,-145.013,-19.875
48.63,-141.679,-19.177
48.67,-136.099,-18.947
48.7,-134.801,-18.569
48.73,-132.555,-18.02
48.76,-128.273,-18.249
48.8,-126.202,-17.573
48.83,-123.36,-16.908
48.86,-120.657,-16.485
48.89,-117.885,-15.889
48.93,-114.059,-15.224
48.96,-110.655,-14.778
48.99,-108.199,-14.102
49.02,-103.531,-13.724
49.06,-99.319,-13.495
49.09,-95.319,-12.91
49.12,-91.563,-12.452
49.15,-89.282,-11.696
49.19,-83.983,-11.41
49.22,-78.262,-11.708
49.25,-76.157,-11.249
49.28,-73.595,-10.677
49.32,-70.927,-10.654
49.35,-69.559,-9.783
49.38,-64.645,-9.164
49.41,-62.82,-8.466
49.45,-58.749,-7.606
49.48,-53.625,-7.584
49.51,-50.221,-7.068
49.55,-46.185,-6.713
49.58,-44.676,-6.14
49.61,-41.096,-5.522
49.64,-34.077,-5.751
49.68,-32.674,-5.006
49.71,-28.778,-3.998
49.74,-23.689,-4.502
49.77,-23.549,-3.494
49.81,-18.951,-2.749
49.84,-17.021,-2.474
49.87,-12.74,-1.959
49.9,-9.932,-1.466
49.94,-8.247,-0.355
49.97,-4.282,-0.046
50.0,-3.053,0.951
50.03,0.105,2.268
50.07,6.071,2.577
50.1,12.494,2.486
50.13,19.232,2.532
50.16,23.83,2.188
50.2,23.584,2.543
50.23,25.444,2.864
50.26,25.935,3.826
50.29,30.392,4.628
50.33,34.077,5.235
50.36,39.026,5.716
50.39,41.588,6.381
50.42,46.08,6.839
50.46,49.239,7.045
50.49,53.836,7.297
50.52,55.415,7.744
50.55,57.556,8.752
50.59,62.119,8.809
50.62,65.277,9.325
50.65,68.33,10.035
50.68,73.209,10.218
50.72,75.911,10.436
50.75,78.683,11.204
50.78,82.614,11.226
50.81,84.579,12.166
50.85,88.721,12.578
50.88,91.423,13.162
50.91,96.512,13.392
50.94,99.53,13.85
50.98,103.004,14.193
51.01,103.426,15.098
51.04,107.848,15.82
51.08,111.392,16.187
51.11,114.937,17.057
51.14,118.867,17.401
51.17,122.166,17.962
51.21,126.202,18.111
51.24,128.133,18.604
51.27,132.133,19.096
51.3,135.573,19.096
51.34,137.679,20.093
51.37,142.311,20.345
51.4,145.786,20.414
51.43,147.61,20.987
51.47,149.857,21.422
51.5,152.103,21.857
51.53,154.875,22.567
51.56,159.438,22.499
51.6,161.333,22.991
51.63,163.474,23.702
51.66,166.246,23.999
51.69,169.405,24.194
51.73,171.265,24.927
51.76,174.493,25.271
51.79,176.213,25.534
51.82,177.477,26.588
51.86,181.583,27.253
51.89,185.899,27.39
51.92,189.865,27.562
51.95,191.164,27.734
51.99,190.707,28.055
52.02,192.287,28.215
52.05,194.849,28.742
52.08,198.077,29.406
52.12,200.078,30.151
52.15,203.798,30.38
52.18,206.325,30.575
52.21,208.36,31.022
52.25,210.677,30.85
52.28,211.238,31.205
52.31,213.87,31.663
52.34,215.379,32.156
52.38,217.976,32.454
52.41,219.696,32.511
52.44,220.609,33.038
52.47,221.205,33.45
52.51,222.714,33.359
52.54,224.995,33.381
52.57,226.645,34.39
52.61,229.523,34.664
52.64,230.891,34.676
52.67,232.19,35.157
52.7,234.05,35.799
52.74,236.928,35.753
52.77,237.665,35.902
52.8,239.384,36.394
52.83,241.982,36.555
52.87,243.28,36.921
52.9,244.228,37.62
52.93,246.79,37.849
52.96,249.527,37.861
53.0,251.387,37.906
53.03,251.738,38.101
53.06,253.423,38.032
53.09,254.124,38.399
53.13,257.143,38.617
53.16,258.266,38.777
53.19,258.406,39.487
53.22,259.705,39.934
53.26,262.337,39.831
53.29,263.53,39.774
53.32,263.916,40.301
53.35,265.636,40.129
53.39,265.881,40.346
53.42,268.303,40.862
53.45,270.9,40.381
53.48,271.146,41.16
53.52,273.111,41.458
53.55,273.111,41.297
53.58,273.953,41.629
53.61,275.673,41.251
53.65,276.199,41.458
53.68,277.954,41.778
53.71,278.621,42.042
53.74,279.393,42.603
53.78,281.499,42.042
53.81,280.902,42.065
53.84,281.288,42.466
53.87,282.622,41.824
53.91,282.306,41.927
53.94,283.113,42.569
53.97,284.166,42.408
54.0,284.131,42.706
54.04,285.394,42.706
54.07,285.394,42.786
54.1,286.517,43.004
54.14,286.658,42.294
54.17,286.166,42.798
54.2,288.237,42.729
54.23,289.149,42.305
54.27,289.22,42.191
54.3,287.114,42.66
54.33,287.219,42.512
54.36,286.728,41.836
54.4,285.745,41.698
54.43,286.307,41.572
54.46,286.938,41.251
54.49,285.5,41.217
54.53,283.745,41.332
54.56,282.376,41.045
54.59,281.113,40.747
54.62,280.341,40.633
54.66,279.709,40.335
54.69,277.954,40.381
54.72,277.357,40.61
54.75,277.287,40.381
54.79,275.989,40.209
54.82,274.866,39.968
54.85,273.111,39.522
54.88,270.303,39.419
54.92,268.478,39.258
54.95,266.724,39.281
54.98,266.583,39.338
55.01,266.267,39.144
55.05,264.864,39.029
55.08,262.863,38.926
55.11,261.494,38.617
55.14,260.336,38.193
55.18,258.16,38.216
55.21,257.388,38.239
55.24,257.494,37.574
55.27,253.949,37.815
55.31,254.054,37.723
55.34,253.107,36.715
55.37,249.141,36.612
55.4,245.947,36.784
55.44,245.561,36.234
55.47,243.877,35.81
55.5,241.209,36.051
55.53,239.876,35.936
55.57,238.226,35.535
55.6,235.349,35.501
55.63,234.401,35.134
55.66,232.857,34.561
55.7,230.154,34.699
55.73,228.751,34.584
55.76,226.961,34.229
55.8,224.785,34.367
55.83,224.96,34.08
55.86,223.521,33.393
55.89,220.503,32.877
55.93,218.713,32.637
55.96,217.906,32.316
55.99,216.362,31.835
56.02,213.484,31.72
56.06,212.396,31.365
56.09,210.747,30.884
56.12,207.658,30.632
56.15,205.096,30.082
56.19,202.499,29.544
56.22,199.692,29.269
56.25,196.393,29.292
56.28,195.2,29.005
56.32,193.62,28.639
56.35,191.409,28.433
56.38,188.461,27.94
56.41,185.689,27.482
56.45,183.583,26.943
56.48,180.811,26.554
56.51,178.6,26.119
56.54,176.88,25.798
56.58,174.985,25.454
56.61,171.651,25.019
56.64,168.106,24.572
56.67,165.509,24.091
56.71,162.245,23.805
56.74,159.262,23.438
56.77,157.156,23.026
56.8,155.437,22.797
56.84,153.506,22.258
56.87,151.085,21.388
56.9,147.26,20.861
56.93,144.312,20.609
56.97,141.188,19.841
57.0,138.135,19.52
57.03,136.485,18.993
57.06,132.73,18.902
57.1,130.273,18.661
57.13,128.308,17.79
57.16,124.062,17.435
57.19,121.008,17.08
57.23,118.657,16.095
57.26,113.603,15.751
57.29,110.69,15.58
57.33,108.971,14.812
57.36,105.602,14.274
57.39,100.443,14.285
57.42,98.267,13.54
57.46,93.774,12.635
57.49,88.51,12.842
57.52,87.141,11.914
57.55,81.842,11.421
57.59,77.701,11.719
57.62,75.174,11.284
57.65,73.138,10.436
57.68,69.734,9.932
57.72,65.944,9.657
57.75,63.277,8.798
57.78,60.223,7.973
57.81,57.697,7.412
57.85,53.204,6.988
57.88,48.712,6.908
57.91,45.905,6.152
57.94,40.921,6.083
57.98,38.885,5.602
58.01,33.481,5.407
58.04,32.217,4.72
58.07,25.584,4.571
58.11,24.181,4.353
58.14,20.25,3.368
58.17,15.442,3.803
58.2,14.529,2.852
58.24,10.388,2.199
58.27,7.405,1.489
58.3,1.79,1.329
58.33,-0.105,0.676
58.37,-3.72,0.057
58.4,-6.984,-0.16
58.43,-11.967,-0.435
58.46,-15.863,-0.756
58.5,-18.039,-1.386
58.53,-15.933,-2.772
58.56,-18.25,-4.365
58.59,-24.146,-4.811
58.63,-29.269,-6.049
58.66,-37.201,-6.037
58.69,-40.886,-6.14
58.72,-44.255,-6.495
58.76,-43.764,-7.446
58.79,-47.659,-7.87
58.82,-50.607,-8.191
58.86,-54.433,-8.786
58.89,-58.328,-9.199
58.92,-60.083,-9.863
58.95,-60.75,-11.181
58.99,-68.365,-10.894
59.02,-70.752,-11.467
59.05,-76.262,-12.04
59.08,-80.087,-11.65
59.12,-82.368,-12.498
59.15,-85.738,-12.887
59.18,-87.914,-13.598
59.21,-91.844,-14.228
59.25,-96.371,-14.526
59.28,-99.916,-14.938
59.31,-102.899,-15.454
59.34,-105.356,-15.923
59.38,-109.006,-16.416
59.41,-112.901,-16.794
59.44,-115.919,-17.447
59.47,-117.99,-18.042
59.51,-119.394,-18.936
59.54,-124.518,-19.211
59.57,-128.098,-19.555
59.6,-131.607,-20.196
59.64,-135.432,-20.196
59.67,-138.591,-20.918
59.7,-142.206,-21.456
59.73,-145.154,-21.399
59.77,-147.084,-21.284
59.8,-147.084,-21.892
59.83,-150.558,-22.842
59.86,-154.454,-23.289
59.9,-157.367,-23.85
59.93,-160.42,-24.183
59.96,-162.807,-24.939
59.99,-167.264,-25.133
60.03,-169.545,-25.259
60.06,-172.458,-25.431
60.09,-174.107,-25.638
60.12,-176.389,-25.947
60.16,-179.758,-26.153
60.19,-182.355,-26.669
60.22,-183.372,-27.516
60.25,-187.303,-27.734
60.29,-190.637,-27.436
60.32,-191.69,-28.112
60.35,-193.866,-28.352
60.39,-194.217,-28.593
60.42,-196.638,-29.086
60.45,-199.095,-29.59
60.48,-200.745,-30.197
60.52,-201.587,-30.747
60.55,-202.534,-31.434
60.58,-205.658,-31.606
60.61,-207.343,-31.984
60.65,-209.308,-32.614
60.68,-211.168,-33.141
60.71,-213.905,-33.588
60.74,-215.414,-34.286
60.78,-218.819,-34.813
60.81,-222.398,-34.55
60.84,-223.872,-34.802
60.87,-226.294,-34.848
60.91,-227.171,-35.02
60.94,-228.751,-35.386
60.97,-231.137,-35.615
61.0,-233.032,-35.97
61.04,-236.086,-35.959
61.07,-237.63,-35.833
61.1,-237.7,-36.051
61.13,-239.595,-36.257
61.17,-241.034,-36.578
61.2,-242.473,-37.047
61.23,-244.438,-37.357
61.26,-246.684,-37.597
61.3,-248.579,-38.01
61.33,-250.159,-38.204
61.36,-250.755,-38.33
61.39,-251.422,-38.685
61.43,-253.528,-38.903
61.46,-254.967,-39.155
61.49,-256.651,-39.59
61.52,-259.143,-39.648
61.56,-260.126,-39.842
61.59,-261.53,-39.991
61.62,-263.144,-39.774
61.65,-262.372,-40.129
61.69,-263.495,-40.633
61.72,-265.741,-40.312
61.75,-266.829,-40.644
61.78,-269.426,-40.885
61.82,-270.9,-40.954
61.85,-272.374,-41.229
61.88,-273.743,-41.022
61.92,-273.602,-41.183
61.95,-273.462,-41.79
61.98,-276.094,-41.595
62.01,-277.077,-41.24
62.05,-277.533,-42.26
62.08,-280.376,-41.893
62.11,-280.235,-41.71
62.14,-281.323,-42.076
62.18,-281.955,-41.71
62.21,-281.674,-41.813
62.24,-282.166,-42.03
62.27,-283.113,-42.156
62.31,-284.412,-41.859
62.34,-284.517,-41.973
62.37,-285.114,-42.191
62.4,-285.886,-42.248
62.44,-286.237,-42.282
62.47,-286.412,-42.099
62.5,-285.324,-42.019
62.53,-285.921,-41.595
62.57,-286.833,-41.538
62.6,-286.096,-42.03
62.63,-285.605,-41.985
62.66,-284.482,-41.71
62.7,-283.745,-41.985
62.73,-285.324,-41.572
62.76,-284.657,-41.251
62.79,-284.026,-41.664
62.83,-284.622,-41.492
62.86,-283.078,-41.263
62.89,-282.411,-41.148
62.92,-282.095,-40.576
62.96,-279.709,-40.369
62.99,-277.638,-40.415
63.02,-277.007,-40.427
63.05,-277.533,-40.346
63.09,-276.62,-40.45
63.12,-276.059,-40.266
63.15,-274.901,-39.625
63.18,-271.812,-39.453
63.22,-269.461,-39.396
63.25,-268.338,-39.063
63.28,-267.741,-38.972
63.31,-267.004,-39.098
63.35,-265.355,-39.109
63.38,-263.565,-39.041
63.41,-262.196,-38.811
63.45,-260.512,-38.548
63.48,-259.143,-38.296
63.51,-257.564,-38.113
63.54,-255.563,-38.262
63.58,-255.318,-38.09
63.61,-254.581,-37.643
63.64,-252.194,-37.666
63.67,-250.896,-37.299
63.71,-249.106,-36.669
63.74,-248.018,-36.131
63.77,-246.263,-35.741
63.8,-245.351,-35.214
63.84,-242.999,-34.836
63.87,-240.508,-34.722
63.9,-237.279,-34.733
63.93,-235.594,-34.745
63.97,-234.892,-34.218
64.0,-232.33,-34.286
64.03,-231.383,-34.252
64.06,-230.19,-33.771
64.1,-227.803,-33.485
64.13,-225.803,-33.347
64.16,-222.784,-33.278
64.19,-219.626,-33.381
64.23,-218.748,-33.129
64.26,-216.537,-32.648
64.29,-214.291,-32.774
64.32,-214.116,-32.614
64.36,-213.063,-32.224
64.39,-212.993,-31.514
64.42,-210.431,-30.953
64.45,-207.202,-30.724
64.49,-205.798,-29.727
64.52,-202.921,-29.177
64.55,-200.499,-28.983
64.58,-199.376,-28.261
64.62,-196.989,-27.952
64.65,-195.866,-27.493
64.68,-192.497,-27.104
64.71,-190.462,-26.691
64.75,-187.865,-25.89
64.78,-184.32,-25.798
64.81,-182.214,-25.122
64.84,-179.231,-24.881
64.88,-177.757,-24.549
64.91,-173.616,-24.595
64.94,-172.528,-24.08
64.98,-170.247,-23.094
65.01,-163.193,-23.656
65.04,-159.964,-23.541
65.07,-159.508,-22.751
65.11,-158.174,-22.648
65.14,-154.875,-22.602
65.17,-152.84,-21.983
65.2,-151.19,-21.25
65.24,-148.944,-20.586
65.27,-144.452,-19.841
65.3,-140.942,-19.6
65.33,-137.257,-19.199
65.37,-134.731,-18.993
65.4,-132.976,-18.501
65.43,-129.747,-18.226
65.46,-127.15,-17.516
65.5,-123.009,-17.126
65.53,-120.552,-16.496
65.56,-115.849,-16.038
65.59,-112.234,-15.809
65.63,-110.725,-15.098
65.66,-108.128,-14.423
65.69,-102.969,-14.377
65.72,-100.092,-13.77
65.76,-95.564,-12.899
65.79,-90.721,-12.887
65.82,-88.405,-12.235
65.85,-85.211,-11.456
65.89,-81.281,-11.112
65.92,-76.051,-11.123
65.95,-73.665,-10.516
65.98,-70.226,-9.932
66.02,-67.769,-9.714
66.05,-64.996,-8.958
66.08,-59.627,-8.786
66.11,-56.749,-8.34
66.15,-53.555,-7.778
66.18,-49.66,-7.561
66.21,-47.063,-7.183
66.24,-44.431,-6.255
66.28,-40.079,-5.991
66.31,-38.148,-5.315
66.34,-35.236,-4.387
66.37,-30.814,-3.918
66.41,-24.707,-4.032
66.44,-20.917,-3.746
66.47,-17.477,-3.414
66.51,-16.354,-3.059
66.54,-13.091,-2.635
66.57,-10.423,-2.142
66.6,-8.002,-0.997
66.64,-5.334,-0.092
66.67,-4.352,1.237
66.7,-0.562,2.36
66.73,5.966,2.623
66.77,12.845,2.692
66.8,20.11,2.555
66.83,24.672,2.051
66.86,23.759,2.44
66.9,25.514,2.818
66.93,28.357,3.104
66.96,31.41,3.849
66.99,33.937,4.869
67.03,38.359,5.224
67.06,40.851,5.762
67.09,43.834,6.805
67.12,48.607,7.045
67.16,53.45,7.125
67.19,57.556,7.366
67.22,59.662,7.847
67.25,62.154,8.317
67.29,63.908,8.855
67.32,65.523,10.047
67.35,70.998,10.447
67.38,75.806,10.677
67.42,79.385,11.284
67.45,83.737,11.387
67.48,85.913,11.811
67.51,88.966,12.532
67.55,92.09,12.773
67.58,93.739,13.77
67.61,98.547,14.148
67.64,102.373,14.468
67.68,105.602,15.11
67.71,108.936,15.591
67.74,112.971,15.832
67.77,114.481,16.656
67.81,117.674,17.286
67.84,122.026,17.378
67.87,126.027,17.722
67.9,128.624,18.123
67.94,131.396,18.661
67.97,133.994,19.142
68.0,136.942,19.944
68.03,140.767,20.54
68.07,144.347,20.952
68.1,146.733,21.33
68.13,149.4,21.731
68.17,152.98,22.052
68.2,155.682,22.487
68.23,158.385,22.865
68.26,161.894,23.094
68.3,164.211,23.621
68.33,166.457,24.274
68.36,169.896,24.377
68.39,170.598,25.053
68.43,173.265,25.798
68.46,176.704,25.924
68.49,180.495,26.336
68.52,182.916,27.058
68.56,186.356,27.677
68.59,190.076,27.493
68.62,190.111,28.295
68.65,193.269,28.433
68.69,194.638,28.444
68.72,197.235,28.879
68.75,199.797,29.372
68.78,202.921,29.464
68.82,203.833,29.796
68.85,205.026,30.46
68.88,206.851,30.701
68.91,209.483,30.518
68.95,209.378,31.102
68.98,211.238,31.858
69.01,214.326,31.938
69.04,216.011,32.328
69.08,217.661,32.877
69.11,220.538,33.141
69.14,222.398,33.473
69.17,223.767,34.149
69.21,226.891,34.412
69.24,230.891,34.367
69.27,232.014,34.974
69.3,234.506,35.409
69.34,236.05,35.386
69.37,237.384,36.051
69.4,240.858,36.314
69.43,242.824,36.509
69.47,245.14,36.818
69.5,246.439,37.311
69.53,249.281,37.54
69.56,251.106,37.597
69.6,252.756,38.055
69.63,256.195,37.838
69.66,257.108,37.998
69.7,257.915,38.536
69.73,259.178,39.029
69.76,262.688,38.983
69.79,264.548,39.155
69.83,265.32,39.212
69.86,264.618,39.132
69.89,265.25,39.361
69.92,266.724,39.201
69.96,267.039,39.235
69.99,267.636,39.499
70.02,268.724,39.716
70.05,269.145,40.381
70.09,270.619,40.885
70.12,271.426,41.08
70.15,272.83,41.538
70.18,274.901,41.08
70.22,274.866,41.206
70.25,275.954,41.79
70.28,278.2,41.366
70.31,278.902,41.515
70.35,280.832,41.778
70.38,281.464,41.916
70.41,281.464,42.477
70.44,282.271,42.282
70.48,282.938,41.859
70.51,283.218,41.664
70.54,282.762,42.007
70.57,283.92,42.111
70.61,285.394,41.698
70.64,284.587,42.374
70.67,286.272,42.397
70.7,285.886,42.065
70.74,286.377,42.386
70.77,287.184,41.927
70.8,286.026,42.271
70.83,287.254,42.477
70.87,288.553,42.328
70.9,288.553,42.512
70.93,288.799,42.649
70.96,288.307,42.282
71.0,286.693,42.202
71.03,285.991,42.042
71.06,285.605,41.87
71.09,284.903,42.156
71.13,286.061,42.374
71.16,286.623,41.985
71.19,285.043,41.824
71.23,284.517,41.206
71.26,282.095,40.736
71.29,281.218,40.45
71.32,279.779,40.232
71.36,278.445,40.518
71.39,279.358,40.404
71.42,277.708,40.278
71.45,274.725,40.472
71.49,273.778,39.888
71.52,272.058,39.281
71.55,269.812,39.327
71.58,268.443,39.247
71.62,266.302,39.304
71.65,265.811,39.579
71.68,265.25,39.487
71.71,264.478,39.293
71.75,263.741,38.594
71.78,260.722,38.662
71.81,257.037,37.345
71.84,243.21,33.427
71.88,227.347,30.919
71.91,218.748,31.537
71.94,217.906,32.981
71.97,217.029,33.977
72.01,214.256,35.982
72.04,217.31,37.815
72.07,223.732,38.88
72.1,229.768,40.117
72.14,237.279,40.415
72.17,239.981,40.14
72.2,241.385,40.209
72.23,244.122,39.522
72.27,244.965,38.571
72.3,245.035,37.231
72.33,242.403,35.936
72.36,239.49,35.123
72.4,236.05,34.596
72.43,234.225,33.863
72.46,232.436,33.141
72.49,230.19,32.797
72.53,226.118,32.282
72.56,220.538,32.03
72.59,218.222,31.755
72.62,216.959,31.423
72.66,214.853,31.377
72.69,212.186,31.205
72.72,209.729,30.953
72.76,207.588,30.873
72.79,204.851,30.907
72.82,203.482,30.288
72.85,200.99,29.968
72.89,199.692,29.991
72.92,198.112,29.681
72.95,195.2,29.693
72.98,193.515,29.544
73.02,193.199,29.2
73.05,192.883,28.398
73.08,189.198,27.734
73.11,185.338,27.218
73.15,182.32,26.76
73.18,181.548,26.222
73.21,180.214,25.34
73.24,174.95,25.385
73.28,172.528,24.927
73.31,169.159,24.389
73.34,165.685,24.412
73.37,164.491,23.507
73.41,162.421,22.797
73.44,158.946,22.545
73.47,154.63,22.235
73.5,151.155,21.937
73.54,149.19,21.617
73.57,146.873,21.147
73.6,143.961,20.677
73.63,140.311,20.162
73.67,136.626,19.784
73.7,134.976,19.039
73.73,132.344,18.535
73.76,128.343,18.455
73.8,126.553,17.882
73.83,123.956,17.195
73.86,119.745,17.023
73.89,117.078,16.553
73.93,114.235,15.866
73.96,110.76,15.797
73.99,109.883,15.236
74.02,105.461,14.732
74.06,101.039,14.766
74.09,98.723,14.067
74.12,96.021,13.071
74.15,91.388,12.635
74.19,87.598,12.235
74.22,83.878,11.536
74.25,81.0,11.078
74.29,77.56,10.654
74.32,73.84,10.344
74.35,70.05,9.76
74.38,65.909,9.405
74.42,61.031,9.29
74.45,58.679,9.073
74.48,56.714,8.271
74.51,53.345,8.248
74.55,52.046,7.446
74.58,47.8,6.908
74.61,45.554,6.152
74.64,40.289,5.762
74.68,37.271,5.086
74.71,31.972,4.617
74.74,28.427,4.296
74.77,23.303,3.998
74.81,20.636,3.494
74.84,15.477,3.116
74.87,12.459,2.944
74.9,7.861,2.726
74.94,6.422,2.417
74.97,5.861,1.065
75.0,1.474,0.733
75.03,-2.211,0.332
75.07,-6.563,-0.332
75.1,-11.371,-0.584
75.13,-16.705,-0.229
75.16,-18.846,-0.515
75.2,-17.548,-1.833
75.23,-17.477,-3.276
75.26,-20.496,-4.342
75.29,-26.041,-5.453
75.33,-33.586,-5.98
75.36,-38.394,-6.232
75.39,-42.746,-6.427
75.42,-46.291,-6.553
75.46,-48.923,-6.988
75.49,-50.432,-7.675
75.52,-53.555,-8.5
75.55,-61.171,-8.225
75.59,-62.75,-8.981
75.62,-66.541,-9.691
75.65,-70.576,-9.199
75.68,-71.419,-10.367
75.72,-75.455,-10.78
75.75,-77.034,-11.318
75.78,-79.771,-12.372
75.82,-83.772,-13.048
75.85,-89.493,-13.334
75.88,-92.967,-13.758
75.91,-95.81,-14.262
75.95,-99.425,-14.319
75.98,-102.969,-14.594
76.01,-104.935,-15.133
76.04,-106.374,-15.958
76.08,-110.866,-16.255
76.11,-115.358,-16.759
76.14,-119.078,-17.298
76.17,-121.394,-17.493
76.21,-122.763,-17.997
76.24,-124.693,-18.833
76.27,-128.799,-19.222
76.3,-131.432,-20.024
76.34,-135.713,-20.723
76.37,-139.96,-20.964
76.4,-143.469,-21.662
76.43,-146.873,-21.582
76.47,-148.277,-21.731
76.5,-151.05,-22.166
76.53,-153.893,-22.384
76.56,-155.367,-23.129
76.6,-157.999,-23.976
76.63,-162.596,-24.137
76.66,-165.439,-24.607
76.69,-168.597,-25.007
76.73,-171.405,-25.168
76.76,-175.652,-25.03
76.79,-176.81,-25.328
76.82,-179.898,-25.775
76.86,-182.32,-25.981
76.89,-184.004,-26.795
76.92,-189.058,-26.726
76.95,-191.795,-26.474
76.99,-192.006,-27.092
77.02,-192.497,-27.7
77.05,-194.252,-27.78
77.08,-196.498,-28.249
77.12,-198.709,-29.017
77.15,-199.341,-29.842
77.18,-201.447,-30.334
77.21,-204.149,-30.518
77.25,-205.061,-31.354
77.28,-207.413,-31.938
77.31,-208.536,-32.373
77.35,-211.203,-33.084
77.38,-215.625,-33.233
77.41,-216.888,-33.782
77.44,-219.17,-34.424
77.48,-222.574,-34.309
77.51,-224.539,-34.378
77.54,-227.171,-34.516
77.57,-228.716,-34.607
77.61,-229.453,-35.02
77.64,-231.628,-35.26
77.67,-234.436,-35.226
77.7,-236.121,-35.386
77.74,-237.209,-35.592
77.77,-237.735,-35.627
77.8,-238.367,-36.016
77.83,-240.753,-36.429
77.87,-243.28,-36.852
77.9,-245.842,-37.219
77.93,-246.895,-37.654
77.96,-248.404,-37.918
78.0,-249.597,-38.055
78.03,-251.036,-38.353
78.06,-253.563,-38.25
78.09,-253.844,-38.193
78.13,-253.598,-39.041
78.16,-256.265,-39.304
78.19,-257.564,-39.487
78.22,-259.038,-39.888
78.26,-260.301,-40.129
78.29,-261.67,-40.094
78.32,-261.986,-40.61
78.35,-264.723,-40.702
78.39,-266.057,-40.495
78.42,-267.812,-40.85
78.45,-269.461,-40.988
78.48,-270.76,-41.4
78.52,-272.549,-41.148
78.55,-273.181,-41.103
78.58,-274.48,-41.103
78.61,-275.006,-41.217
78.65,-275.743,-41.721
78.68,-277.287,-41.744
78.71,-277.849,-42.019
78.74,-279.674,-42.099
78.78,-280.621,-41.744
78.81,-281.113,-42.03
78.84,-282.095,-41.824
78.88,-281.569,-41.996
78.91,-282.973,-41.801
78.94,-282.762,-41.71
78.97,-283.043,-42.386
79.01,-284.306,-42.294
79.04,-284.587,-42.099
79.07,-284.973,-42.466
79.1,-286.447,-42.225
79.14,-286.026,-42.122
79.17,-285.886,-42.466
79.2,-286.342,-42.5
79.23,-286.974,-42.328
79.27,-286.833,-42.351
79.3,-287.044,-42.294
79.33,-285.64,-42.202
79.36,-285.254,-41.996
79.4,-284.798,-41.526
79.43,-283.745,-41.641
79.46,-283.92,-41.79
79.49,-284.131,-41.629
79.53,-283.569,-41.503
79.56,-283.815,-41.068
79.59,-281.885,-40.576
79.62,-279.568,-40.518
79.66,-277.884,-40.346
79.69,-277.322,-40.369
79.72,-278.305,-40.232
79.75,-277.393,-40.209
79.79,-274.55,-40.461
79.82,-274.023,-40.106
79.85,-272.198,-39.51
79.88,-269.707,-39.728
79.92,-269.215,-39.35
79.95,-267.461,-39.189
79.98,-266.829,-39.27
80.01,-265.425,-39.27
80.05,-263.776,-39.258
80.08,-263.46,-38.88
80.11,-262.126,-38.25
80.14,-258.441,-38.307
80.18,-256.827,-38.193
80.21,-255.914,-37.792
80.24,-254.721,-37.803
80.27,-254.335,-37.631
80.31,-252.124,-37.379
80.34,-250.018,-37.208
80.37,-248.474,-36.44
80.4,-245.702,-36.245
80.44,-245.667,-35.867
80.47,-243.806,-35.409
80.5,-240.578,-35.569
80.54,-238.893,-35.547
80.57,-238.718,-35.26
80.6,-236.787,-35.34
80.63,-234.647,-35.409
80.67,-234.015,-34.871
80.7,-232.26,-34.687
80.73,-230.33,-34.493
80.76,-227.452,-34.012
80.8,-223.662,-34.012
80.83,-223.416,-33.714
80.86,-221.275,-33.37
80.89,-218.538,-33.439
80.93,-216.643,-33.049
80.96,-214.888,-32.648
80.99,-213.976,-32.041
81.02,-210.712,-32.007
81.06,-210.641,-31.48
81.09,-207.483,-31.056
81.12,-204.675,-31.171
81.15,-203.658,-30.38
81.19,-201.271,-30.185
81.22,-201.271,-29.464
81.25,-200.113,-28.765
81.28,-198.534,-28.318
81.32,-196.603,-27.688
81.35,-194.112,-26.978
81.38,-189.058,-26.852
81.41,-186.075,-26.531
81.45,-183.337,-26.13
81.48,-181.091,-25.912
81.51,-178.494,-25.752
81.54,-176.669,-25.58
81.58,-173.897,-25.385
81.61,-171.3,-25.168
81.64,-169.51,-24.664
81.67,-168.036,-24.057
81.71,-164.421,-23.484
81.74,-161.754,-22.968
81.77,-157.753,-22.716
81.8,-155.788,-22.693
81.84,-153.787,-22.006
81.87,-150.453,-21.685
81.9,-148.172,-21.021
81.93,-145.505,-20.322
81.97,-140.697,-20.139
82.0,-137.608,-19.6
82.03,-134.941,-18.913
82.07,-129.852,-19.257
82.1,-127.641,-18.902
82.13,-125.185,-18.352
82.16,-122.377,-18.226
82.2,-120.271,-17.458
82.23,-115.639,-16.92
82.26,-113.077,-16.301
82.29,-110.41,-15.545
82.33,-107.111,-15.224
82.36,-104.092,-14.732
82.39,-100.092,-14.262
82.42,-96.652,-13.701
82.46,-93.599,-12.899
82.49,-89.282,-12.28
82.52,-84.018,-12.143
82.55,-80.789,-11.788
82.59,-78.368,-10.929
82.62,-73.068,-11.009
82.65,-69.769,-10.963
82.68,-66.295,-10.276
82.72,-64.014,-9.703
82.75,-61.417,-9.21
82.78,-57.802,-8.855
82.81,-55.17,-8.065
82.85,-50.432,-7.584
82.88,-45.378,-7.778
82.91,-44.957,-6.793
82.94,-42.22,-5.636
82.98,-37.482,-5.315
83.01,-31.165,-5.098
83.04,-26.848,-4.617
83.07,-21.478,-4.559
83.11,-18.109,-5.006
83.14,-19.092,-4.09
83.17,-17.407,-3.116
83.2,-11.722,-3.414
83.24,-11.02,-2.497
83.27,-6.458,-1.375
83.3,-3.79,-1.398
83.33,-3.755,0.046
83.37,1.755,0.573
83.4,3.896,1.088
83.43,6.738,1.936
83.46,11.722,2.463
83.5,17.899,2.749
83.53,22.18,3.414
83.56,27.094,3.586
83.6,28.427,4.055
83.63,32.744,4.639
83.66,35.832,5.04
83.69,39.131,5.923
83.73,44.255,5.911
83.76,47.343,6.289
83.79,51.414,6.381
83.82,51.66,7.011
83.86,55.521,7.538
83.89,58.083,8.202
83.92,60.258,9.359
83.95,63.733,9.84
83.99,69.699,9.932
84.02,75.56,9.829
84.05,76.086,10.482
84.08,77.49,10.997
84.12,80.122,11.398
84.15,83.948,12.303
84.18,89.001,12.865
84.21,92.827,13.254
84.25,95.88,13.483
84.28,96.547,14.056
84.31,98.758,14.881
84.34,104.619,14.858
84.38,108.023,15.396
84.41,111.427,16.175
84.44,114.059,16.668
84.47,116.832,17.195
84.51,120.587,17.516
84.54,124.588,17.768
84.57,127.29,18.615
84.6,130.589,18.867
84.64,132.484,19.154
84.67,134.731,20.391
84.7,139.925,20.677
84.73,145.364,20.792
84.77,147.751,21.525
84.8,149.786,21.754
84.83,151.436,22.155
84.86,155.542,22.785
84.9,159.227,22.945
84.93,161.368,23.702
84.96,165.439,23.954
84.99,167.896,24.194
85.03,171.3,24.389
85.06,172.704,24.687
85.09,173.756,25.534
85.13,178.073,25.695
85.16,181.302,25.981
85.19,184.39,26.634
85.22,186.145,27.161
85.26,187.935,27.585
85.29,190.883,27.78
85.32,192.497,28.215
85.35,194.533,28.65
85.39,197.481,28.685
85.42,198.323,29.154
85.45,199.937,29.979
85.48,203.868,29.819
85.52,204.921,30.002
85.55,206.465,30.552
85.58,208.044,30.54
85.61,209.203,30.804
85.65,211.519,31.4
85.68,214.151,32.087
85.71,217.941,32.58
85.74,221.065,33.255
85.78,224.048,33.828
85.81,225.943,34.08
85.84,226.926,34.092
85.87,228.856,33.886
85.91,230.821,33.977
85.94,231.523,34.458
85.97,232.892,34.63
86.0,234.05,34.584
86.04,234.436,35.501
86.07,237.63,35.97
86.1,239.806,35.753
86.13,239.946,36.222
86.17,242.368,36.44
86.2,243.631,36.268
86.23,243.069,36.933
86.26,245.982,37.162
86.3,247.772,37.036
86.33,248.228,37.54
86.36,250.404,37.437
86.39,250.615,37.253
86.43,250.58,37.494
86.46,250.124,38.021
86.49,252.44,38.353
86.52,253.914,38.857
86.56,256.055,39.831
86.59,258.582,39.991
86.62,259.564,40.484
86.66,263.284,40.518
86.69,264.442,40.461
86.72,264.513,41.034
86.75,266.302,41.251
86.79,268.864,40.77
86.82,270.444,41.194
86.85,272.444,41.515
86.88,273.006,41.79
86.92,274.971,41.687
86.95,275.497,41.366
86.98,275.462,42.076
87.01,277.814,41.985
87.05,278.761,41.629
87.08,279.147,42.317
87.11,281.534,41.973
87.14,281.393,41.847
87.18,281.429,42.58
87.21,282.025,42.397
87.24,282.867,42.076
87.27,283.569,41.675
87.31,283.324,42.03
87.34,284.727,42.408
87.37,285.008,42.328
87.4,285.324,42.683
87.44,286.131,42.557
87.47,285.991,42.683
87.5,286.763,42.534
87.53,286.728,42.5
87.57,287.57,42.569
87.6,287.921,42.237
87.63,287.289,42.443
87.66,287.675,42.202
87.7,286.658,42.088
87.73,286.272,41.881
87.76,284.692,41.87
87.79,285.078,41.847
87.83,284.341,41.767
87.86,284.201,41.893
87.89,284.727,41.297
87.92,283.429,40.942
87.96,281.885,40.633
87.99,280.2,40.278
88.02,278.445,39.957
88.05,275.252,40.495
88.09,275.252,40.553
88.12,275.287,40.152
88.15,275.041,39.98
88.19,272.935,39.9
88.22,270.268,39.716
88.25,267.039,39.613
88.28,266.408,39.51
88.32,267.11,39.155
88.35,265.565,39.155
88.38,263.741,39.075
88.41,261.179,38.262
88.45,256.827,37.723
88.48,254.23,37.322
88.51,250.896,37.483
88.54,250.334,37.757
88.58,250.018,37.723
88.61,249.176,38.136
88.64,249.527,38.399
88.67,249.983,38.227
88.71,249.738,37.952
88.74,249.562,37.757
88.77,249.211,37.471
88.8,248.088,37.311
88.84,247.211,37.082
88.87,246.333,36.898
88.9,245.737,36.52
88.93,242.824,36.303
88.97,240.788,35.707
89.0,237.84,34.802
89.03,235.454,33.828
89.06,230.505,33.622
89.1,227.873,33.576
89.13,225.838,32.889
89.16,222.504,33.061
89.19,221.24,33.015
89.23,219.17,32.602
89.26,216.011,32.637
89.29,214.677,32.66
89.32,214.151,32.053
89.36,210.712,32.224
89.39,210.08,32.11
89.42,209.097,31.423
89.45,206.5,31.216
89.49,204.605,30.701
89.52,202.219,30.059
89.55,199.516,29.888
89.58,198.112,29.532
89.62,195.621,29.177
89.65,193.48,29.074
89.68,191.866,28.696
89.72,188.777,28.49
89.75,186.636,27.883
89.78,183.618,27.218
89.81,180.74,27.081
89.85,179.758,26.394
89.88,177.687,25.97
89.91,176.073,25.385
89.94,172.037,24.927
89.98,168.527,24.538
90.01,165.158,24.102
90.04,161.578,24.068
90.07,160.21,23.427
90.11,157.121,23.117
90.14,154.91,23.381
90.17,154.735,22.464
90.2,151.611,22.212
90.24,149.716,21.41
90.27,145.856,20.929
90.3,143.083,20.219
90.33,138.556,19.772
90.37,135.538,19.795
90.4,133.151,19.326
90.43,130.203,19.303
90.46,128.554,18.627
90.5,125.992,17.745
90.53,121.008,17.47
90.56,117.99,16.851
90.59,113.638,15.946
90.63,109.743,15.889
90.66,106.865,15.648
90.69,103.426,15.511
90.72,102.127,14.697
90.76,97.073,14.48
90.79,94.862,13.907
90.82,90.686,12.807
90.85,85.387,12.464
90.89,81.982,11.914
90.92,76.964,11.822
90.95,73.454,11.811
90.98,70.612,11.501
91.02,67.874,11.112
91.05,66.084,10.505
91.08,63.487,9.714
91.11,59.276,9.187
91.15,54.924,8.741
91.18,51.344,8.477
91.21,49.8,7.801
91.25,46.255,7.538
91.28,43.167,7.206
91.31,39.342,6.621
91.34,36.359,5.842
91.38,30.638,5.648
91.41,26.321,5.613
91.44,22.707,5.144
91.47,21.619,4.365
91.51,18.32,3.608
91.54,12.81,3.505
91.57,7.44,3.116
91.6,3.474,2.956
91.64,4.141,2.119
91.67,1.228,1.386
91.7,-2.492,1.042
91.73,-4.913,-0.16
91.77,-10.774,-0.882
91.8,-16.916,-0.768
91.83,-20.11,-1.088
91.86,-20.285,-2.211
91.9,-19.653,-3.505
91.93,-20.776,-4.949
91.96,-26.707,-5.877
91.99,-31.305,-6.976
92.03,-39.061,-7.549
92.06,-46.501,-6.793
92.09,-49.414,-6.782
92.12,-50.116,-7.217
92.16,-51.134,-7.629
92.19,-52.573,-8.385
92.22,-57.942,-9.016
92.25,-61.943,-9.371
92.29,-64.224,-10.333
92.32,-67.523,-10.699
92.35,-71.208,-11.249
92.38,-77.28,-11.1
92.42,-79.842,-11.536
92.45,-81.842,-12.12
92.48,-83.737,-12.887
92.51,-90.16,-13.002
92.55,-91.704,-13.747
92.58,-94.792,-14.526
92.61,-97.775,-14.4
92.64,-100.232,-15.316
92.68,-104.935,-15.442
92.71,-107.707,-15.923
92.74,-112.691,-16.129
92.77,-114.516,-16.725
92.81,-117.113,-17.516
92.84,-120.131,-17.836
92.87,-123.956,-18.421
92.91,-126.729,-18.993
92.94,-129.852,-19.681
92.97,-133.748,-20.013
93.0,-138.205,-20.746
93.04,-140.732,-21.25
93.07,-143.75,-21.582
93.1,-147.786,-21.548
93.13,-150.839,-21.754
93.17,-153.401,-21.914
93.2,-154.98,-22.35
93.23,-157.016,-22.945
93.26,-159.157,-23.679
93.3,-162.631,-24.274
93.33,-166.035,-24.549
93.36,-167.439,-25.111
93.39,-171.019,-25.374
93.43,-173.686,-25.512
93.46,-175.266,-26.061
93.49,-178.424,-26.164
93.52,-181.091,-26.795
93.56,-185.443,-27.115
93.59,-187.759,-27.23
93.62,-190.848,-27.184
93.65,-192.181,-27.367
93.69,-193.304,-27.848
93.72,-194.322,-28.295
93.75,-196.954,-28.662
93.78,-198.639,-29.292
93.82,-200.955,-29.991
93.85,-202.219,-30.346
93.88,-202.078,-31.148
93.91,-204.886,-31.594
93.95,-207.834,-31.789
93.98,-209.167,-32.534
94.01,-211.87,-33.061
94.04,-213.905,-33.313
94.08,-215.871,-33.92
94.11,-220.082,-34.057
94.14,-222.784,-33.931
94.17,-223.241,-34.424
94.21,-224.785,-34.768
94.24,-226.996,-34.745
94.27,-229.593,-34.905
94.3,-232.26,-34.939
94.34,-232.646,-35.18
94.37,-233.839,-35.421
94.4,-234.647,-35.959
94.44,-236.682,-36.612
94.47,-239.665,-36.497
94.5,-239.665,-36.509
94.53,-241.104,-36.956
94.57,-242.508,-37.127
94.6,-245.596,-37.402
94.63,-248.509,-37.918
94.66,-250.755,-38.319
94.7,-252.019,-38.113
94.73,-251.352,-38.571
94.76,-253.142,-39.109
94.79,-255.704,-39.075
94.83,-257.739,-39.224
94.86,-259.213,-39.659
94.89,-259.985,-40.037
94.92,-261.845,-39.9
94.96,-262.653,-39.739
94.99,-263.705,-39.911
95.02,-264.618,-39.877
95.05,-264.793,-40.472
95.09,-267.426,-40.427
95.12,-268.935,-40.45
95.15,-270.058,-41.366
95.18,-271.146,-41.721
95.22,-272.198,-41.595
95.25,-273.708,-41.297
95.28,-275.217,-41.034
95.31,-275.954,-41.24
95.35,-277.182,-41.813
95.38,-279.604,-41.549
95.41,-279.884,-41.584
95.44,-280.341,-42.088
95.48,-281.323,-41.71
95.51,-280.797,-41.721
95.54,-281.674,-41.572
95.57,-281.464,-41.458
95.61,-281.99,-42.088
95.64,-283.289,-42.03
95.67,-282.446,-41.87
95.7,-283.289,-42.168
95.74,-284.341,-42.019
95.77,-285.184,-42.053
95.8,-286.728,-41.836
95.83,-285.535,-42.111
95.87,-285.429,-42.351
95.9,-285.464,-42.489
95.93,-286.938,-42.5
95.97,-286.588,-42.294
96.0,-285.71,-42.191
96.03,-284.201,-41.847
96.06,-283.078,-41.824
96.1,-283.008,-41.721
96.13,-282.762,-41.927
96.16,-282.938,-42.042
96.19,-283.183,-41.87
96.23,-282.903,-41.458
96.26,-281.288,-41.183
96.29,-278.902,-41.16
96.32,-278.761,-40.839
96.36,-278.235,-40.518
96.39,-276.656,-40.942
96.42,-277.217,-40.724
96.45,-276.866,-40.106
96.49,-274.269,-40.026
96.52,-272.093,-39.877
96.55,-270.374,-39.212
96.58,-267.004,-39.27
96.62,-265.846,-39.51
96.65,-265.144,-39.453
96.68,-264.828,-39.407
96.71,-263.565,-39.499
96.75,-263.46,-39.201
96.78,-261.53,-38.605
96.81,-258.757,-38.662
96.84,-257.915,-38.273
96.88,-256.686,-37.987
96.91,-256.02,-37.757
96.94,-254.37,-37.574
96.97,-253.387,-37.219
97.01,-250.966,-36.967
97.04,-248.79,-36.578
97.07,-246.088,-36.154
97.1,-243.631,-36.062
97.14,-242.859,-35.913
97.17,-241.841,-35.65
97.2,-240.051,-35.695
97.23,-240.121,-35.684
97.27,-238.998,-35.363
97.3,-237.454,-34.768
97.33,-233.804,-34.252
97.36,-230.014,-34.47
97.4,-229.031,-34.115
97.43,-226.364,-33.794
97.46,-225.276,-33.53
97.5,-221.907,-33.404
97.53,-218.608,-33.53
97.56,-217.169,-33.129
97.59,-215.45,-33.003
97.63,-214.502,-32.866
97.66,-213.8,-32.373
97.69,-211.659,-32.007
97.72,-210.045,-31.938
97.76,-209.975,-31.342
97.79,-206.325,-31.045
97.82,-202.745,-31.193
97.85,-203.096,-30.266
97.89,-201.447,-29.704
97.92,-199.236,-29.532
97.95,-197.832,-28.753
97.98,-196.884,-27.871
98.02,-194.638,-27.321
98.05,-192.532,-26.669
98.08,-187.373,-26.302
98.11,-183.057,-26.428
98.15,-182.671,-25.454
98.18,-179.582,-25.328
98.21,-176.389,-25.546
98.24,-173.616,-25.168
98.28,-171.3,-24.893
98.31,-169.264,-24.389
98.34,-165.544,-24.057
98.37,-163.123,-23.621
98.41,-161.543,-22.774
98.44,-158.595,-22.567
98.47,-154.7,-22.384
98.5,-151.155,-22.166
98.54,-150.629,-22.121
98.57,-149.084,-21.651
98.6,-144.487,-20.849
98.63,-140.767,-20.46
98.67,-138.766,-20.139
98.7,-137.889,-19.371
98.73,-133.327,-18.913
98.76,-129.466,-18.409
98.8,-126.659,-17.538
98.83,-120.938,-17.619
98.86,-117.99,-17.378
98.89,-115.779,-16.622
98.93,-112.971,-16.267
98.96,-110.059,-15.946
98.99,-106.233,-15.431
99.03,-102.197,-15.087
99.06,-100.548,-14.526
99.09,-97.705,-13.758
99.12,-93.459,-13.323
99.16,-90.616,-12.166
99.19,-83.878,-11.627
99.22,-78.368,-11.799
99.25,-74.718,-11.387
99.29,-71.419,-11.146
99.32,-68.541,-11.215
99.35,-67.067,-10.699
99.38,-62.75,-10.069
99.42,-59.03,-9.84
99.45,-56.573,-8.901
99.48,-51.344,-8.752
99.51,-49.765,-8.34
99.55,-48.607,-7.16
99.58,-44.817,-6.644
99.61,-41.483,-6.232
99.64,-35.587,-5.751
99.68,-30.884,-5.774
99.71,-29.515,-5.063
99.74,-25.97,-4.892
99.77,-24.602,-4.273
99.81,-18.53,-4.032
99.84,-15.161,-3.929
99.87,-12.213,-3.276
99.9,-9.967,-2.852
99.94,-9.756,-1.661
99.97,-3.229,-1.306
100.0,3.825,-1.776
100.03,6.071,-1.077
100.07,5.334,0.241
100.1,4.457,1.249
100.13,7.195,2.211
100.16,12.775,3.757
100.2,19.443,4.777
100.23,23.83,5.361
100.26,30.006,5.396
100.29,34.814,5.315
100.33,38.815,5.499
100.36,39.833,5.831
100.39,40.395,6.713
100.42,45.062,6.816
100.46,48.116,7.251
100.49,50.888,8.088
100.52,55.836,8.122
100.56,57.486,8.523
100.59,59.557,9.875
100.62,65.979,9.898
100.65,68.541,10.207
100.69,72.191,10.734
100.72,74.683,11.02
100.75,77.245,11.96
100.78,80.508,12.727
100.82,84.334,13.311
100.85,88.896,13.655
100.88,93.459,14.102
100.91,98.196,14.022
100.95,99.144,14.445
100.98,101.285,14.984
101.01,104.759,14.972
101.04,107.426,15.774
101.08,111.743,16.278
101.11,114.235,16.874
101.14,117.078,17.745
101.17,120.412,18.249
101.21,123.921,18.592
101.24,127.641,19.257
101.27,130.659,19.726
101.3,134.274,19.898
101.34,139.644,19.864
101.37,141.434,20.528
101.4,144.171,20.941
101.43,146.312,20.448
101.47,145.505,21.101
101.5,146.768,21.811
101.53,150.418,23.014
101.56,157.121,23.495
101.6,159.999,23.85
101.63,162.14,24.778
101.66,165.404,25.248
101.69,169.019,25.523
101.73,172.282,25.901
101.76,175.406,26.096
101.79,178.424,26.05
101.82,180.74,26.508
101.86,184.531,26.886
101.89,186.18,27.333
101.92,188.496,27.906
101.95,190.672,28.146
101.99,192.462,28.524
102.02,194.147,28.834
102.05,195.34,29.498
102.09,198.779,29.727
102.12,201.166,30.048
102.15,203.166,30.369
102.18,204.64,30.644
102.22,206.5,30.644
102.25,207.097,30.815
102.28,208.641,31.125
102.31,210.466,31.697
102.35,214.151,32.454
102.38,217.871,33.233
102.41,220.889,33.714
102.44,223.206,33.817
102.48,224.925,33.794
102.51,226.048,33.931
102.54,225.873,34.298
102.57,227.171,34.046
102.61,228.961,34.344
102.64,230.821,34.894
102.67,232.436,34.997
102.7,232.962,35.352
102.74,234.401,36.005
102.77,236.858,35.948
102.8,237.84,36.085
102.83,239.771,36.589
102.87,240.402,37.299
102.9,242.824,37.643
102.93,245.947,37.757
102.96,248.299,38.113
103.0,248.79,38.754
103.03,251.633,38.376
103.06,251.212,38.422
103.09,252.65,39.167
103.13,255.598,39.132
103.16,257.248,39.315
103.19,258.862,39.762
103.22,260.371,40.198
103.26,262.091,40.278
103.29,263.354,40.14
103.32,264.478,40.152
103.35,265.53,40.026
103.39,265.601,40.484
103.42,267.18,40.954
103.45,268.794,40.965
103.48,270.479,41.355
103.52,272.234,41.446
103.55,272.9,41.652
103.58,274.094,41.755
103.62,275.743,41.423
103.65,276.34,41.492
103.68,277.322,42.042
103.71,278.656,42.225
103.75,279.884,42.214
103.78,280.972,42.053
103.81,281.464,42.156
103.84,282.13,42.294
103.88,282.622,42.122
103.91,282.095,42.466
103.94,283.289,42.66
103.97,284.306,42.397
104.01,284.973,42.454
104.04,285.254,42.649
104.07,285.956,42.775
104.1,286.377,42.993
104.14,286.623,42.672
104.17,286.482,42.363
104.2,287.36,43.21
104.23,289.29,42.741
104.27,288.062,42.764
104.3,288.658,42.809
104.33,288.307,42.191
104.36,287.044,41.836
104.4,286.728,41.4
104.43,285.886,41.08
104.46,284.692,41.366
104.49,286.096,41.297
104.53,285.149,41.022
104.56,284.482,40.873
104.59,282.376,40.69
104.62,280.446,41.08
104.66,279.884,40.392
104.69,277.463,39.968
104.72,276.796,40.255
104.75,277.463,40.198
104.79,275.182,40.129
104.82,273.567,40.209
104.85,272.549,39.602
104.88,270.093,39.487
104.92,269.461,39.315
104.95,267.426,38.96
104.98,265.32,39.201
105.01,266.127,38.903
105.05,264.162,38.811
105.08,261.635,39.189
105.11,261.214,38.571
105.14,259.915,37.815
105.18,257.529,37.998
105.21,255.914,38.216
105.24,254.686,38.032
105.28,254.932,38.25
105.31,256.23,38.239
105.34,254.861,37.838
105.37,251.843,37.047
105.41,248.965,36.612
105.44,248.509,36.452
105.47,246.298,36.154
105.5,243.666,35.741
105.54,240.402,35.031
105.57,237.77,35.054
105.6,236.893,35.077
105.63,235.559,34.768
105.67,233.488,34.412
105.7,230.891,34.435
105.73,229.803,34.126
105.76,228.119,33.737
105.8,226.785,33.565
105.83,225.101,33.381
105.86,222.749,33.061
105.89,219.977,32.683
105.93,218.292,32.224
105.96,216.081,31.972
105.99,213.976,31.95
106.02,213.309,31.434
106.06,211.238,31.056
106.09,208.781,30.987
106.12,207.237,30.46
106.15,205.447,29.853
106.19,202.359,29.544
106.22,199.376,29.383
106.25,196.674,29.154
106.28,194.041,29.418
106.32,194.392,28.971
106.35,194.006,28.204
106.38,190.602,27.837
106.41,187.022,27.39
106.45,184.776,26.588
106.48,181.548,26.371
106.51,179.547,25.981
106.54,177.336,25.603
106.58,174.423,25.443
106.61,172.177,24.985
106.64,170.352,24.091
106.67,166.737,23.782
106.71,163.403,23.232
106.74,160.35,22.636
106.77,158.806,22.029
106.81,153.682,22.327
106.84,151.962,21.914
106.87,149.997,21.113
106.9,147.786,20.895
106.94,143.961,20.391
106.97,140.416,20.173
107.0,137.994,19.509
107.03,134.801,19.681
107.07,133.572,19.326
107.1,131.151,18.375
107.13,127.641,18.146
107.16,125.606,17.676
107.2,123.395,16.725
107.23,118.867,16.095
107.26,115.498,15.385
107.29,110.901,15.316
107.33,109.883,14.801
107.36,106.479,13.93
107.39,102.267,13.518
107.42,95.81,13.346
107.46,92.651,12.899
107.49,88.37,12.223
107.52,83.913,12.613
107.55,83.035,11.914
107.59,80.719,11.192
107.62,77.385,10.745
107.65,72.507,10.745
107.68,70.576,9.668
107.72,65.593,9.233
107.75,62.961,8.97
107.78,59.135,8.42
107.81,56.503,7.881
107.85,54.257,7.263
107.88,50.818,6.793
107.91,46.571,6.461
107.94,44.431,5.59
107.98,40.781,4.731
108.01,34.885,4.674
108.04,31.656,4.181
108.07,27.234,3.402
108.11,20.987,3.906
108.14,18.179,3.757
108.17,13.652,3.838
108.2,13.652,3.391
108.24,11.617,2.406
108.27,6.352,2.165
108.3,1.895,1.902
108.34,-0.983,1.272
108.37,-2.913,0.47
108.4,-5.475,-0.16
108.43,-10.107,-0.401
108.47,-14.108,-0.687
108.5,-16.284,-1.409
108.53,-16.705,-2.486
108.56,-17.021,-4.135
108.6,-22.321,-5.201
108.63,-30.147,-5.384
108.66,-35.411,-5.693
108.69,-36.324,-6.77
108.73,-41.342,-6.931
108.76,-45.132,-6.816
108.79,-48.221,-7.744
108.82,-51.836,-7.836
108.86,-54.854,-8.122
108.89,-57.837,-8.534
108.92,-59.732,-9.451
108.95,-63.768,-9.68
108.99,-64.154,-10.883
109.02,-70.226,-11.364
109.05,-73.946,-11.513
109.08,-77.596,-12.498
109.12,-82.825,-12.418
109.15,-85.878,-12.853
109.18,-90.3,-13.254
109.21,-93.634,-13.38
109.25,-94.02,-14.319
109.28,-96.512,-15.053
109.31,-101.144,-15.27
109.34,-105.251,-16.038
109.38,-110.374,-16.381
109.41,-112.024,-16.92
109.44,-115.007,-17.733
109.47,-120.271,-17.722
109.51,-122.903,-18.249
109.54,-124.097,-18.959
109.57,-125.922,-19.429
109.6,-129.536,-20.196
109.64,-134.099,-20.941
109.67,-139.854,-21.261
109.7,-143.188,-21.754
109.73,-145.224,-22.052
109.77,-147.575,-22.04
109.8,-150.172,-22.338
109.83,-152.278,-22.785
109.87,-153.998,-23.037
109.9,-156.49,-23.358
109.93,-160.35,-24.114
109.96,-164.456,-24.687
110.0,-166.737,-24.538
110.03,-166.772,-25.065
110.06,-169.685,-25.718
110.09,-173.546,-26.164
110.13,-177.196,-26.107
110.16,-179.021,-26.382
110.19,-181.969,-27.001
110.22,-184.917,-27.642
110.26,-188.742,-27.734
110.29,-191.339,-27.757
110.32,-193.094,-28.261
110.35,-194.743,-28.41
110.39,-194.954,-28.685
110.42,-196.533,-29.246
110.45,-199.832,-29.498
110.48,-202.043,-29.819
110.52,-203.868,-30.151
110.55,-202.534,-31.045
110.58,-205.623,-31.354
110.61,-208.08,-31.171
110.65,-208.887,-32.144
110.68,-211.729,-32.694
110.71,-213.063,-33.084
110.74,-214.221,-34.057
110.78,-218.468,-34.493
110.81,-221.696,-34.493
110.84,-224.258,-34.619
110.87,-225.346,-34.699
110.91,-226.048,-34.974
110.94,-228.189,-35.134
110.97,-231.313,-35.214
111.0,-233.278,-35.375
111.04,-233.945,-36.016
111.07,-235.629,-36.188
111.1,-238.226,-35.856
111.13,-238.928,-36.188
111.17,-240.508,-36.91
111.2,-242.719,-37.116
111.23,-244.684,-37.219
111.26,-244.859,-37.872
111.3,-247.386,-38.136
111.33,-249.632,-37.757
111.36,-250.018,-38.284
111.4,-252.299,-38.319
111.43,-251.527,-38.594
111.46,-252.335,-39.373
111.49,-255.177,-39.705
111.53,-257.915,-39.911
111.56,-259.529,-40.346
111.59,-261.53,-40.495
111.62,-262.723,-40.358
111.66,-263.6,-40.518
111.69,-264.337,-40.702
111.72,-265.846,-40.919
111.75,-268.478,-40.541
111.79,-269.672,-40.931
111.82,-271.391,-41.435
111.85,-272.76,-41.286
111.88,-273.392,-41.183
111.92,-273.988,-41.377
111.95,-275.462,-41.16
111.98,-275.989,-41.183
112.01,-276.726,-41.859
112.05,-278.621,-41.962
112.08,-279.779,-41.698
112.11,-279.674,-42.225
112.14,-281.464,-42.007
112.18,-281.253,-41.675
112.21,-281.674,-42.019
112.24,-283.043,-41.595
112.27,-282.13,-42.363
112.31,-283.604,-42.878
112.34,-284.552,-42.5
112.37,-285.184,-42.546
112.4,-286.237,-42.271
112.44,-285.78,-42.397
112.47,-286.166,-42.351
112.5,-286.728,-42.019
112.53,-286.868,-42.065
112.57,-287.079,-42.145
112.6,-286.552,-41.996
112.63,-284.763,-42.076
112.66,-284.166,-41.904
112.7,-282.306,-41.481
112.73,-282.06,-41.859
112.76,-283.99,-42.076
112.79,-284.447,-41.996
112.83,-283.324,-42.134
112.86,-283.464,-42.007
112.89,-283.604,-41.355
112.93,-281.85,-40.999
112.96,-279.955,-40.839
112.99,-279.218,-40.358
113.02,-277.814,-40.346
113.06,-278.27,-40.461
113.09,-278.551,-40.049
113.12,-276.656,-40.094
113.15,-274.129,-39.693
113.19,-272.62,-39.258
113.22,-270.374,-38.96
113.25,-267.32,-39.098
113.28,-266.338,-39.121
113.32,-265.495,-39.407
113.35,-266.162,-39.419
113.38,-264.127,-39.27
113.41,-262.372,-39.167
113.45,-260.336,-38.708
113.48,-258.231,-38.582
113.51,-257.564,-38.262
113.54,-256.616,-38.239
113.58,-257.143,-37.861
113.61,-255.037,-37.643
113.64,-253.563,-37.551
113.67,-251.457,-37.082
113.71,-248.439,-36.726
113.74,-246.333,-36.406
113.77,-244.614,-36.074
113.8,-244.017,-36.016
113.84,-243.456,-35.386
113.87,-240.157,-35.1
113.9,-237.981,-35.34
113.93,-236.823,-34.985
113.97,-234.752,-34.561
114.0,-233.032,-34.218
114.03,-229.628,-34.286
114.06,-228.259,-34.229
114.1,-228.014,-33.725
114.13,-226.891,-33.691
114.16,-225.487,-33.668
114.19,-221.977,-33.622
114.23,-219.661,-33.324
114.26,-218.678,-32.809
114.29,-216.502,-32.717
114.32,-216.116,-32.316
114.36,-214.362,-31.663
114.39,-211.484,-31.686
114.42,-210.466,-31.205
114.46,-207.799,-30.758
114.49,-205.377,-30.323
114.52,-202.359,-29.888
114.55,-200.955,-29.429
114.59,-200.78,-28.662
114.62,-199.2,-28.146
114.65,-196.638,-27.803
114.68,-194.182,-27.115
114.72,-190.707,-26.657
114.75,-187.373,-26.245
114.78,-186.566,-25.317
114.81,-183.127,-24.687
114.85,-177.02,-25.145
114.88,-174.669,-24.916
114.91,-172.318,-24.927
114.94,-171.581,-24.79
114.98,-169.089,-24.16
115.01,-165.263,-24.034
115.04,-162.456,-23.553
115.07,-159.262,-23.232
115.11,-157.858,-22.716
115.14,-155.753,-22.281
115.17,-152.348,-21.995
115.2,-149.155,-21.181
115.24,-146.593,-20.62
115.27,-143.715,-20.139
115.3,-140.311,-19.486
115.33,-137.292,-19.337
115.37,-134.941,-19.566
115.4,-133.923,-19.326
115.43,-132.098,-18.615
115.46,-129.572,-17.584
115.5,-124.448,-17.16
115.53,-121.043,-16.542
115.56,-116.832,-15.843
115.59,-110.971,-15.614
115.63,-107.076,-15.488
115.66,-104.584,-15.087
115.69,-100.513,-15.167
115.72,-99.109,-14.697
115.76,-94.933,-14.033
115.79,-91.634,-13.621
115.82,-88.826,-12.67
115.85,-83.913,-12.189
115.89,-82.018,-11.547
115.92,-77.982,-10.803
115.95,-72.437,-10.894
115.99,-70.998,-10.333
116.02,-67.313,-9.749
116.05,-63.136,-9.726
116.08,-59.241,-9.565
116.12,-57.732,-8.798
116.15,-54.538,-8.374
116.18,-52.362,-8.225
116.21,-49.87,-7.297
116.25,-44.957,-6.965
116.28,-41.553,-6.472
116.31,-38.043,-5.842
116.34,-35.06,-5.212
116.38,-31.129,-4.743
116.41,-26.778,-4.296
116.44,-23.128,-3.757
116.47,-19.162,-3.288
116.51,-15.723,-3.185
116.54,-14.459,-2.188
116.57,-6.458,-2.177
116.6,-1.053,-2.738
116.64,-0.597,-1.844
