Trigger_Date,2023/06/23
Trigger_Time,T 10:36:06.045 PDT
Samples_Per_Cycle,512
Microseconds_Per_Sample,32.559
Time (ms),Voltage (V),Current (A)
-16.67,-4.071,-0.252
-16.64,-8.669,-0.389
-16.61,-13.336,-0.241
-16.57,-15.828,-0.573
-16.54,-18.074,-1.283
-16.51,-21.198,-1.753
-16.47,-25.374,-2.142
-16.44,-29.34,-2.509
-16.41,-31.27,-3.482
-16.38,-38.148,-3.23
-16.34,-40.71,-2.978
-16.31,-43.939,-3.723
-16.28,-47.484,-3.425
-16.25,-47.098,-4.067
-16.21,-48.537,-5.132
-16.18,-52.222,-5.797
-16.15,-57.486,-6.014
-16.12,-60.399,-6.805
-16.08,-64.259,-7.309
-16.05,-68.19,-7.332
-16.02,-69.418,-8.156
-15.99,-71.313,-9.084
-15.95,-75.7,-9.359
-15.92,-79.701,-10.012
-15.89,-81.386,-11.192
-15.86,-85.071,-11.891
-15.82,-89.107,-12.406
-15.79,-93.178,-13.254
-15.76,-98.372,-13.254
-15.73,-101.53,-13.323
-15.69,-103.847,-13.609
-15.66,-105.04,-13.941
-15.63,-107.532,-14.617
-15.6,-111.743,-15.305
-15.56,-116.376,-15.866
-15.53,-119.254,-16.565
-15.5,-122.131,-17.034
-15.47,-125.044,-17.642
-15.43,-128.554,-18.501
-15.4,-133.397,-18.764
-15.37,-136.731,-19.291
-15.34,-139.082,-19.852
-15.3,-139.925,-20.185
-15.27,-141.469,-20.597
-15.24,-143.61,-20.883
-15.2,-146.873,-21.479
-15.17,-149.12,-22.235
-15.14,-152.103,-23.094
-15.11,-156.946,-23.049
-15.07,-158.736,-23.667
-15.04,-161.789,-24.343
-15.01,-165.369,-24.481
-14.98,-168.211,-24.652
-14.94,-169.685,-25.271
-14.91,-172.563,-25.626
-14.88,-174.879,-25.993
-14.85,-177.652,-26.772
-14.81,-180.74,-27.425
-14.78,-184.355,-27.574
-14.75,-187.268,-27.642
-14.72,-188.005,-28.066
-14.68,-187.724,-29.063
-14.65,-192.322,-28.948
-14.62,-194.498,-28.937
-14.59,-197.095,-29.681
-14.55,-198.077,-30.105
-14.52,-197.025,-30.941
-14.49,-200.394,-31.274
-14.46,-203.377,-31.297
-14.42,-204.605,-32.018
-14.39,-207.097,-32.293
-14.36,-207.974,-32.614
-14.33,-210.817,-33.084
-14.29,-212.782,-33.519
-14.26,-213.94,-34.149
-14.23,-216.537,-34.493
-14.2,-220.468,-34.344
-14.16,-221.521,-34.642
-14.13,-220.959,-35.524
-14.1,-222.82,-35.661
-14.07,-225.381,-35.592
-14.03,-226.294,-36.52
-14.0,-230.295,-36.979
-13.97,-232.436,-36.486
-13.94,-231.979,-37.07
-13.9,-233.348,-37.677
-13.87,-235.875,-37.551
-13.84,-237.419,-38.044
-13.8,-240.121,-38.72
-13.77,-242.227,-38.788
-13.74,-242.332,-39.315
-13.71,-244.438,-39.854
-13.67,-246.825,-39.865
-13.64,-248.65,-39.831
-13.61,-249.106,-40.404
-13.58,-251.598,-40.656
-13.54,-253.914,-40.507
-13.51,-256.09,-40.667
-13.48,-256.441,-41.091
-13.45,-256.932,-41.618
-13.41,-259.389,-41.24
-13.38,-260.231,-41.057
-13.35,-260.863,-41.481
-13.32,-261.565,-41.813
-13.28,-263.214,-41.847
-13.25,-265.355,-41.87
-13.22,-266.478,-42.271
-13.19,-267.11,-42.924
-13.15,-268.338,-42.947
-13.12,-269.566,-42.775
-13.09,-270.198,-42.878
-13.06,-270.654,-43.038
-13.02,-271.497,-43.565
-12.99,-274.936,-43.348
-12.96,-276.024,-42.901
-12.93,-277.077,-43.153
-12.89,-277.779,-43.153
-12.86,-278.094,-43.462
-12.83,-278.024,-43.359
-12.8,-277.287,-42.89
-12.76,-277.393,-43.405
-12.73,-279.112,-43.703
-12.7,-278.656,-43.932
-12.67,-279.709,-44.001
-12.63,-280.341,-43.875
-12.6,-281.042,-44.264
-12.57,-280.551,-43.817
-12.54,-280.621,-43.783
-12.5,-282.025,-43.554
-12.47,-281.99,-43.898
-12.44,-282.201,-43.772
-12.4,-281.815,-43.634
-12.37,-281.955,-43.439
-12.34,-281.148,-43.417
-12.31,-280.516,-43.038
-12.27,-278.235,-43.038
-12.24,-278.305,-43.325
-12.21,-279.814,-43.107
-12.18,-278.691,-43.199
-12.14,-278.656,-43.153
-12.11,-277.919,-42.557
-12.08,-275.954,-42.477
-12.05,-275.708,-42.145
-12.01,-274.69,-41.847
-11.98,-274.199,-41.767
-11.95,-273.076,-41.79
-11.92,-272.093,-41.664
-11.88,-270.83,-41.355
-11.85,-270.198,-40.885
-11.82,-267.706,-40.564
-11.79,-265.144,-40.61
-11.75,-263.46,-40.415
-11.72,-262.512,-40.381
-11.69,-261.705,-40.484
-11.66,-260.687,-40.495
-11.62,-259.143,-40.209
-11.59,-257.423,-40.014
-11.56,-257.529,-39.384
-11.53,-255.177,-39.212
-11.49,-253.142,-39.419
-11.46,-253.177,-39.052
-11.43,-253.036,-38.468
-11.4,-251.247,-38.399
-11.36,-249.176,-38.09
-11.33,-245.702,-37.505
-11.3,-243.175,-37.07
-11.27,-242.262,-36.612
-11.23,-240.753,-36.211
-11.2,-237.805,-36.177
-11.17,-236.05,-35.959
-11.14,-235.594,-35.879
-11.1,-235.243,-36.005
-11.07,-234.225,-35.455
-11.04,-231.383,-34.951
-11.0,-229.172,-34.813
-10.97,-227.557,-34.584
-10.94,-226.118,-34.08
-10.91,-225.381,-33.347
-10.87,-221.837,-33.301
-10.84,-218.292,-33.656
-10.81,-218.398,-32.866
-10.78,-215.625,-32.602
-10.74,-213.519,-33.061
-10.71,-213.835,-32.224
-10.68,-210.571,-31.801
-10.65,-209.483,-31.686
-10.61,-208.571,-30.85
-10.58,-204.219,-30.884
-10.55,-202.78,-30.254
-10.52,-200.359,-29.704
-10.48,-199.481,-29.154
-10.45,-197.867,-28.421
-10.42,-195.796,-27.997
-10.39,-192.918,-27.711
-10.35,-190.602,-27.299
-10.32,-187.444,-27.173
-10.29,-187.057,-26.439
-10.26,-183.934,-25.867
-10.22,-179.442,-26.084
-10.19,-177.477,-25.626
-10.16,-177.757,-24.939
-10.13,-173.967,-24.652
-10.09,-171.054,-24.412
-10.06,-168.843,-23.862
-10.03,-166.702,-23.633
-10.0,-166.457,-22.59
-9.96,-162.947,-21.284
-9.93,-156.279,-21.296
-9.9,-153.296,-21.055
-9.87,-151.12,-20.941
-9.83,-148.839,-20.883
-9.8,-147.365,-20.139
-9.77,-146.101,-19.291
-9.74,-142.346,-18.936
-9.7,-139.574,-18.157
-9.67,-133.748,-17.642
-9.64,-130.835,-17.653
-9.6,-129.15,-16.943
-9.57,-127.045,-16.782
-9.54,-124.658,-16.233
-9.51,-120.763,-16.198
-9.47,-119.85,-14.927
-9.44,-113.568,-14.571
-9.41,-112.375,-13.941
-9.38,-109.708,-12.865
-9.34,-106.198,-12.441
-9.31,-101.741,-11.937
-9.28,-97.775,-11.181
-9.25,-91.949,-10.871
-9.21,-90.932,-10.127
-9.18,-86.475,-9.245
-9.15,-81.982,-9.371
-9.12,-80.017,-8.282
-9.08,-72.612,-8.351
-9.05,-69.734,-8.534
-9.02,-67.944,-8.007
-8.99,-66.541,-7.721
-8.95,-65.382,-7.011
-8.92,-61.066,-6.323
-8.89,-56.117,-5.934
-8.86,-53.941,-5.178
-8.82,-50.677,-4.342
-8.79,-46.817,-4.124
-8.76,-44.641,-3.127
-8.73,-38.85,-2.577
-8.69,-36.148,-1.959
-8.66,-31.48,-1.409
-8.63,-28.111,-1.191
-8.6,-24.567,-0.722
-8.56,-20.741,-0.493
-8.53,-16.003,-0.424
-8.5,-13.722,-0.309
-8.47,-12.81,0.653
-8.43,-8.914,0.974
-8.4,-6.036,1.352
-8.37,-2.071,1.867
-8.34,2.281,2.062
-8.3,6.949,2.073
-8.27,11.406,2.119
-8.24,16.495,2.096
-8.2,19.618,2.073
-8.17,21.198,2.669
-8.14,25.058,2.83
-8.11,28.111,2.967
-8.07,31.656,3.482
-8.04,35.481,3.78
-8.01,38.71,3.838
-7.98,41.342,4.055
-7.94,44.08,4.559
-7.91,47.343,5.04
-7.88,51.239,5.292
-7.85,55.135,5.556
-7.81,59.135,5.842
-7.78,62.119,6.22
-7.75,63.838,6.862
-7.72,66.927,7.366
-7.68,70.647,7.813
-7.65,74.016,8.557
-7.62,77.736,8.752
-7.59,79.28,9.542
-7.55,82.825,10.184
-7.52,85.843,10.86
-7.49,91.388,11.135
-7.46,93.599,11.616
-7.42,96.056,12.28
-7.39,98.618,12.521
-7.36,101.706,13.254
-7.33,107.146,13.323
-7.29,109.918,13.815
-7.26,111.919,14.663
-7.23,114.024,15.247
-7.2,117.148,15.98
-7.16,122.131,16.221
-7.13,125.571,16.611
-7.1,127.992,17.172
-7.07,129.677,17.836
-7.03,132.765,18.466
-7.0,136.134,19.623
-6.97,142.311,20.013
-6.94,144.873,20.093
-6.9,146.628,20.563
-6.87,148.663,21.032
-6.84,153.085,21.158
-6.8,153.998,21.708
-6.77,155.717,22.567
-6.74,161.017,22.476
-6.71,163.228,23.152
-6.67,165.018,23.942
-6.64,167.509,24.102
-6.61,169.615,24.607
-6.58,173.019,25.214
-6.54,176.81,25.477
-6.51,178.178,26.279
-6.48,179.968,27.333
-6.45,183.443,27.722
-6.41,186.005,28.158
-6.38,190.005,28.547
-6.35,193.234,28.307
-6.32,192.918,28.834
-6.28,194.778,29.303
-6.25,195.726,29.853
-6.22,200.218,30.071
-6.19,202.991,30.071
-6.15,203.868,30.655
-6.12,204.535,30.781
-6.09,204.991,31.01
-6.06,207.799,31.216
-6.02,209.308,31.892
-5.99,211.94,32.499
-5.96,214.467,32.614
-5.93,215.8,33.255
-5.89,218.257,33.794
-5.86,218.327,34.355
-5.83,220.644,34.676
-5.8,223.521,34.882
-5.76,227.031,35.226
-5.73,227.733,35.695
-5.7,228.435,36.257
-5.67,231.488,36.131
-5.63,233.488,36.44
-5.6,236.05,36.635
-5.57,237.489,36.532
-5.54,237.91,36.715
-5.5,237.946,37.311
-5.47,240.016,37.735
-5.44,242.403,37.895
-5.4,243.912,38.594
-5.37,245.982,39.098
-5.34,247.878,39.109
-5.31,250.089,38.937
-5.27,250.615,39.476
-5.24,252.089,40.106
-5.21,254.44,40.106
-5.18,255.177,40.472
-5.14,257.002,41.011
-5.11,258.792,41.08
-5.08,259.108,41.274
-5.05,260.617,41.045
-5.01,260.933,41.229
-4.98,262.372,41.664
-4.95,264.127,41.721
-4.92,265.671,42.111
-4.88,266.724,42.718
-4.85,268.513,42.935
-4.82,269.847,42.58
-4.79,270.409,42.741
-4.75,271.111,43.13
-4.72,272.76,43.004
-4.69,272.865,43.359
-4.66,275.182,43.703
-4.62,277.147,43.038
-4.59,276.515,43.623
-4.56,277.147,44.127
-4.53,278.586,43.543
-4.49,277.673,43.474
-4.46,278.375,43.543
-4.43,278.761,43.245
-4.4,278.586,43.898
-4.36,280.06,43.772
-4.33,279.498,43.852
-4.3,280.06,44.322
-4.27,281.674,44.184
-4.23,282.411,43.726
-4.2,282.025,43.886
-4.17,282.692,44.195
-4.13,283.464,44.665
-4.1,283.359,44.333
-4.07,282.13,43.772
-4.04,281.499,43.737
-4.0,282.095,43.508
-3.97,282.376,43.256
-3.94,280.727,43.279
-3.91,280.621,43.577
-3.87,282.587,43.199
-3.84,281.358,43.119
-3.81,279.849,43.462
-3.78,279.779,42.867
-3.74,277.708,42.512
-3.71,278.375,42.202
-3.68,277.217,41.721
-3.65,275.146,42.179
-3.61,275.954,42.019
-3.58,274.655,41.629
-3.55,272.128,41.618
-3.52,270.444,41.309
-3.48,269.952,40.381
-3.45,267.075,39.865
-3.42,263.635,40.003
-3.39,262.653,39.567
-3.35,260.266,39.464
-3.32,258.301,39.923
-3.29,257.95,39.819
-3.26,257.353,39.327
-3.22,255.283,39.258
-3.19,253.493,39.338
-3.16,252.089,39.224
-3.13,252.65,39.018
-3.09,252.299,38.685
-3.06,249.106,39.086
-3.03,249.352,38.788
-3.0,247.421,38.032
-2.96,243.666,38.456
-2.93,243.701,38.124
-2.9,241.771,37.803
-2.87,241.841,37.528
-2.83,241.139,36.772
-2.8,237.946,36.807
-2.77,237.033,36.245
-2.73,234.19,35.272
-2.7,229.979,35.123
-2.67,229.137,35.1
-2.64,228.329,34.401
-2.6,225.031,34.355
-2.57,223.521,34.275
-2.54,222.749,33.977
-2.51,221.837,33.714
-2.47,218.854,33.84
-2.44,218.327,33.29
-2.41,216.643,32.58
-2.38,214.186,32.648
-2.34,212.923,32.224
-2.31,211.343,31.526
-2.28,209.413,31.228
-2.25,207.939,30.689
-2.21,204.079,30.014
-2.18,199.13,30.002
-2.15,197.305,29.681
-2.12,196.112,29.269
-2.08,194.427,29.017
-2.05,191.444,28.822
-2.02,189.304,28.685
-1.99,188.181,28.123
-1.95,185.303,27.871
-1.92,184.882,27.069
-1.89,182.285,26.394
-1.86,178.951,26.176
-1.82,176.88,25.34
-1.79,174.458,24.962
-1.76,170.949,24.847
-1.73,169.405,24.228
-1.69,168.457,23.094
-1.66,163.193,23.22
-1.63,160.701,22.556
-1.6,157.893,21.651
-1.56,155.121,21.559
-1.53,151.892,21.147
-1.5,147.891,20.826
-1.47,145.119,20.047
-1.43,141.328,19.646
-1.4,138.942,19.623
-1.37,138.451,19.245
-1.33,136.801,19.165
-1.3,136.099,18.421
-1.27,133.221,17.848
-1.24,131.467,17.16
-1.2,128.484,16.118
-1.17,122.833,16.026
-1.14,119.008,15.637
-1.11,116.797,14.342
-1.07,111.322,14.022
-1.04,108.128,14.102
-1.01,105.602,13.392
-0.98,102.829,12.693
-0.94,99.811,12.086
-0.91,96.301,11.524
-0.88,92.336,10.745
-0.85,87.563,10.333
-0.81,85.562,9.691
-0.78,84.088,8.489
-0.75,77.42,8.649
-0.72,75.455,8.259
-0.68,70.822,7.309
-0.65,67.453,7.24
-0.62,66.014,6.278
-0.59,61.136,5.728
-0.55,56.749,5.35
-0.52,52.994,4.903
-0.49,50.011,4.365
-0.46,46.466,3.998
-0.42,42.22,3.769
-0.39,37.833,3.712
-0.36,35.587,3.402
-0.33,34.183,2.818
-0.29,32.182,2.085
-0.26,28.497,1.501
-0.23,24.075,0.985
-0.2,19.022,0.63
-0.16,13.757,0.63
-0.13,10.423,0.412
-0.1,6.984,0.08
-0.07,3.369,0.023
-0.03,-0.562,-0.08
0.0,-4.492,-0.344
0.03,-9.546,-0.309
0.07,-12.704,-0.137
0.1,-14.845,-0.642
0.13,-18.109,-0.882
0.16,-19.302,-1.512
0.2,-22.812,-2.211
0.23,-28.217,-2.199
0.26,-31.445,-2.6
0.29,-36.218,-2.933
0.33,-37.727,-3.093
0.36,-39.447,-3.941
0.39,-43.869,-4.044
0.42,-45.694,-4.88
0.46,-49.203,-5.567
0.49,-52.397,-6.175
0.52,-56.538,-6.644
0.55,-58.644,-7.526
0.59,-63.066,-7.973
0.62,-66.119,-8.454
0.65,-67.979,-9.52
0.68,-70.717,-10.253
0.72,-77.385,-10.253
0.75,-83.211,-10.218
0.78,-84.579,-10.997
0.81,-86.264,-11.501
0.85,-88.826,-11.983
0.88,-93.073,-12.681
0.91,-97.845,-12.853
0.94,-101.355,-12.979
0.98,-101.601,-13.896
1.01,-104.865,-14.64
1.04,-108.62,-14.972
1.07,-111.497,-16.049
1.11,-114.481,-16.645
1.14,-117.183,-17.321
1.17,-122.096,-17.458
1.2,-124.869,-17.894
1.24,-127.852,-18.295
1.27,-129.431,-19.016
1.3,-132.87,-19.83
1.33,-135.397,-20.815
1.37,-140.24,-21.651
1.4,-146.277,-21.502
1.43,-148.944,-21.41
1.47,-148.137,-22.086
1.5,-150.418,-22.785
1.53,-153.436,-23.129
1.56,-157.472,-23.438
1.6,-159.859,-23.736
1.63,-161.894,-24.584
1.66,-165.334,-24.641
1.69,-165.895,-25.202
1.73,-168.001,-25.924
1.76,-173.16,-25.741
1.79,-174.669,-26.004
1.82,-176.213,-27.276
1.86,-180.635,-27.321
1.89,-181.407,-28.055
1.92,-186.777,-28.295
1.95,-187.268,-28.593
1.99,-189.163,-29.269
2.02,-191.901,-29.154
2.05,-193.059,-29.613
2.08,-196.007,-30.105
2.12,-199.095,-30.231
2.15,-200.148,-30.529
2.18,-200.71,-31.228
2.21,-202.429,-31.457
2.25,-204.219,-31.491
2.28,-203.236,-32.465
2.31,-205.798,-33.359
2.34,-209.694,-33.37
2.38,-212.256,-34.092
2.41,-216.748,-34.367
2.44,-216.994,-34.813
2.47,-219.17,-35.26
2.51,-222.609,-34.985
2.54,-223.767,-35.443
2.57,-226.118,-36.096
2.6,-228.119,-36.257
2.64,-229.558,-36.555
2.67,-230.891,-36.887
2.7,-233.102,-37.082
2.73,-234.857,-37.139
2.77,-235.524,-37.299
2.8,-236.928,-37.643
2.83,-238.542,-38.032
2.87,-240.578,-38.227
2.9,-240.718,-38.857
2.93,-243.912,-39.373
2.96,-247.211,-39.224
3.0,-248.965,-39.27
3.03,-248.299,-39.613
3.06,-248.053,-40.243
3.09,-250.931,-40.255
3.13,-252.861,-40.656
3.16,-255.353,-41.08
3.19,-256.792,-41.263
3.22,-258.16,-41.24
3.26,-258.476,-41.4
3.29,-259.424,-41.572
3.32,-261.635,-41.137
3.35,-262.021,-41.229
3.39,-262.968,-42.26
3.42,-265.46,-42.053
3.45,-266.689,-42.065
3.48,-267.531,-42.5
3.52,-268.408,-42.775
3.55,-270.233,-42.271
3.58,-270.198,-42.42
3.61,-270.76,-43.073
3.65,-272.093,-43.291
3.68,-273.743,-43.199
3.71,-274.796,-43.543
3.74,-277.042,-43.279
3.78,-277.147,-43.073
3.81,-277.077,-43.577
3.84,-277.708,-43.417
3.87,-277.077,-43.359
3.91,-277.533,-43.68
3.94,-279.218,-43.543
3.97,-279.498,-43.462
4.0,-280.656,-43.439
4.04,-281.113,-43.222
4.07,-280.972,-43.531
4.1,-280.797,-43.359
4.13,-281.148,-43.05
4.17,-281.007,-43.061
4.2,-280.902,-43.417
4.23,-281.674,-43.451
4.27,-282.06,-43.199
4.3,-281.218,-43.153
4.33,-279.604,-43.6
4.36,-279.814,-43.428
4.4,-279.182,-43.302
4.43,-279.393,-43.543
4.46,-280.27,-43.543
4.49,-280.656,-43.142
4.53,-278.691,-43.13
4.56,-277.954,-42.981
4.59,-277.428,-42.271
4.62,-275.533,-42.099
4.66,-273.918,-42.156
4.69,-273.216,-42.214
4.72,-273.251,-41.985
4.75,-272.444,-41.985
4.79,-271.672,-41.629
4.82,-269.391,-41.263
4.85,-268.127,-40.702
4.88,-265.846,-40.392
4.92,-264.127,-40.312
4.95,-261.951,-40.53
4.98,-261.986,-40.369
5.01,-260.477,-40.243
5.05,-259.95,-40.175
5.08,-258.546,-39.659
5.11,-256.3,-39.396
5.14,-255.072,-39.144
5.18,-254.195,-38.857
5.21,-253.142,-38.685
5.24,-253.247,-38.227
5.27,-251.387,-37.861
5.31,-248.404,-37.941
5.34,-245.982,-37.643
5.37,-244.368,-37.047
5.4,-243.526,-36.784
5.44,-242.683,-36.463
5.47,-239.56,-36.474
5.5,-237.875,-36.28
5.54,-236.015,-35.925
5.57,-234.962,-35.81
5.6,-234.225,-35.249
5.63,-231.453,-34.836
5.67,-229.242,-34.653
5.7,-227.487,-34.538
5.73,-226.715,-34.069
5.76,-224.574,-33.324
5.8,-221.977,-33.427
5.83,-220.258,-33.404
5.86,-218.503,-33.141
5.89,-217.239,-32.511
5.93,-212.677,-32.557
5.96,-211.94,-32.751
5.99,-212.607,-31.881
6.02,-210.922,-31.571
6.06,-209.378,-31.136
6.09,-206.606,-30.598
6.12,-204.254,-29.933
6.15,-202.254,-29.235
6.19,-200.008,-28.708
6.22,-197.797,-28.238
6.25,-195.972,-27.722
6.28,-194.322,-27.276
6.32,-192.076,-26.817
6.35,-188.075,-26.714
6.38,-185.268,-26.302
6.41,-183.057,-25.958
6.45,-181.512,-25.557
6.48,-178.88,-25.214
6.51,-176.74,-24.916
6.54,-174.107,-24.721
6.58,-171.581,-24.526
6.61,-170.071,-23.839
6.64,-168.001,-23.094
6.67,-164.772,-22.648
6.71,-160.982,-21.972
6.74,-155.998,-21.685
6.77,-155.823,-21.067
6.8,-153.647,-20.517
6.84,-148.207,-20.597
6.87,-145.154,-19.726
6.9,-142.592,-19.394
6.94,-139.854,-19.073
6.97,-138.24,-18.18
7.0,-136.31,-17.642
7.03,-133.678,-17.619
7.07,-131.116,-16.851
7.1,-126.343,-16.152
7.13,-122.623,-15.992
7.16,-121.359,-15.465
7.2,-120.026,-14.308
7.23,-114.621,-13.666
7.26,-110.41,-13.231
7.29,-106.795,-12.544
7.33,-101.144,-12.761
7.36,-98.688,-12.567
7.39,-96.898,-11.65
7.42,-92.722,-11.272
7.46,-89.282,-10.974
7.49,-87.527,-9.668
7.52,-81.947,-9.222
7.55,-78.017,-9.405
7.59,-76.332,-8.592
7.62,-73.454,-8.007
7.65,-70.05,-7.755
7.68,-65.628,-7.366
7.72,-62.715,-6.633
7.75,-59.592,-6.014
7.78,-55.766,-5.911
7.81,-52.853,-5.315
7.85,-50.186,-4.422
7.88,-48.045,-3.608
7.91,-44.255,-3.299
7.94,-42.535,-2.371
7.98,-36.815,-1.661
8.01,-32.112,-1.661
8.04,-27.48,-1.272
8.07,-22.601,-1.501
8.11,-22.391,-0.79
8.14,-19.794,-0.183
8.17,-18.039,0.493
8.2,-13.231,1.283
8.24,-8.177,1.627
8.27,-3.685,1.993
8.3,1.018,2.085
8.34,5.65,2.051
8.37,9.792,1.993
8.4,14.143,1.947
8.43,16.881,1.867
8.47,18.214,2.406
8.5,21.478,2.543
8.53,24.391,2.509
8.56,27.62,3.036
8.6,31.129,3.528
8.63,34.639,3.666
8.66,38.043,3.883
8.69,41.202,4.33
8.73,45.132,4.708
8.76,48.01,5.052
8.79,51.485,5.602
8.82,56.082,5.613
8.86,57.942,6.358
8.89,62.154,6.724
8.92,64.084,7.194
8.95,67.242,7.962
8.99,71.91,8.111
9.02,74.753,8.637
9.05,78.508,8.901
9.08,81.421,9.038
9.12,83.667,9.76
9.15,85.316,10.528
9.18,88.686,11.204
9.21,93.143,11.536
9.25,96.126,12.189
9.28,98.337,12.784
9.31,100.793,13.414
9.34,104.233,14.033
9.38,107.953,14.812
9.41,113.077,15.156
9.44,117.007,15.35
9.47,117.78,16.187
9.51,119.359,16.828
9.54,123.816,16.989
9.57,127.536,17.813
9.6,130.87,18.375
9.64,132.555,18.936
9.67,135.854,20.093
9.7,141.258,20.448
9.74,144.206,20.631
9.77,146.487,21.032
9.8,148.698,21.743
9.83,151.506,22.166
9.87,154.103,22.499
9.9,156.665,22.991
9.93,160.104,23.621
9.96,164.561,23.621
10.0,166.492,24.034
10.03,168.001,24.526
10.06,168.001,25.305
10.09,171.124,25.878
10.13,173.827,26.577
10.16,178.389,27.39
10.19,183.372,27.574
10.22,186.987,27.677
10.26,187.9,28.158
10.29,188.286,28.799
10.32,190.497,28.914
10.35,193.831,28.994
10.39,195.691,29.532
10.42,198.183,30.059
10.45,200.78,29.968
10.48,200.885,30.644
10.52,203.938,31.045
10.55,205.869,30.896
10.58,207.518,31.125
10.61,208.325,31.526
10.65,208.781,32.396
10.68,211.238,32.74
10.71,211.308,33.599
10.74,214.958,34.241
10.78,217.976,34.458
10.81,219.38,34.928
10.84,221.732,34.962
10.87,222.82,35.123
10.91,224.083,35.821
10.94,228.224,35.867
10.97,229.979,36.142
11.0,231.488,36.532
11.04,232.471,36.772
11.07,235.278,36.704
11.1,236.507,36.921
11.14,237.735,37.494
11.17,239.244,37.689
11.2,240.437,38.284
11.23,242.683,38.8
11.27,245.07,39.109
11.3,246.79,39.487
11.33,249.001,39.487
11.36,250.089,39.304
11.4,250.264,39.682
11.43,251.071,40.301
11.46,254.054,40.346
11.49,254.721,40.679
11.53,256.335,41.32
11.56,259.143,41.103
11.59,259.319,41.057
11.62,259.178,41.538
11.66,260.793,41.584
11.69,262.196,41.309
11.72,262.617,42.282
11.75,265.074,42.855
11.79,267.075,42.615
11.82,268.022,43.107
11.85,270.163,43.016
11.88,270.198,43.004
11.92,271.953,43.313
11.95,273.637,42.638
11.98,272.444,43.669
12.01,275.462,43.898
12.05,277.007,43.176
12.08,277.147,43.531
12.11,277.007,43.966
12.14,278.34,43.646
12.18,278.34,43.279
12.21,278.235,43.497
12.24,278.41,43.68
12.27,278.937,44.024
12.31,280.481,43.714
12.34,280.727,43.497
12.37,279.674,44.115
12.4,281.183,44.069
12.44,281.885,43.142
12.47,279.253,43.646
12.5,280.586,44.207
12.54,283.043,44.001
12.57,282.867,43.691
12.6,282.166,44.069
12.63,283.78,43.68
12.67,283.85,43.107
12.7,282.973,43.291
12.73,281.429,43.187
12.76,280.762,43.313
12.8,283.113,42.832
12.83,281.779,42.775
12.86,280.586,42.924
12.89,279.744,42.26
12.93,277.568,42.03
12.96,277.744,41.71
12.99,275.743,41.481
13.02,273.532,42.099
13.06,275.287,41.767
13.09,273.813,41.389
13.12,272.269,41.389
13.15,270.023,40.908
13.19,267.39,40.45
13.22,265.004,40.198
13.25,262.968,40.22
13.28,263.565,39.831
13.32,262.688,39.476
13.35,259.775,39.831
13.38,258.722,39.808
13.41,257.388,39.453
13.45,255.774,39.602
13.48,255.598,39.476
13.51,254.089,39.419
13.54,253.458,39.51
13.58,254.686,38.937
13.61,254.054,38.319
13.64,250.053,38.433
13.67,247.878,38.158
13.71,247.456,36.956
13.74,244.859,36.761
13.77,243.701,36.83
13.8,241.245,36.177
13.84,238.858,35.89
13.87,236.963,35.902
13.9,235.138,35.73
13.94,233.383,34.859
13.97,229.733,34.653
14.0,228.154,35.065
14.03,227.031,35.02
14.07,227.733,34.309
14.1,225.697,34.0
14.13,222.82,34.447
14.16,221.977,33.908
14.2,220.959,33.038
14.23,219.064,32.625
14.26,217.801,32.213
14.29,215.73,31.388
14.33,212.852,31.067
14.36,210.677,30.667
14.39,206.29,30.838
14.42,204.991,30.575
14.46,203.271,29.784
14.49,199.376,29.83
14.52,196.814,29.647
14.55,194.638,29.349
14.59,194.112,29.005
14.62,192.532,28.673
14.65,191.62,28.249
14.68,189.935,27.436
14.72,186.882,27.069
14.75,184.846,26.187
14.78,180.495,26.073
14.81,180.214,25.305
14.85,177.827,24.629
14.88,174.564,24.618
14.91,170.107,24.377
14.94,167.229,24.183
14.98,165.544,23.736
15.01,163.719,23.404
15.04,162.07,22.533
15.07,158.736,21.892
15.11,154.98,21.651
15.14,153.401,21.044
15.17,151.26,20.379
15.2,147.997,19.841
15.24,143.961,19.36
15.27,141.679,18.902
15.3,138.24,18.088
15.34,134.344,18.077
15.37,134.064,17.493
15.4,132.098,17.08
15.43,129.958,16.439
15.47,125.5,15.969
15.5,123.5,15.58
15.53,121.429,14.606
15.56,118.025,13.792
15.6,113.463,13.105
15.63,109.673,12.681
15.66,106.654,12.04
15.69,102.654,11.719
15.73,99.951,10.986
15.76,94.757,10.585
15.79,91.002,10.299
15.82,87.949,9.52
15.86,83.492,9.187
15.89,80.544,8.912
15.92,77.245,8.454
15.95,75.034,8.523
15.99,76.297,8.454
16.02,76.753,7.801
16.05,75.174,6.724
16.08,70.226,5.945
16.12,64.68,5.373
16.15,58.89,4.937
16.18,55.415,4.41
16.21,52.116,3.574
16.25,47.098,2.83
16.28,40.71,1.982
16.31,33.235,1.535
16.34,27.901,1.157
16.38,23.338,0.928
16.41,19.934,0.802
16.44,15.582,0.768
16.47,11.371,0.653
16.51,7.124,0.412
16.54,3.545,0.47
16.57,1.439,0.504
16.61,-0.281,0.355
16.64,-2.492,0.206
16.67,-4.984,0.103
16.7,-7.51,-0.206
16.74,-10.107,-0.596
16.77,-11.371,-1.111
16.8,-12.704,-2.085
16.83,-19.337,-2.131
16.87,-22.636,-2.451
16.9,-25.198,-4.147
16.93,-33.586,-4.021
16.96,-35.797,-3.929
17.0,-36.604,-5.361
17.03,-41.974,-5.819
17.06,-48.502,-5.579
17.09,-52.432,-5.774
17.13,-53.625,-6.449
17.16,-56.187,-6.667
17.19,-59.03,-7.16
17.22,-62.364,-7.744
17.26,-65.417,-8.122
17.29,-68.752,-8.454
17.32,-69.489,-9.439
17.35,-72.121,-10.115
17.39,-76.122,-10.528
17.42,-79.912,-11.685
17.45,-84.966,-12.212
17.48,-88.335,-12.544
17.52,-92.265,-13.128
17.55,-95.319,-13.586
17.58,-98.056,-14.159
17.61,-100.969,-14.4
17.65,-103.741,-15.213
17.68,-108.725,-15.763
17.71,-112.515,-16.221
17.74,-115.533,-16.691
17.78,-119.324,-16.966
17.81,-122.166,-17.321
17.84,-123.64,-17.962
17.87,-125.465,-18.249
17.91,-128.378,-18.959
17.94,-133.362,-19.532
17.97,-135.748,-20.07
18.01,-137.889,-20.735
18.04,-141.995,-21.032
18.07,-143.68,-21.823
18.1,-147.154,-22.006
18.14,-149.435,-21.949
18.17,-151.541,-23.06
18.2,-155.858,-23.369
18.23,-157.332,-23.954
18.27,-159.999,-24.538
18.3,-162.14,-25.03
18.33,-165.193,-25.534
18.36,-168.387,-25.912
18.4,-171.405,-26.027
18.43,-168.808,-25.259
18.46,-162.21,-23.587
18.49,-157.086,-23.759
18.53,-158.806,-25.259
18.56,-163.684,-25.809
18.59,-165.579,-26.703
18.62,-166.457,-28.249
18.66,-170.422,-29.315
18.69,-176.634,-30.357
18.72,-184.109,-31.182
18.75,-188.918,-32.385
18.79,-193.866,-33.37
18.82,-198.744,-33.565
18.85,-202.534,-33.714
18.88,-205.763,-33.886
18.92,-207.764,-33.84
18.95,-210.887,-33.588
18.98,-213.66,-33.393
19.01,-213.835,-33.966
19.05,-215.344,-34.412
19.08,-217.134,-34.401
19.11,-216.257,-35.249
19.14,-219.591,-35.741
19.18,-223.732,-34.917
19.21,-224.469,-35.249
19.24,-226.048,-35.89
19.27,-227.768,-35.867
19.31,-228.996,-35.913
19.34,-230.225,-36.726
19.37,-233.348,-36.738
19.41,-233.032,-36.979
19.44,-235.103,-37.265
19.47,-236.226,-37.483
19.5,-237.279,-38.365
19.54,-240.157,-38.697
19.57,-243.245,-38.834
19.6,-245.0,-39.384
19.63,-246.544,-39.98
19.67,-248.439,-39.716
19.7,-248.685,-39.934
19.73,-251.141,-40.346
19.76,-253.036,-40.415
19.8,-254.335,-40.587
19.83,-254.932,-40.919
19.86,-256.125,-41.251
19.89,-256.686,-41.458
19.93,-257.494,-41.629
19.96,-258.055,-41.836
19.99,-259.705,-42.191
20.02,-261.74,-41.836
20.06,-261.986,-42.695
20.09,-265.004,-42.832
20.12,-265.565,-43.073
20.15,-267.987,-43.336
20.19,-269.391,-42.729
20.22,-269.391,-43.153
20.25,-270.689,-43.439
20.28,-272.9,-42.901
20.32,-273.322,-43.004
20.35,-274.901,-43.565
20.38,-275.848,-43.508
20.41,-276.094,-43.932
20.45,-277.252,-43.714
20.48,-278.024,-43.279
20.51,-277.744,-43.21
20.54,-277.744,-43.405
20.58,-278.516,-43.417
20.61,-279.358,-43.611
20.64,-280.2,-43.439
20.67,-280.235,-43.543
20.71,-280.341,-43.634
20.74,-280.06,-43.795
20.77,-280.516,-43.325
20.81,-280.095,-42.878
20.84,-280.305,-43.016
20.87,-280.937,-43.05
20.9,-279.604,-43.165
20.94,-279.182,-43.462
20.97,-280.692,-43.222
21.0,-280.621,-43.107
21.03,-279.709,-43.096
21.07,-278.516,-43.016
21.1,-277.884,-43.394
21.13,-280.025,-43.302
21.16,-280.025,-43.016
21.2,-279.288,-42.981
21.23,-277.954,-42.58
21.26,-276.726,-42.26
21.29,-275.533,-41.836
21.33,-273.357,-42.168
21.36,-274.515,-42.007
21.39,-274.445,-41.698
21.42,-273.883,-41.572
21.46,-271.707,-41.458
21.49,-269.917,-41.045
21.52,-267.882,-40.61
21.55,-266.513,-40.392
21.59,-264.934,-40.324
21.62,-264.197,-40.243
21.65,-261.88,-40.312
21.68,-260.687,-40.507
21.72,-261.67,-39.888
21.75,-259.599,-39.51
21.78,-257.529,-39.361
21.81,-257.002,-38.674
21.85,-256.02,-38.227
21.88,-254.335,-38.239
21.91,-252.58,-38.113
21.94,-251.317,-37.7
21.98,-250.51,-37.379
22.01,-249.808,-36.646
22.04,-245.105,-36.543
22.07,-243.245,-36.566
22.11,-242.508,-36.119
22.14,-242.543,-35.73
22.17,-240.472,-35.466
22.21,-237.84,-35.432
22.24,-235.489,-35.26
22.27,-233.875,-35.043
22.3,-233.524,-34.39
22.34,-231.453,-34.183
22.37,-229.242,-34.08
22.4,-228.189,-33.427
22.43,-226.013,-32.797
22.47,-223.451,-32.786
22.5,-221.907,-32.339
22.53,-218.573,-32.041
22.56,-216.713,-31.778
22.6,-214.572,-31.594
22.63,-213.203,-31.274
22.66,-210.361,-31.079
22.69,-209.624,-30.644
22.73,-208.22,-30.162
22.76,-207.939,-29.635
22.79,-204.64,-28.948
22.82,-200.78,-28.65
22.86,-198.779,-28.192
22.89,-197.656,-27.883
22.92,-194.568,-27.837
22.95,-193.726,-27.562
22.99,-191.901,-27.012
23.02,-190.637,-26.898
23.05,-189.268,-25.638
23.08,-183.267,-25.775
23.12,-181.863,-25.156
23.15,-180.951,-24.343
23.18,-179.337,-24.091
23.21,-175.23,-23.873
23.25,-170.493,-23.759
23.28,-170.071,-23.152
23.31,-168.913,-22.189
23.34,-162.772,-22.545
23.38,-161.789,-21.433
23.41,-158.56,-20.654
23.44,-156.139,-20.883
23.47,-154.243,-20.082
23.51,-150.839,-19.188
23.54,-146.944,-18.684
23.57,-143.224,-18.203
23.61,-140.311,-17.813
23.64,-137.363,-17.538
23.67,-135.362,-17.115
23.7,-132.098,-16.943
23.74,-130.168,-16.645
23.77,-128.238,-15.854
23.8,-124.869,-15.614
23.83,-122.447,-14.846
23.87,-117.218,-14.308
23.9,-115.007,-13.495
23.93,-112.199,-12.544
23.96,-109.286,-12.189
24.0,-105.602,-11.513
24.03,-98.933,-11.49
24.06,-96.652,-11.02
24.09,-94.336,-10.115
24.13,-90.932,-9.646
24.16,-87.422,-9.084
24.19,-83.07,-8.431
24.22,-78.964,-8.099
24.26,-75.279,-7.893
24.29,-72.963,-7.492
24.32,-70.998,-6.644
24.35,-66.751,-6.209
24.39,-63.908,-5.327
24.42,-58.153,-4.869
24.45,-54.959,-4.559
24.48,-51.204,-4.204
24.52,-50.011,-3.505
24.55,-46.992,-2.761
24.58,-43.027,-2.509
24.61,-38.043,-2.142
24.65,-35.762,-1.524
24.68,-34.358,-0.584
24.71,-30.673,-0.332
24.74,-26.567,-0.092
24.78,-22.566,0.515
24.81,-19.197,1.02
24.84,-16.916,1.386
24.87,-13.652,1.764
24.91,-9.23,2.062
24.94,-3.825,2.188
24.97,1.088,2.154
25.01,5.65,1.959
25.04,8.914,1.753
25.07,11.967,1.615
25.1,13.863,1.787
25.14,16.074,2.28
25.17,19.337,2.704
25.2,23.444,3.311
25.23,28.883,3.345
25.27,32.814,3.54
25.3,36.499,3.906
25.33,39.482,4.204
25.36,42.395,4.193
25.4,44.711,4.571
25.43,48.677,4.96
25.46,51.239,5.35
25.49,54.924,5.659
25.53,57.732,6.014
25.56,59.732,6.885
25.59,64.014,7.102
25.62,67.278,7.469
25.66,71.208,8.076
25.69,74.683,8.214
25.72,76.472,8.821
25.75,79.701,9.21
25.79,81.0,10.173
25.82,86.475,10.711
25.85,89.633,11.009
25.88,90.616,12.372
25.92,95.74,12.372
25.95,98.232,12.979
25.98,102.057,13.747
26.01,105.11,14.09
26.05,108.023,14.869
26.08,110.796,15.648
26.11,115.182,16.141
26.14,119.85,16.313
26.18,121.745,16.943
26.21,123.43,17.504
26.24,126.237,18.02
26.27,130.589,18.581
26.31,133.923,19.073
26.34,137.047,19.681
26.37,141.153,20.15
26.41,144.803,20.265
26.44,146.558,20.574
26.47,148.277,21.135
26.5,151.26,21.685
26.54,154.454,21.995
26.57,156.068,22.682
26.6,158.771,23.392
26.63,161.894,23.908
26.67,165.053,24.435
26.7,168.036,24.87
26.73,171.651,25.053
26.76,173.862,25.259
26.8,176.669,25.752
26.83,178.284,26.416
26.86,179.161,27.562
26.89,183.723,27.917
26.93,186.671,28.261
26.96,188.847,28.914
26.99,190.602,29.326
27.02,193.199,29.349
27.06,195.094,29.762
27.09,198.253,30.22
27.12,201.271,30.105
27.15,202.324,30.357
27.19,203.482,30.861
27.22,204.465,31.067
27.25,205.658,31.377
27.28,207.167,31.904
27.32,208.781,32.751
27.35,212.852,32.946
27.38,214.326,33.324
27.41,216.924,33.805
27.45,218.608,34.069
27.48,219.872,34.355
27.51,221.381,34.55
27.54,222.89,35.077
27.58,225.522,35.501
27.61,228.4,35.673
27.64,229.768,35.959
27.68,230.891,36.383
27.71,232.716,36.52
27.74,234.471,36.566
27.77,235.489,36.956
27.81,237.173,37.437
27.84,237.84,37.964
27.87,239.981,38.353
27.9,242.332,38.571
27.94,243.842,39.224
27.97,246.509,39.602
28.0,249.983,39.201
28.03,252.019,38.88
28.07,251.527,39.43
28.1,252.615,39.819
28.13,254.124,39.739
28.16,255.037,40.358
28.2,257.318,40.793
28.23,257.915,41.137
28.26,258.862,41.251
28.29,259.88,41.274
28.33,261.143,41.366
28.36,262.933,41.469
28.39,264.793,41.503
28.42,265.881,42.145
28.46,268.408,42.248
28.49,268.689,42.271
28.52,269.356,42.752
28.55,270.198,42.615
28.59,270.689,42.878
28.62,271.286,43.176
28.65,271.988,43.795
28.68,274.409,43.623
28.72,275.743,43.531
28.75,276.726,43.863
28.78,277.463,43.955
28.81,278.41,43.852
28.85,278.656,43.6
28.88,278.761,43.646
28.91,279.428,43.554
28.94,278.867,44.069
28.98,279.99,44.23
29.01,280.2,43.932
29.04,280.446,44.322
29.08,282.376,43.909
29.11,282.306,43.909
29.14,282.727,43.795
29.17,281.183,43.943
29.21,283.955,44.024
29.24,284.482,43.359
29.27,283.218,43.623
29.3,282.236,43.508
29.34,282.516,43.313
29.37,282.692,43.13
29.4,282.587,42.718
29.43,281.007,42.706
29.47,280.937,42.947
29.5,280.656,42.718
29.53,278.972,42.809
29.56,278.937,42.477
29.6,279.639,41.744
29.63,278.691,41.091
29.66,274.971,41.366
29.69,273.602,41.503
29.73,273.848,41.229
29.76,272.795,41.137
29.79,270.689,41.366
29.82,270.023,40.61
29.86,265.846,40.495
29.89,264.758,40.472
29.92,263.776,40.083
29.95,263.39,39.923
29.99,261.74,40.106
30.02,261.494,39.808
30.05,257.529,39.865
30.08,256.827,39.923
30.12,255.774,39.35
30.15,253.879,39.625
30.18,254.3,39.487
30.21,254.335,39.063
30.25,253.212,38.743
30.28,250.755,38.823
30.31,249.773,38.479
30.34,247.527,38.032
30.38,246.123,37.872
30.41,246.193,37.196
30.44,242.578,37.253
30.48,241.034,37.208
30.51,240.718,36.417
30.54,239.349,35.913
30.57,236.787,35.718
30.61,235.103,34.962
30.64,230.856,34.481
30.67,228.329,34.756
30.7,227.557,34.298
30.74,225.487,34.264
30.77,224.504,33.92
30.8,221.556,33.805
30.83,220.924,33.668
30.87,220.082,33.129
30.9,217.661,32.774
30.93,215.379,32.58
30.96,214.923,31.995
31.0,212.747,31.56
31.03,210.22,31.423
31.06,208.08,31.148
31.09,206.921,30.529
31.13,204.079,29.922
31.16,200.534,29.635
31.19,197.902,29.212
31.22,195.34,29.04
31.26,193.655,28.902
31.29,193.164,28.398
31.32,192.603,27.86
31.35,190.883,27.081
31.39,186.391,26.657
31.42,183.688,26.096
31.45,181.056,25.58
31.48,177.231,25.649
31.52,176.108,25.271
31.55,175.652,24.538
31.58,171.686,24.652
31.61,169.861,23.873
31.65,166.527,23.232
31.68,164.175,22.991
31.71,160.175,22.384
31.74,158.104,21.972
31.78,156.525,21.181
31.81,151.155,21.559
31.84,150.243,20.689
31.88,147.365,19.841
31.91,144.557,19.864
31.94,142.802,18.718
31.97,136.731,18.695
32.01,135.257,18.501
32.04,133.994,17.813
32.07,131.396,17.722
32.1,129.922,16.828
32.14,127.361,15.946
32.17,123.184,15.74
32.2,120.166,14.984
32.23,117.113,13.873
32.27,114.165,13.014
32.3,109.251,12.979
32.33,105.952,12.567
32.36,101.495,12.063
32.4,100.232,11.261
32.43,95.038,10.825
32.46,90.089,10.814
32.49,86.369,10.15
32.53,84.088,9.577
32.56,81.947,9.325
32.59,80.684,8.741
32.62,76.894,7.939
32.66,72.752,7.778
32.69,71.875,6.598
32.72,66.33,5.945
32.75,61.311,5.968
32.79,58.995,4.995
32.82,54.257,4.273
32.85,48.853,4.399
32.88,46.291,3.838
32.92,43.413,2.99
32.95,39.061,2.852
32.98,34.709,2.772
33.01,31.796,2.096
33.05,28.568,1.501
33.08,23.338,1.673
33.11,20.917,1.432
33.14,18.987,0.607
33.18,15.863,0.412
33.21,12.845,0.092
33.24,8.037,-0.355
33.28,2.632,-0.378
33.31,-2.211,-0.126
33.34,-5.756,-0.08
33.37,-9.23,0.0
33.41,-11.511,0.069
33.44,-12.81,-0.55
33.47,-17.583,-0.974
33.5,-22.04,-1.008
33.54,-22.531,-2.177
33.57,-27.515,-2.83
33.6,-33.551,-2.394
33.63,-36.394,-3.116
33.67,-40.605,-3.047
33.7,-40.605,-3.517
33.73,-43.729,-4.204
33.76,-46.536,-4.525
33.8,-49.554,-5.121
33.83,-51.906,-5.819
33.86,-54.854,-6.736
33.89,-59.732,-7.045
33.93,-63.838,-7.446
33.96,-66.962,-8.111
33.99,-70.155,-8.729
34.02,-73.77,-9.084
34.06,-75.665,-9.909
34.09,-79.07,-10.654
34.12,-83.737,-11.055
34.15,-87.773,-11.662
34.19,-91.809,-12.005
34.22,-94.897,-12.292
34.25,-98.021,-12.773
34.28,-99.811,-13.357
34.32,-102.478,-14.113
34.35,-106.865,-14.457
34.38,-109.743,-15.236
34.41,-112.866,-15.774
34.45,-114.902,-16.427
34.48,-118.271,-17.08
34.51,-122.482,-17.607
34.54,-127.29,-17.687
34.58,-127.115,-18.547
34.61,-129.922,-19.268
34.64,-135.432,-19.291
34.68,-139.644,-20.219
34.71,-142.381,-20.196
34.74,-143.188,-20.23
34.77,-144.908,-20.46
34.81,-145.856,-21.41
34.84,-148.102,-22.648
34.87,-151.576,-23.06
34.9,-154.594,-23.576
34.94,-158.209,-24.274
34.97,-162.631,-24.435
35.0,-164.175,-24.4
35.03,-164.561,-24.412
35.07,-164.07,-24.607
35.1,-165.614,-25.214
35.13,-168.633,-25.683
35.16,-171.651,-26.646
35.2,-176.213,-27.356
35.23,-179.407,-28.123
35.26,-183.372,-28.742
35.29,-187.724,-29.005
35.33,-190.286,-29.395
35.36,-191.76,-30.3
35.39,-195.726,-30.495
35.42,-198.463,-30.804
35.46,-201.868,-31.262
35.49,-203.096,-31.491
35.52,-203.307,-31.972
35.55,-206.044,-31.927
35.59,-206.219,-32.236
35.62,-207.448,-32.969
35.65,-210.326,-32.992
35.68,-211.589,-33.381
35.72,-213.484,-34.012
35.75,-214.537,-34.55
35.78,-216.292,-34.928
35.81,-219.099,-35.008
35.85,-220.117,-35.398
35.88,-222.504,-35.787
35.91,-225.417,-35.684
35.94,-226.189,-36.188
35.98,-229.733,-36.383
36.01,-229.523,-36.6
36.04,-231.313,-37.116
36.08,-234.717,-36.852
36.11,-233.804,-37.62
36.14,-237.103,-38.055
36.17,-239.384,-37.78
36.21,-239.806,-38.536
36.24,-241.631,-38.995
36.27,-242.683,-38.972
36.3,-244.228,-39.373
36.34,-246.719,-39.728
36.37,-249.036,-39.59
36.4,-249.001,-39.854
36.43,-249.878,-40.644
36.47,-253.493,-40.518
36.5,-254.932,-40.553
36.53,-255.704,-41.286
36.56,-258.406,-41.183
36.6,-257.634,-41.251
36.63,-258.406,-41.881
36.66,-260.442,-41.675
36.69,-261.845,-41.767
36.73,-263.565,-41.927
36.76,-263.951,-42.935
36.79,-266.829,-42.832
36.82,-266.934,-42.901
36.86,-268.97,-43.187
36.89,-270.198,-42.66
36.92,-270.865,-43.061
36.95,-272.935,-42.867
36.99,-273.567,-43.096
37.02,-275.182,-43.428
37.05,-275.989,-43.462
37.08,-276.199,-43.783
37.12,-277.463,-43.462
37.15,-277.428,-43.187
37.18,-276.691,-43.588
37.21,-278.726,-43.084
37.25,-278.375,-43.119
37.28,-279.077,-43.886
37.31,-280.586,-43.462
37.34,-280.867,-43.394
37.38,-280.586,-43.714
37.41,-279.323,-44.218
37.44,-279.533,-44.047
37.48,-280.621,-43.932
37.51,-281.499,-44.069
37.54,-281.92,-44.31
37.57,-283.464,-44.081
37.61,-283.92,-43.52
37.64,-281.744,-44.058
37.67,-281.288,-44.276
37.7,-281.639,-43.611
37.74,-281.253,-43.394
37.77,-282.376,-43.325
37.8,-281.148,-43.165
37.83,-280.305,-43.05
37.87,-280.481,-42.408
37.9,-278.27,-42.317
37.93,-277.533,-42.019
37.96,-275.392,-41.675
38.0,-274.409,-41.607
38.03,-273.076,-41.79
38.06,-272.514,-41.996
38.09,-273.181,-41.538
38.13,-272.093,-41.206
38.16,-269.075,-41.171
38.19,-265.881,-41.148
38.22,-264.478,-40.828
38.26,-264.513,-40.507
38.29,-262.723,-40.736
38.32,-261.88,-40.908
38.35,-262.302,-40.106
38.39,-258.897,-40.243
38.42,-258.266,-40.22
38.45,-257.388,-39.487
38.48,-255.879,-39.27
38.52,-255.142,-39.167
38.55,-255.177,-38.559
38.58,-253.247,-38.032
38.61,-250.018,-38.181
38.65,-248.474,-37.906
38.68,-246.404,-37.127
38.71,-242.754,-37.15
38.75,-241.876,-36.99
38.78,-239.314,-36.704
38.81,-238.472,-36.623
38.84,-237.033,-36.245
38.88,-234.787,-36.257
38.91,-233.839,-36.016
38.94,-232.436,-35.673
38.97,-231.453,-35.1
39.01,-229.944,-34.722
39.04,-227.873,-34.538
39.07,-226.013,-34.206
39.1,-224.434,-33.691
39.14,-222.82,-33.656
39.17,-222.363,-33.141
39.2,-219.135,-32.82
39.23,-216.362,-32.66
39.27,-214.713,-32.179
39.3,-214.186,-31.858
39.33,-211.765,-31.858
39.36,-210.431,-31.514
39.4,-209.062,-30.758
39.43,-206.465,-30.655
39.46,-204.465,-30.002
39.49,-200.85,-29.555
39.53,-198.674,-29.292
39.56,-197.867,-28.616
39.59,-195.831,-28.307
39.62,-195.2,-27.734
39.66,-192.532,-27.092
39.69,-189.163,-26.829
39.72,-186.812,-25.935
39.75,-182.916,-25.809
39.79,-180.495,-25.477
39.82,-178.249,-24.973
39.85,-176.81,-24.698
39.88,-175.301,-24.297
39.92,-171.194,-24.034
39.95,-167.931,-23.69
39.98,-166.035,-22.98
40.01,-163.333,-22.751
40.05,-161.263,-21.914
40.08,-155.998,-21.64
40.11,-153.998,-21.479
40.15,-151.12,-21.204
40.18,-148.593,-21.044
40.21,-147.856,-19.898
40.24,-145.189,-19.417
40.28,-142.03,-18.512
40.31,-136.977,-18.18
40.34,-135.117,-17.997
40.37,-133.853,-17.573
40.41,-131.677,-17.023
40.44,-127.711,-16.198
40.47,-123.816,-15.877
40.5,-120.798,-15.454
40.54,-118.762,-14.526
40.57,-113.463,-13.77
40.6,-107.321,-14.045
40.63,-106.374,-13.403
40.67,-104.268,-12.613
40.7,-100.337,-12.452
40.73,-96.091,-12.235
40.76,-93.002,-11.33
40.8,-89.598,-10.631
40.83,-86.685,-10.081
40.86,-83.281,-9.439
40.89,-80.087,-8.615
40.93,-74.121,-8.546
40.96,-71.664,-8.248
40.99,-68.857,-7.48
41.02,-66.891,-6.85
41.06,-63.733,-6.094
41.09,-60.855,-5.247
41.12,-55.415,-4.674
41.15,-50.502,-4.914
41.19,-50.151,-3.78
41.22,-45.273,-3.46
41.25,-43.904,-3.219
41.28,-42.535,-1.81
41.32,-36.604,-1.524
41.35,-32.919,-1.546
41.38,-30.428,-0.573
41.41,-25.409,-0.458
41.45,-22.285,-0.458
41.48,-17.828,-0.252
41.51,-16.776,0.401
41.55,-14.74,1.283
41.58,-11.16,1.879
41.61,-5.299,2.474
41.64,1.579,2.577
41.68,7.861,2.325
41.71,12.529,1.959
41.74,16.003,1.65
41.77,17.548,1.615
41.81,18.074,2.268
41.84,21.584,2.658
41.87,25.269,2.784
41.9,28.989,3.208
41.94,32.639,3.448
41.97,35.762,3.597
42.0,38.254,3.941
42.03,40.816,4.239
42.07,43.343,4.639
42.1,47.379,5.029
42.13,51.169,5.247
42.16,52.748,5.923
42.2,55.836,6.656
42.23,60.539,6.816
42.26,63.908,7.354
42.29,67.804,7.79
42.33,69.945,8.385
42.36,72.893,9.096
42.39,76.718,9.405
42.42,80.719,9.909
42.46,84.579,10.425
42.49,86.861,10.997
42.52,87.703,12.063
42.55,93.529,12.338
42.59,98.372,12.235
42.62,100.197,13.197
42.65,103.11,13.231
42.68,103.004,14.205
42.72,109.111,14.72
42.75,112.129,15.098
42.78,114.481,16.233
42.81,118.727,16.255
42.85,122.412,16.45
42.88,123.851,17.367
42.91,126.869,17.871
42.95,129.431,18.34
42.98,132.59,19.474
43.01,137.433,20.059
43.04,142.346,20.483
43.08,144.943,20.448
43.11,145.224,21.124
43.14,147.54,21.846
43.17,151.892,22.098
43.21,155.437,22.35
43.24,156.384,23.22
43.27,159.402,23.828
43.3,162.912,24.102
43.34,165.579,24.629
43.37,167.685,25.133
43.4,169.299,25.66
43.43,172.668,26.027
43.47,175.827,26.428
43.5,178.529,27.253
43.53,182.249,27.642
43.56,185.057,27.86
43.6,187.935,28.215
43.63,190.321,28.352
43.66,190.427,28.776
43.69,190.813,29.498
43.73,193.55,30.002
43.76,196.919,30.346
43.79,198.779,30.987
43.82,201.341,31.411
43.86,203.061,31.56
43.89,205.763,31.663
43.92,208.852,31.308
43.95,208.044,31.812
43.99,208.817,32.625
44.02,211.765,32.786
44.05,214.923,32.958
44.08,216.397,33.645
44.12,217.801,34.183
44.15,218.117,34.344
44.18,219.556,34.848
44.21,223.592,35.065
44.25,225.803,35.478
44.28,227.592,35.879
44.31,228.575,36.177
44.35,230.505,36.497
44.38,232.12,37.093
44.41,235.278,37.139
44.44,234.857,37.483
44.48,236.858,38.067
44.51,239.595,37.929
44.54,240.683,38.479
44.57,243.14,38.811
44.61,243.245,39.373
44.64,244.824,40.014
44.67,248.334,39.877
44.7,249.597,39.865
44.74,250.615,40.541
44.77,254.546,40.22
44.8,253.773,40.518
44.83,255.283,41.24
44.87,257.599,41.194
44.9,259.845,41.16
44.93,261.319,40.713
44.96,260.477,41.206
45.0,261.88,41.309
45.03,262.758,41.32
45.06,264.021,41.836
45.09,264.899,42.34
45.13,266.338,42.855
45.16,267.952,42.752
45.19,267.952,43.153
45.22,268.724,43.554
45.26,270.163,43.497
45.29,271.426,43.394
45.32,272.935,43.772
45.35,274.62,43.84
45.39,274.901,44.585
45.42,277.638,44.253
45.45,277.603,43.863
45.48,278.2,44.23
45.52,278.867,43.817
45.55,278.059,43.921
45.58,277.744,44.482
45.61,279.498,44.585
45.65,280.867,43.875
45.68,279.604,44.436
45.71,281.604,44.47
45.75,281.92,43.966
45.78,281.042,44.367
45.81,280.867,44.218
45.84,280.832,44.768
45.88,283.464,44.574
45.91,282.587,44.104
45.94,281.148,44.654
45.97,282.552,44.402
46.01,282.271,44.115
46.04,281.078,44.15
46.07,282.236,43.817
46.1,282.692,43.462
46.14,281.464,43.863
46.17,281.92,43.588
46.2,281.779,42.912
46.23,280.586,42.523
46.27,277.042,42.649
46.3,275.322,42.466
46.33,275.568,41.859
46.36,275.533,41.87
46.4,273.883,42.248
46.43,272.514,42.065
46.46,270.654,41.652
46.49,270.303,41.274
46.53,269.25,40.644
46.56,264.934,40.713
46.59,263.074,40.713
46.62,263.53,40.232
46.66,263.004,40.094
46.69,261.108,40.312
46.72,259.845,40.14
46.75,258.652,39.602
46.79,256.651,39.487
46.82,254.721,39.51
46.85,253.809,39.419
46.88,252.931,39.201
46.92,250.931,39.396
46.95,251.422,39.006
46.98,250.58,38.41
47.01,248.544,38.147
47.05,244.859,38.101
47.08,244.684,37.517
47.11,243.526,36.818
47.15,240.858,36.83
47.18,238.963,36.474
47.21,236.963,36.314
47.24,236.823,35.581
47.28,232.997,35.226
47.31,231.242,35.008
47.34,229.628,34.493
47.37,226.399,34.619
47.41,225.241,34.55
47.44,225.171,33.851
47.47,222.855,33.553
47.5,220.328,34.0
47.54,220.889,33.175
47.57,218.713,32.373
47.6,216.011,32.431
47.63,214.151,32.098
47.67,211.94,31.675
47.7,211.133,31.159
47.73,208.536,30.919
47.76,205.447,30.815
47.8,203.517,30.014
47.83,200.71,29.601
47.86,197.797,29.441
47.89,195.164,29.2
47.93,193.059,28.994
47.96,192.252,28.845
47.99,192.181,28.112
48.02,189.198,27.722
48.06,185.864,27.195
48.09,181.793,26.943
48.12,180.705,26.508
48.15,179.126,25.912
48.19,176.143,25.844
48.22,174.774,25.34
48.25,173.265,24.641
48.28,170.247,24.171
48.32,167.194,23.472
48.35,162.947,23.14
48.38,160.49,22.682
48.41,159.087,21.754
48.45,157.964,21.09
48.48,155.437,20.402
48.51,151.436,19.681
48.55,147.47,18.558
48.58,142.592,18.329
48.61,138.486,18.421
48.64,136.24,18.524
48.68,137.117,17.928
48.71,132.976,18.031
48.74,131.958,17.596
48.77,128.975,16.759
48.81,126.237,16.611
48.84,126.202,15.442
48.87,121.5,14.72
48.9,118.376,13.918
48.94,115.498,12.487
48.97,107.918,12.727
49.0,106.374,12.532
49.03,103.496,11.307
49.07,97.916,11.364
49.1,95.529,10.871
49.13,91.949,9.966
49.16,88.651,9.302
49.2,85.281,8.821
49.23,83.562,7.985
49.26,78.262,7.606
49.29,73.77,7.824
49.33,71.98,6.873
49.36,69.278,6.094
49.39,66.365,5.499
49.42,60.68,5.304
49.46,57.416,4.571
49.49,53.31,3.861
49.52,49.239,3.826
49.55,46.361,3.402
49.59,42.851,2.658
49.62,37.622,2.669
49.65,34.85,2.429
49.68,31.516,1.913
49.72,28.638,1.604
49.75,25.339,1.306
49.78,21.864,1.077
49.82,18.706,0.836
49.85,16.319,0.344
49.88,11.16,0.355
49.91,7.581,0.47
49.95,4.422,0.115
49.98,1.193,0.034
50.01,-2.386,-0.069
50.04,-6.142,-0.355
50.08,-11.546,-0.389
50.11,-14.74,-0.47
50.14,-17.337,-1.18
50.17,-21.373,-1.409
50.21,-24.742,-1.741
50.24,-29.515,-1.821
50.27,-31.937,-2.348
50.3,-35.762,-2.658
50.34,-37.903,-2.852
50.37,-40.044,-3.597
50.4,-43.132,-4.135
50.43,-46.01,-4.811
50.47,-50.923,-5.04
50.5,-51.765,-5.945
50.53,-55.836,-6.805
50.56,-60.013,-6.85
50.6,-62.926,-7.778
50.63,-68.927,-7.801
50.66,-71.664,-8.225
50.69,-73.981,-9.084
50.73,-76.683,-9.485
50.76,-80.193,-10.035
50.79,-83.492,-10.871
50.82,-87.212,-11.456
50.86,-90.967,-11.822
50.89,-93.739,-12.429
50.92,-95.81,-13.288
50.95,-100.372,-13.311
50.99,-102.548,-13.861
51.02,-106.409,-14.388
51.05,-108.444,-14.835
51.08,-111.884,-15.545
51.12,-115.849,-15.797
51.15,-118.727,-16.359
51.18,-120.166,-17.011
51.22,-122.482,-17.71
51.25,-126.448,-18.168
51.28,-129.922,-18.879
51.31,-133.713,-19.44
51.35,-138.24,-20.082
51.38,-141.785,-20.574
51.41,-143.961,-20.666
51.44,-143.785,-20.987
51.48,-147.014,-21.823
51.51,-152.103,-22.189
51.54,-154.594,-22.522
51.57,-156.174,-22.842
51.61,-157.788,-23.484
51.64,-161.263,-24.057
51.67,-162.807,-24.618
51.7,-164.737,-25.202
51.74,-168.422,-25.065
51.77,-169.756,-25.695
51.8,-172.212,-26.588
51.83,-175.02,-27.287
51.87,-179.933,-27.883
51.9,-185.162,-28.078
51.93,-187.373,-28.582
51.96,-189.514,-28.96
52.0,-191.936,-28.937
52.03,-194.638,-29.04
52.06,-195.972,-29.464
52.09,-196.007,-30.346
52.13,-199.867,-30.472
52.16,-201.482,-30.598
52.19,-202.289,-31.537
52.22,-204.184,-31.606
52.26,-203.833,-32.007
52.29,-206.781,-32.328
52.32,-207.974,-32.728
52.35,-208.922,-33.622
52.39,-211.028,-34.149
52.42,-214.011,-34.561
52.45,-218.152,-34.71
52.48,-221.24,-34.733
52.52,-222.328,-34.55
52.55,-219.872,-35.455
52.58,-223.907,-35.879
52.62,-226.996,-35.558
52.65,-228.54,-36.486
52.68,-232.19,-36.852
52.71,-232.927,-36.887
52.75,-232.822,-37.105
52.78,-233.488,-37.368
52.81,-236.191,-37.7
52.84,-238.156,-38.01
52.88,-238.823,-38.708
52.91,-241.034,-39.063
52.94,-243.105,-39.419
52.97,-245.877,-39.819
53.01,-247.527,-40.037
53.04,-249.492,-40.083
53.07,-251.913,-39.888
53.1,-252.686,-40.129
53.14,-253.563,-40.427
53.17,-253.984,-40.736
53.2,-255.388,-41.103
53.23,-257.388,-41.286
53.27,-258.195,-41.503
53.3,-258.862,-41.836
53.33,-261.108,-41.549
53.36,-262.723,-41.24
53.4,-262.933,-42.03
53.43,-264.127,-42.912
53.46,-266.653,-42.408
53.49,-266.478,-42.786
53.53,-268.478,-43.13
53.56,-269.917,-42.546
53.59,-270.76,-42.626
53.62,-270.9,-43.187
53.66,-272.725,-43.508
53.69,-274.094,-43.165
53.72,-275.146,-43.691
53.75,-276.761,-43.359
53.79,-276.234,-43.783
53.82,-278.059,-43.508
53.85,-276.936,-43.451
53.88,-277.252,-43.691
53.92,-278.761,-43.382
53.95,-279.533,-43.405
53.98,-280.165,-43.462
54.02,-280.235,-43.68
54.05,-281.569,-43.428
54.08,-281.709,-43.119
54.11,-281.113,-43.21
54.15,-280.551,-43.165
54.18,-279.463,-43.783
54.21,-281.885,-43.737
54.24,-282.622,-43.382
54.28,-282.341,-43.451
54.31,-280.692,-43.634
54.34,-281.078,-43.508
54.37,-280.972,-43.027
54.41,-278.972,-43.394
54.44,-279.639,-43.439
54.47,-279.218,-43.394
54.5,-279.253,-43.405
54.54,-278.691,-43.176
54.57,-276.901,-43.004
54.6,-275.533,-42.798
54.63,-274.971,-42.454
54.67,-274.725,-42.237
54.7,-274.55,-42.134
54.73,-272.128,-42.489
54.76,-271.707,-42.374
54.8,-270.549,-41.939
54.83,-269.742,-41.607
54.86,-268.198,-41.114
54.89,-266.092,-40.747
54.93,-263.495,-40.69
54.96,-264.162,-40.495
54.99,-265.25,-39.671
55.02,-263.495,-39.487
55.06,-261.494,-39.155
55.09,-257.599,-38.88
55.12,-255.107,-38.777
55.15,-252.896,-38.995
55.19,-254.019,-38.846
55.22,-253.317,-38.468
55.25,-251.282,-38.754
55.28,-251.773,-38.158
55.32,-249.316,-37.792
55.35,-247.562,-37.46
55.38,-245.772,-36.658
55.42,-243.069,-36.314
55.45,-240.297,-36.452
55.48,-240.086,-36.096
55.51,-238.297,-35.661
55.55,-236.121,-35.982
55.58,-235.699,-35.547
55.61,-233.629,-35.02
55.64,-231.699,-34.687
55.68,-227.979,-34.894
55.71,-227.066,-34.813
55.74,-226.118,-34.172
55.77,-224.153,-34.046
55.81,-221.17,-34.195
55.84,-219.345,-33.966
55.87,-219.591,-33.107
55.9,-218.047,-32.568
55.94,-214.467,-32.408
55.97,-212.115,-32.396
56.0,-211.94,-31.801
56.03,-211.168,-31.251
56.07,-208.115,-31.09
56.1,-206.079,-30.689
56.13,-204.465,-29.727
56.16,-201.692,-29.315
56.2,-198.604,-29.051
56.23,-196.849,-28.65
56.26,-196.077,-27.917
56.29,-193.41,-27.883
56.33,-192.041,-27.287
56.36,-188.882,-26.84
56.39,-186.25,-26.405
56.42,-183.337,-25.809
56.46,-180.67,-25.431
56.49,-178.389,-25.111
56.52,-175.967,-24.801
56.55,-172.563,-24.881
56.59,-171.826,-24.297
56.62,-169.685,-23.61
56.65,-166.141,-23.346
56.68,-162.737,-22.865
56.72,-159.753,-22.35
56.75,-156.7,-21.972
56.78,-154.489,-21.72
56.82,-152.243,-21.445
56.85,-149.155,-21.021
56.88,-146.382,-20.437
56.91,-144.803,-19.749
56.95,-142.557,-18.821
56.98,-138.1,-18.375
57.01,-134.976,-18.134
57.04,-132.555,-17.859
57.08,-129.922,-17.584
57.11,-126.799,-16.817
57.14,-123.605,-16.462
57.17,-120.903,-16.061
57.21,-117.464,-15.591
57.24,-115.884,-14.319
57.27,-111.638,-13.54
57.3,-106.97,-13.563
57.34,-103.706,-13.014
57.37,-101.004,-12.086
57.4,-98.828,-11.295
57.43,-93.073,-11.032
57.47,-87.212,-10.929
57.5,-83.176,-10.299
57.53,-81.245,-9.829
57.56,-80.544,-9.05
57.6,-75.981,-8.786
57.63,-72.928,-8.248
57.66,-69.173,-7.469
57.69,-66.154,-6.988
57.73,-63.979,-6.094
57.76,-57.275,-5.991
57.79,-54.819,-5.797
57.82,-52.678,-4.788
57.86,-48.782,-4.697
57.89,-46.677,-4.216
57.92,-44.185,-3.471
57.95,-41.272,-2.497
57.99,-37.025,-2.245
58.02,-34.113,-1.42
58.05,-27.585,-1.455
58.08,-27.304,-0.733
58.12,-22.742,-0.023
58.15,-18.355,-0.218
58.18,-16.6,0.561
58.22,-13.582,1.535
58.25,-7.124,1.524
58.28,-2.527,1.501
58.31,1.158,2.085
58.35,5.58,1.982
58.38,8.809,1.695
58.41,12.283,1.81
58.44,15.337,2.142
58.48,17.583,2.532
58.51,21.654,2.646
58.54,25.269,2.749
58.57,28.883,3.196
58.61,32.323,3.494
58.64,35.727,3.746
58.67,39.131,3.975
58.7,41.798,4.17
58.74,44.325,4.594
58.77,47.554,5.052
58.8,50.256,5.59
58.83,54.889,5.774
58.87,58.118,6.117
58.9,62.61,6.53
58.93,64.645,6.69
58.96,65.312,7.755
59.0,69.98,7.95
59.03,72.682,8.706
59.06,77.631,9.176
59.09,80.789,9.497
59.13,83.211,10.31
59.16,85.527,11.02
59.19,89.317,11.57
59.22,92.827,12.189
59.26,97.038,12.613
59.29,100.618,12.819
59.32,103.496,13.231
59.35,105.531,13.724
59.39,107.426,14.606
59.42,111.006,15.247
59.45,115.955,15.671
59.48,120.236,15.889
59.52,121.465,16.485
59.55,123.184,17.023
59.58,125.5,17.836
59.62,129.852,18.455
59.65,132.976,19.085
59.68,137.117,20.001
59.71,140.732,20.448
59.75,143.961,20.505
59.78,146.101,20.803
59.81,148.488,21.662
59.84,152.243,21.651
59.88,154.454,22.086
59.91,157.262,22.636
59.94,160.175,23.083
59.97,162.28,23.736
60.01,165.158,24.217
60.04,167.088,24.698
60.07,169.264,25.408
60.1,172.458,25.764
60.14,175.441,26.313
60.17,178.915,26.921
60.2,182.074,27.482
60.23,185.794,27.596
60.27,187.479,28.009
60.3,188.637,28.57
60.33,190.146,28.891
60.36,192.848,29.12
60.4,196.393,29.338
60.43,198.148,29.762
60.46,198.849,30.369
60.49,200.323,30.77
60.53,203.307,30.976
60.56,205.272,31.205
60.59,207.062,31.503
60.62,209.448,31.411
60.66,209.343,32.098
60.69,211.8,32.786
60.72,215.169,32.728
60.75,217.415,33.038
60.79,219.205,33.53
60.82,218.503,33.966
60.85,219.345,34.321
60.89,222.433,34.55
60.92,224.644,35.18
60.95,226.855,35.764
60.98,228.996,35.902
61.02,231.032,36.2
61.05,231.699,36.795
61.08,234.962,36.921
61.11,236.577,36.852
61.15,237.84,37.311
61.18,239.56,37.838
61.21,241.315,38.284
61.24,243.561,38.525
61.28,246.193,38.64
61.31,246.474,39.075
61.34,247.456,39.441
61.37,249.702,39.075
61.41,250.018,39.567
61.44,252.405,40.106
61.47,254.581,40.106
61.5,255.247,40.392
61.54,256.651,41.011
61.57,259.389,40.885
61.6,259.845,40.839
61.63,261.389,40.759
61.67,261.635,40.782
61.7,262.021,41.549
61.73,263.39,41.847
61.76,265.074,42.042
61.8,266.338,42.351
61.83,267.32,42.993
61.86,268.338,43.004
61.89,269.215,43.176
61.93,271.286,42.775
61.96,271.461,43.176
61.99,274.129,43.291
62.02,275.111,43.279
62.06,276.831,43.588
62.09,276.62,43.84
62.12,277.673,44.058
62.15,279.007,43.21
62.19,277.708,43.6
62.22,278.235,43.669
62.25,278.13,43.84
62.29,278.691,44.287
62.32,279.919,44.127
62.35,279.99,44.047
62.38,280.867,44.241
62.42,281.393,44.081
62.45,281.569,44.138
62.48,282.06,43.806
62.51,282.201,44.264
62.55,283.253,44.425
62.58,282.938,44.069
62.61,282.06,44.081
62.64,282.797,44.047
62.68,283.499,43.6
62.71,282.376,43.336
62.74,282.516,43.05
62.77,281.744,43.13
62.81,281.464,43.348
62.84,281.253,43.061
62.87,280.095,42.878
62.9,279.112,42.683
62.94,277.533,42.397
62.97,275.392,42.271
63.0,275.041,42.156
63.03,276.901,41.607
63.07,275.006,41.561
63.1,272.234,41.881
63.13,271.075,41.389
63.16,270.374,40.644
63.2,268.198,40.427
63.23,265.53,40.495
63.26,264.162,39.991
63.29,262.126,40.094
63.33,261.845,40.255
63.36,261.038,40.083
63.39,260.582,39.728
63.42,258.231,39.636
63.46,256.862,39.441
63.49,255.458,39.029
63.52,254.581,38.914
63.55,253.177,38.926
63.59,252.475,38.674
63.62,251.282,38.296
63.65,250.264,38.055
63.69,248.509,37.609
63.72,246.684,37.082
63.75,244.228,36.646
63.78,241.28,36.726
63.82,240.823,36.085
63.85,238.016,35.844
63.88,235.419,36.509
63.91,236.015,35.799
63.95,233.524,35.008
63.98,231.488,34.974
64.01,229.909,34.722
64.04,227.206,34.504
64.08,226.505,34.183
64.11,224.855,33.805
64.14,222.328,33.748
64.17,221.416,33.542
64.21,221.1,32.923
64.24,220.433,32.076
64.27,216.397,31.846
64.3,211.694,32.202
64.34,212.08,31.48
64.37,210.396,30.896
64.4,208.255,31.193
64.43,206.746,30.38
64.47,202.956,29.956
64.5,201.411,29.349
64.53,197.867,29.131
64.56,195.445,28.914
64.6,194.217,28.49
64.63,193.726,28.135
64.66,191.936,27.745
64.69,188.426,27.287
64.73,184.811,26.955
64.76,184.039,26.21
64.79,180.986,25.912
64.82,178.564,25.626
64.86,176.494,25.076
64.89,174.037,24.962
64.92,171.826,24.607
64.95,169.756,23.782
64.99,165.895,23.53
65.02,164.561,22.877
65.05,162.666,21.846
65.09,159.192,21.388
65.12,154.63,21.135
65.15,151.331,21.044
65.18,149.786,20.574
65.22,148.558,19.841
65.25,145.54,19.28
65.28,141.574,19.016
65.31,138.24,18.168
65.35,134.59,18.065
65.38,133.081,17.825
65.41,131.677,17.183
65.44,129.115,16.645
65.48,125.395,16.278
65.51,122.237,16.015
65.54,120.377,15.179
65.57,117.85,14.148
65.61,112.866,13.678
65.64,108.409,13.575
65.67,106.339,12.83
65.7,103.145,12.166
65.74,100.478,11.604
65.77,96.407,10.894
65.8,92.581,10.092
65.83,87.247,9.588
65.87,82.719,9.451
65.9,81.596,8.672
65.93,79.807,7.824
65.96,73.911,7.824
66.0,69.594,7.767
66.03,68.681,6.335
66.06,63.242,6.129
66.09,60.329,6.14
66.13,57.977,5.063
66.16,53.31,4.651
66.19,50.362,4.502
66.22,46.922,3.815
66.26,43.062,3.391
66.29,40.71,2.818
66.32,36.078,2.681
66.35,33.411,2.222
66.39,29.41,1.753
66.42,25.62,1.65
66.45,22.812,1.214
66.49,19.969,0.676
66.52,16.495,0.355
66.55,12.775,0.08
66.58,7.826,0.0
66.62,3.79,-0.126
66.65,-0.597,-0.115
66.68,-4.317,-0.046
66.71,-7.721,-0.126
66.75,-11.792,-0.16
66.78,-13.652,-0.596
66.81,-17.513,-1.249
66.84,-23.093,-0.985
66.88,-22.25,-2.211
66.91,-27.725,-3.001
66.94,-33.551,-2.474
66.97,-34.814,-3.288
67.01,-38.429,-3.574
67.04,-41.869,-3.368
67.07,-42.957,-4.193
67.1,-44.781,-5.121
67.14,-49.133,-5.27
67.17,-53.696,-5.487
67.2,-54.749,-6.667
67.23,-57.556,-7.606
67.27,-63.803,-7.435
67.3,-65.944,-8.363
67.33,-70.436,-9.187
67.36,-74.928,-8.901
67.4,-75.876,-10.081
67.43,-81.105,-10.31
67.46,-84.229,-10.608
67.49,-88.37,-11.318
67.53,-91.388,-11.593
67.56,-93.178,-12.154
67.59,-94.547,-13.025
67.62,-98.337,-13.529
67.66,-101.636,-14.022
67.69,-105.286,-14.709
67.72,-108.444,-15.202
67.75,-111.041,-16.003
67.79,-114.621,-16.622
67.82,-118.657,-16.989
67.85,-122.202,-17.367
67.89,-124.834,-17.836
67.92,-127.01,-18.352
67.95,-129.572,-19.028
67.98,-132.133,-19.887
68.02,-136.836,-20.838
68.05,-142.943,-20.861
68.08,-145.399,-20.872
68.11,-145.926,-20.975
68.15,-147.856,-21.33
68.18,-151.822,-22.006
68.21,-153.752,-22.396
68.24,-154.63,-23.071
68.28,-158.244,-23.53
68.31,-163.087,-23.85
68.34,-164.842,-24.469
68.37,-166.176,-25.03
68.41,-167.755,-25.271
68.44,-169.334,-26.187
68.47,-173.721,-26.714
68.5,-178.003,-27.058
68.54,-181.021,-27.734
68.57,-183.267,-28.456
68.6,-186.847,-28.536
68.63,-189.374,-28.605
68.67,-191.69,-29.005
68.7,-193.094,-29.189
68.73,-193.726,-29.647
68.76,-196.744,-29.865
68.8,-198.428,-30.472
68.83,-201.552,-30.85
68.86,-203.061,-30.815
68.89,-203.482,-31.755
68.93,-205.096,-32.58
68.96,-208.044,-32.981
68.99,-210.957,-33.381
69.02,-214.186,-34.057
69.06,-218.433,-33.92
69.09,-219.31,-34.183
69.12,-220.433,-34.894
69.15,-223.486,-35.214
69.19,-226.399,-35.283
69.22,-227.066,-36.268
69.25,-233.067,-36.142
69.29,-234.366,-35.741
69.32,-233.804,-36.784
69.35,-236.086,-36.875
69.38,-237.805,-36.933
69.42,-240.683,-37.219
69.45,-241.666,-37.46
69.48,-241.455,-37.643
69.51,-241.946,-38.09
69.55,-244.93,-38.204
69.58,-247.0,-38.239
69.61,-248.228,-38.491
69.64,-247.667,-38.731
69.68,-247.456,-38.949
69.71,-247.913,-39.041
69.74,-249.176,-39.636
69.77,-253.493,-40.129
69.81,-256.125,-40.14
69.84,-254.791,-40.931
69.87,-255.669,-41.572
69.9,-259.283,-41.286
69.94,-261.038,-40.805
69.97,-260.793,-41.549
70.0,-262.126,-41.927
70.03,-263.039,-42.111
70.07,-264.864,-42.489
70.1,-266.302,-42.775
70.13,-268.268,-42.741
70.16,-269.04,-42.695
70.2,-270.093,-42.867
70.23,-271.707,-42.408
70.26,-272.128,-42.5
70.29,-272.76,-43.222
70.33,-274.901,-43.245
70.36,-275.638,-43.279
70.39,-276.094,-44.069
70.42,-277.042,-44.058
70.46,-277.217,-43.943
70.49,-278.024,-43.795
70.52,-278.481,-43.657
70.55,-279.182,-43.657
70.59,-279.112,-44.161
70.62,-280.727,-44.39
70.65,-281.183,-44.047
70.69,-281.007,-44.241
70.72,-281.815,-43.955
70.75,-281.815,-43.737
70.78,-281.288,-43.829
70.82,-281.183,-43.875
70.85,-280.902,-44.184
70.88,-282.341,-44.344
70.91,-283.675,-43.371
70.95,-282.481,-43.543
70.98,-283.218,-43.565
71.01,-283.148,-43.153
71.04,-281.534,-43.119
71.08,-280.727,-43.313
71.11,-281.358,-43.417
71.14,-281.709,-43.394
71.17,-279.533,-43.565
71.21,-279.112,-43.13
71.24,-277.919,-42.512
71.27,-276.27,-42.386
71.3,-267.987,-39.648
71.34,-250.685,-35.867
71.37,-238.507,-35.237
71.4,-237.805,-36.772
71.43,-240.683,-37.505
71.47,-238.297,-38.365
71.5,-236.928,-40.037
71.53,-239.595,-41.412
71.56,-243.28,-42.855
71.6,-250.229,-43.909
71.63,-256.581,-44.138
71.66,-260.231,-44.127
71.69,-262.337,-43.577
71.73,-262.302,-42.912
71.76,-261.74,-42.007
71.79,-260.582,-41.057
71.82,-260.547,-39.888
71.86,-258.617,-39.121
71.89,-255.984,-38.766
71.92,-253.142,-38.296
71.96,-251.562,-37.975
71.99,-251.282,-37.62
72.02,-249.773,-37.139
72.05,-247.07,-36.807
72.09,-244.579,-36.692
72.12,-242.543,-36.784
72.15,-242.368,-36.452
72.18,-239.139,-36.383
72.22,-238.121,-36.509
72.25,-238.928,-35.753
72.28,-235.945,-35.501
72.31,-234.05,-35.169
72.35,-231.944,-34.481
72.38,-229.382,-34.367
72.41,-228.014,-34.138
72.44,-225.101,-33.874
72.48,-224.715,-33.748
72.51,-223.17,-33.427
72.54,-219.24,-33.53
72.57,-219.836,-32.385
72.61,-216.748,-31.904
72.64,-213.976,-32.316
72.67,-210.887,-31.858
72.7,-208.922,-31.56
72.74,-209.413,-30.919
72.77,-206.255,-30.701
72.8,-203.061,-30.197
72.83,-202.359,-29.086
72.87,-200.955,-28.352
72.9,-197.165,-28.501
72.93,-194.638,-28.02
72.96,-191.971,-27.894
73.0,-192.357,-27.482
73.03,-190.883,-26.875
73.06,-188.882,-26.233
73.09,-185.162,-25.683
73.13,-181.161,-25.603
73.16,-178.845,-25.294
73.19,-176.88,-25.179
73.22,-175.476,-24.973
73.26,-173.862,-24.32
73.29,-171.475,-23.702
73.32,-168.141,-23.014
73.36,-164.0,-22.682
73.39,-160.701,-22.121
73.42,-157.858,-21.8
73.45,-158.139,-21.078
73.49,-154.665,-20.815
73.52,-150.874,-20.414
73.55,-146.242,-19.715
73.58,-141.855,-19.956
73.62,-141.048,-19.142
73.65,-137.784,-18.558
73.68,-136.169,-17.905
73.71,-132.765,-17.011
73.75,-128.484,-17.023
73.78,-126.273,-16.324
73.81,-121.815,-16.198
73.84,-119.991,-15.717
73.88,-117.78,-14.846
73.91,-114.27,-14.274
73.94,-110.515,-13.999
73.97,-109.146,-13.128
74.01,-104.408,-12.601
74.04,-100.513,-12.578
74.07,-97.108,-11.891
74.1,-92.476,-11.65
74.14,-91.107,-10.745
74.17,-86.194,-10.23
74.2,-82.544,-10.035
74.23,-79.07,-9.451
74.27,-74.893,-9.073
74.3,-70.401,-9.222
74.33,-71.384,-8.294
74.36,-68.225,-7.16
74.4,-64.049,-6.988
74.43,-60.188,-6.175
74.46,-55.591,-5.762
74.49,-54.117,-5.075
74.53,-50.923,-4.502
74.56,-47.87,-3.952
74.59,-43.588,-3.574
74.62,-40.5,-3.001
74.66,-37.166,-2.234
74.69,-32.744,-2.131
74.72,-29.269,-1.799
74.76,-26.427,-1.18
74.79,-22.672,-0.561
74.82,-15.337,-0.974
74.85,-14.775,-0.527
74.89,-14.705,1.111
74.92,-8.704,0.836
74.95,-5.966,1.18
74.98,-1.649,2.314
75.02,3.931,2.303
75.05,8.563,1.879
75.08,12.283,1.947
75.11,16.284,1.89
75.15,17.232,2.073
75.18,19.864,2.612
75.21,24.181,2.726
75.24,27.62,3.047
75.28,31.516,3.437
75.31,34.99,3.597
75.34,37.798,3.769
75.37,41.237,4.261
75.41,45.273,4.662
75.44,48.782,5.132
75.47,52.573,5.201
75.5,54.573,5.567
75.54,58.398,6.106
75.57,61.732,6.392
75.6,63.698,7.171
75.63,67.032,7.286
75.67,68.401,7.996
75.7,72.261,8.867
75.73,76.508,8.901
75.76,78.017,9.852
75.8,83.772,10.115
75.83,85.948,10.608
75.86,89.247,11.513
75.89,92.581,11.513
75.93,94.757,12.372
75.96,99.776,12.567
75.99,103.355,12.75
76.02,105.005,13.483
76.06,108.023,14.182
76.09,112.515,14.297
76.12,112.796,15.614
76.16,114.27,16.725
76.19,119.113,17.057
76.22,125.43,17.504
76.25,129.221,17.882
76.29,130.203,18.363
76.32,132.8,18.695
76.35,136.275,19.337
76.38,140.311,20.036
76.42,143.399,20.219
76.45,145.505,20.597
76.48,147.681,20.952
76.51,149.506,21.777
76.55,153.12,22.189
76.58,155.963,22.705
76.61,159.402,23.255
76.64,160.666,24.114
76.68,164.14,24.687
76.71,168.036,24.79
76.74,171.194,25.248
76.77,173.09,25.706
76.81,174.95,26.302
76.84,179.126,26.691
76.87,182.39,27.104
76.9,183.302,28.112
76.94,187.373,28.398
76.97,190.462,28.146
77.0,190.813,28.948
77.03,193.55,29.349
77.07,196.323,29.177
77.1,197.972,29.727
77.13,200.815,30.082
77.16,201.727,30.277
77.2,203.693,30.586
77.23,204.886,30.781
77.26,205.482,31.285
77.29,205.869,31.972
77.33,209.132,32.545
77.36,211.238,33.072
77.39,214.572,33.714
77.42,218.678,33.359
77.46,218.152,34.172
77.49,221.907,34.241
77.52,221.31,34.172
77.56,221.205,35.409
77.59,225.557,35.547
77.62,227.277,35.821
77.65,230.962,36.108
77.69,232.155,36.314
77.72,233.418,36.818
77.75,236.05,36.52
77.78,236.542,36.555
77.82,236.331,37.448
77.85,239.49,37.769
77.88,242.613,37.471
77.91,241.806,38.273
77.95,242.859,39.109
77.98,245.386,39.052
78.01,246.333,39.338
78.04,248.053,39.854
78.08,250.58,39.98
78.11,252.896,40.117
78.14,254.335,40.576
78.17,254.967,41.091
78.21,257.88,41.206
78.24,261.073,40.576
78.27,260.968,40.759
78.3,261.53,41.022
78.34,261.74,40.965
78.37,263.004,41.217
78.4,264.021,41.343
78.43,264.021,42.397
78.47,267.285,42.351
78.5,267.987,42.065
78.53,268.198,43.05
78.56,269.847,42.912
78.6,269.461,43.313
78.63,271.637,43.577
78.66,273.286,43.245
78.69,274.304,43.657
78.73,275.533,44.161
78.76,276.585,44.367
78.79,278.024,44.047
78.82,278.516,43.806
78.86,277.849,44.15
78.89,278.831,44.069
78.92,279.533,43.921
78.96,280.165,44.207
78.99,281.007,44.195
79.02,281.499,43.966
79.05,281.499,43.863
79.09,280.972,43.875
79.12,281.007,44.047
79.15,281.253,43.783
79.18,281.815,43.886
79.22,282.236,43.898
79.25,282.516,44.207
79.28,283.183,43.898
79.31,282.797,44.069
79.35,283.604,43.783
79.38,282.692,43.565
79.41,282.376,43.279
79.44,281.534,43.371
79.48,281.885,43.348
79.51,280.832,43.233
79.54,281.042,42.912
79.57,279.533,42.5
79.61,277.147,42.523
79.64,276.691,42.03
79.67,276.129,41.584
79.7,275.954,41.526
79.74,274.796,41.526
79.77,272.83,41.458
79.8,271.777,41.022
79.83,269.531,40.782
79.87,268.794,40.427
79.9,266.653,39.888
79.93,262.793,40.243
79.96,262.267,40.301
80.0,261.775,40.117
80.03,261.986,39.957
80.06,260.757,39.819
80.09,258.582,39.648
80.13,256.897,39.247
80.16,255.914,38.937
80.19,254.054,38.983
80.22,251.527,39.361
80.26,251.633,39.052
80.29,250.826,38.628
80.32,249.281,38.8
80.36,248.825,38.124
80.39,245.596,37.631
80.42,243.736,37.379
80.45,240.823,37.402
80.49,239.806,37.162
80.52,239.806,36.486
80.55,238.577,36.291
80.58,235.173,36.566
80.62,235.278,35.753
80.65,232.471,35.031
80.68,230.821,34.802
80.71,227.242,34.882
80.75,226.75,34.619
80.78,224.995,33.977
80.81,224.329,33.633
80.84,222.855,33.141
80.88,220.749,32.82
80.91,217.38,32.316
80.94,214.888,32.202
80.97,214.432,31.663
81.01,211.87,31.549
81.04,209.94,31.308
81.07,207.658,31.067
81.1,205.974,30.667
81.14,202.57,30.392
81.17,199.832,30.071
81.2,198.428,29.578
81.23,197.165,29.131
81.27,195.551,28.696
81.3,193.48,28.295
81.33,190.602,28.135
81.36,188.145,27.745
81.4,186.285,27.104
81.43,183.934,26.6
81.46,181.934,26.164
81.49,180.074,25.259
81.53,174.704,25.534
81.56,173.827,25.156
81.59,172.072,24.538
81.62,169.615,24.332
81.66,166.527,23.667
81.69,164.386,23.083
81.72,161.333,22.499
81.76,157.578,22.224
81.79,155.823,21.525
81.82,153.261,21.25
81.85,150.594,20.757
81.89,146.909,20.082
81.92,144.627,19.337
81.95,140.1,18.925
81.98,136.555,18.833
82.02,134.801,18.237
82.05,133.221,17.859
82.08,130.87,17.802
82.11,130.589,16.782
82.15,127.22,15.98
82.18,123.149,15.877
82.21,119.885,15.007
82.24,116.727,14.056
82.28,112.27,13.563
82.31,107.391,13.838
82.34,105.145,13.231
82.37,101.039,12.842
82.41,100.372,12.109
82.44,96.301,11.318
82.47,93.388,10.596
82.5,88.37,9.68
82.54,83.878,9.405
82.57,82.368,8.34
82.6,76.367,8.351
82.63,74.191,8.065
82.67,71.7,7.068
82.7,67.242,6.667
82.73,61.136,7.022
82.76,60.188,6.289
82.8,58.047,5.201
82.83,55.45,4.972
82.86,51.765,4.456
82.89,47.379,3.78
82.93,43.799,3.024
82.96,39.973,2.646
82.99,35.481,2.44
83.03,31.621,2.085
83.06,27.55,1.821
83.09,24.988,1.592
83.12,22.321,1.123
83.16,17.407,1.272
83.19,15.056,1.123
83.22,12.985,0.596
83.25,10.493,0.275
83.29,6.949,-0.137
83.32,1.79,-0.447
83.35,-3.86,-0.435
83.38,-8.353,-0.195
83.42,-12.389,-0.092
83.45,-14.88,-0.195
83.48,-16.389,-0.985
83.51,-21.057,-1.134
83.55,-25.479,-1.1
83.58,-28.918,-1.581
83.61,-31.621,-2.429
83.64,-35.938,-2.406
83.68,-35.973,-2.887
83.71,-39.658,-3.757
83.74,-43.167,-3.941
83.77,-45.097,-5.04
83.81,-51.239,-5.04
83.84,-53.415,-5.51
83.87,-56.363,-6.484
83.9,-60.609,-6.553
83.94,-62.399,-7.24
83.97,-66.26,-8.111
84.0,-70.05,-8.374
84.03,-72.191,-9.359
84.07,-77.455,-9.485
84.1,-79.561,-10.104
84.13,-84.229,-10.722
84.16,-87.808,-10.871
84.2,-89.738,-11.834
84.23,-93.81,-12.097
84.26,-95.705,-12.647
84.29,-99.004,-13.38
84.33,-103.636,-13.403
84.36,-105.707,-14.09
84.39,-107.426,-15.098
84.43,-110.796,-15.625
84.46,-114.445,-16.393
84.49,-119.499,-16.771
84.52,-121.465,-17.183
84.56,-123.711,-18.008
84.59,-128.975,-17.825
84.62,-130.659,-18.661
84.65,-133.046,-19.566
84.69,-138.205,-19.818
84.72,-142.171,-20.414
84.75,-145.013,-20.574
84.78,-145.926,-20.127
84.82,-145.68,-21.319
84.85,-150.243,-22.121
84.88,-153.577,-22.304
84.91,-156.7,-22.831
84.95,-159.648,-23.209
84.98,-161.789,-23.919
85.01,-163.649,-24.549
85.04,-166.0,-25.007
85.08,-169.65,-25.214
85.11,-171.826,-25.729
85.14,-173.581,-26.577
85.17,-176.845,-27.115
85.21,-179.442,-27.86
85.24,-184.109,-28.295
85.27,-187.689,-28.33
85.3,-190.286,-28.364
85.34,-190.005,-28.879
85.37,-193.024,-29.131
85.4,-196.288,-29.051
85.43,-199.516,-30.277
85.47,-202.991,-31.033
85.5,-203.658,-31.4
85.53,-205.974,-31.319
85.56,-207.307,-31.48
85.6,-208.044,-31.858
85.63,-208.36,-32.167
85.66,-209.238,-32.408
85.69,-210.501,-33.003
85.73,-213.87,-33.175
85.76,-213.73,-33.817
85.79,-215.485,-34.584
85.83,-218.573,-34.424
85.86,-219.872,-34.687
85.89,-220.995,-35.249
85.92,-223.802,-35.272
85.96,-224.574,-35.272
85.99,-224.925,-36.016
86.02,-227.382,-36.211
86.05,-228.821,-36.474
86.09,-231.944,-36.555
86.12,-233.208,-36.738
86.15,-233.383,-37.368
86.18,-234.015,-38.09
86.22,-237.068,-38.41
86.25,-239.771,-38.777
86.28,-242.368,-39.419
86.31,-243.561,-39.968
86.35,-246.368,-40.117
86.38,-248.86,-39.98
86.41,-250.334,-40.381
86.44,-252.37,-40.358
86.48,-252.299,-40.576
86.51,-253.177,-41.057
86.54,-255.809,-41.229
86.57,-258.16,-41.251
86.61,-260.161,-41.274
86.64,-260.547,-41.183
86.67,-259.845,-41.927
86.7,-261.951,-41.778
86.74,-263.39,-41.71
86.77,-265.355,-41.881
86.8,-265.53,-42.615
86.83,-267.32,-42.935
86.87,-267.741,-42.832
86.9,-269.11,-43.199
86.93,-271.005,-42.649
86.96,-271.04,-43.061
87.0,-272.971,-43.394
87.03,-273.637,-43.348
87.06,-274.445,-43.989
87.09,-276.971,-43.405
87.13,-276.094,-43.623
87.16,-277.463,-44.127
87.19,-278.41,-43.531
87.23,-278.13,-43.657
87.26,-279.182,-43.68
87.29,-279.533,-43.588
87.32,-278.796,-44.047
87.36,-278.761,-44.596
87.39,-280.727,-44.253
87.42,-281.709,-43.691
87.45,-281.323,-43.932
87.49,-281.815,-44.001
87.52,-282.797,-43.691
87.55,-281.639,-43.875
87.58,-281.078,-44.47
87.62,-282.236,-43.875
87.65,-282.306,-43.669
87.68,-282.622,-43.474
87.71,-280.481,-43.623
87.75,-281.007,-42.993
87.78,-278.726,-42.947
87.81,-278.305,-43.405
87.84,-279.147,-42.935
87.88,-278.445,-42.111
87.91,-273.462,-41.904
87.94,-270.233,-41.412
87.97,-267.987,-40.69
88.01,-267.461,-40.839
88.04,-267.601,-41.206
88.07,-267.987,-41.355
88.1,-266.373,-41.675
88.14,-265.144,-42.534
88.17,-268.022,-42.26
88.2,-268.057,-41.996
88.23,-266.197,-42.66
88.27,-266.864,-42.557
88.3,-267.145,-42.076
88.33,-267.11,-42.122
88.36,-268.373,-41.561
88.4,-267.39,-40.541
88.43,-263.776,-40.117
88.46,-260.863,-39.693
88.49,-258.511,-39.098
88.53,-256.932,-38.892
88.56,-256.757,-38.525
88.59,-254.651,-38.044
88.63,-251.738,-37.906
88.66,-249.702,-37.586
88.69,-247.772,-37.185
88.72,-245.631,-36.852
88.76,-243.771,-36.497
88.79,-241.35,-36.074
88.82,-239.314,-35.902
88.85,-237.103,-35.638
88.89,-235.033,-35.26
88.92,-233.488,-35.031
88.95,-232.05,-34.962
88.98,-230.576,-34.573
89.02,-228.014,-34.401
89.05,-226.434,-34.39
89.08,-225.101,-34.057
89.11,-222.083,-33.966
89.15,-219.24,-34.275
89.18,-219.029,-34.012
89.21,-219.907,-33.095
89.24,-217.906,-32.625
89.28,-213.625,-32.751
89.31,-211.414,-32.385
89.34,-211.098,-31.571
89.37,-209.308,-31.136
89.41,-206.921,-31.468
89.44,-207.027,-30.804
89.47,-204.254,-30.151
89.5,-201.973,-29.922
89.54,-200.359,-29.246
89.57,-197.937,-28.902
89.6,-196.217,-28.501
89.63,-194.954,-27.997
89.67,-192.497,-27.516
89.7,-188.496,-27.425
89.73,-187.233,-26.669
89.76,-184.846,-25.993
89.8,-180.635,-26.107
89.83,-179.688,-25.225
89.86,-176.353,-25.007
89.89,-174.844,-25.088
89.93,-174.529,-23.747
89.96,-170.001,-23.427
89.99,-165.825,-23.117
90.03,-162.737,-22.43
90.06,-159.578,-22.04
90.09,-155.437,-21.937
90.12,-153.893,-21.479
90.16,-152.313,-21.181
90.19,-150.172,-20.311
90.22,-146.487,-19.406
90.25,-142.908,-19.463
90.29,-141.188,-18.695
90.32,-137.573,-18.123
90.35,-136.801,-17.424
90.38,-133.678,-17.16
90.42,-129.326,-17.332
90.45,-126.694,-16.748
90.48,-124.167,-16.381
90.51,-121.851,-16.129
90.55,-118.411,-15.717
90.58,-115.709,-14.675
90.61,-111.884,-13.804
90.64,-107.532,-13.666
90.68,-104.689,-13.174
90.71,-101.776,-12.292
90.74,-99.214,-11.444
90.77,-93.143,-11.204
90.81,-88.931,-10.952
90.84,-87.633,-9.508
90.87,-81.912,-9.29
90.9,-77.876,-9.485
90.94,-74.542,-8.775
90.97,-72.156,-8.053
91.0,-68.716,-7.824
91.03,-65.804,-7.538
91.07,-62.891,-6.633
91.1,-57.451,-6.564
91.13,-54.784,-6.541
91.16,-53.59,-5.693
91.2,-51.45,-4.995
91.23,-48.607,-4.513
91.26,-44.36,-4.021
91.29,-41.237,-3.299
91.33,-39.482,-2.142
91.36,-34.393,-1.604
91.39,-28.638,-1.638
91.43,-25.69,-0.813
91.46,-21.092,-0.332
91.49,-18.706,0.0
91.52,-14.529,0.573
91.56,-10.248,0.985
91.59,-6.458,1.512
91.62,-1.72,1.489
91.65,1.018,1.741
91.69,4.843,1.936
91.72,8.458,1.936
91.75,12.95,2.005
91.78,16.214,2.211
91.82,18.46,2.589
91.85,21.899,2.589
91.88,25.514,2.761
91.91,29.234,3.253
91.95,32.99,3.505
91.98,35.902,3.551
92.01,38.359,3.918
92.04,41.588,4.365
92.08,45.343,4.766
92.11,49.203,5.063
92.14,52.327,5.029
92.17,54.468,5.247
92.21,56.538,5.854
92.24,58.398,6.61
92.27,62.715,7.011
92.3,65.733,7.526
92.34,68.506,8.706
92.37,74.648,8.569
92.4,76.823,9.119
92.43,79.42,9.989
92.47,82.018,10.516
92.5,87.352,10.929
92.53,91.423,11.341
92.56,93.81,11.971
92.6,96.266,12.28
92.63,100.056,12.578
92.66,104.057,12.83
92.69,105.251,13.655
92.73,109.357,14.09
92.76,112.094,14.503
92.79,112.866,15.969
92.83,118.13,16.175
92.86,122.552,16.21
92.89,124.167,17.252
92.92,126.448,17.882
92.96,131.01,18.008
92.99,133.958,18.959
93.02,138.1,19.749
93.05,142.03,19.864
93.09,143.504,20.391
93.12,146.242,20.689
93.15,149.681,21.009
93.18,151.962,21.651
93.22,153.401,22.144
93.25,154.559,22.911
93.28,159.683,23.495
93.31,164.211,23.621
93.35,165.579,24.377
93.38,167.474,24.824
93.41,171.124,24.824
93.44,172.739,25.34
93.48,174.388,26.439
93.51,178.81,26.691
93.54,180.846,27.321
93.57,185.092,27.894
93.61,188.181,27.997
93.64,189.69,28.307
93.67,190.356,28.799
93.7,192.567,29.154
93.74,195.726,29.2
93.77,197.34,29.865
93.8,200.183,30.185
93.83,201.833,30.277
93.87,202.921,30.804
93.9,205.096,31.067
93.93,206.5,31.113
93.96,205.693,32.064
94.0,208.466,32.855
94.03,211.765,32.992
94.06,214.677,33.336
94.1,216.432,33.863
94.13,218.748,34.206
94.16,220.503,34.057
94.19,220.784,34.378
94.23,221.591,34.962
94.26,224.083,35.317
94.29,227.347,35.398
94.32,229.803,35.638
94.36,230.505,36.131
94.39,231.664,36.761
94.42,234.471,36.532
94.45,234.752,36.979
94.49,237.489,37.815
94.52,240.332,37.792
94.55,241.245,38.021
94.58,243.034,38.296
94.62,245.456,38.674
94.65,247.948,38.892
94.68,248.93,38.972
94.71,249.843,38.972
94.75,250.439,39.35
94.78,252.089,39.877
94.81,253.247,40.198
94.84,254.651,40.747
94.88,257.669,40.839
94.91,259.178,41.068
94.94,260.442,40.931
94.97,260.371,40.919
95.01,261.67,41.045
95.04,263.039,41.022
95.07,264.442,41.389
95.1,263.811,42.397
95.14,265.811,43.187
95.17,268.549,42.214
95.2,267.741,42.97
95.23,270.128,43.245
95.27,271.005,42.798
95.3,271.918,43.199
95.33,272.971,43.577
95.36,274.62,43.76
95.4,275.603,43.863
95.43,276.831,44.092
95.46,277.989,43.703
95.5,278.024,43.898
95.53,279.428,43.52
95.56,278.305,43.439
95.59,279.182,43.703
95.63,280.165,43.417
95.66,280.516,43.646
95.69,281.464,43.302
95.72,280.656,43.657
95.76,281.113,43.921
95.79,280.481,43.909
95.82,280.762,43.772
95.85,281.955,43.886
95.89,283.289,43.829
95.92,282.025,44.047
95.95,281.99,44.207
95.98,282.411,44.127
96.02,282.797,44.069
96.05,282.657,43.543
96.08,281.674,43.371
96.11,281.534,43.497
96.15,281.218,43.657
96.18,282.552,43.119
96.21,281.569,42.683
96.24,279.709,42.683
96.28,278.937,42.042
96.31,276.971,41.549
96.34,276.726,41.297
96.37,276.585,40.976
96.41,274.304,41.08
96.44,273.181,40.954
96.47,271.637,40.45
96.5,269.04,40.369
96.54,267.952,40.037
96.57,265.881,39.659
96.6,264.548,39.545
96.63,262.582,39.648
96.67,260.371,40.083
96.7,260.898,39.705
96.73,259.213,39.613
96.76,258.511,39.659
96.8,256.686,39.35
96.83,255.142,39.35
96.86,255.879,38.949
96.9,255.072,38.662
96.93,254.054,38.445
96.96,251.598,38.193
96.99,249.667,37.964
97.03,248.158,37.265
97.06,244.473,37.173
97.09,244.438,36.669
97.12,242.824,35.936
97.16,239.455,36.074
97.19,237.173,35.993
97.22,235.138,36.131
97.25,236.542,35.421
97.29,233.734,34.939
97.32,231.418,34.859
97.35,228.786,34.458
97.38,225.346,34.687
97.42,225.171,34.39
97.45,224.995,33.874
97.48,224.329,33.565
97.51,221.802,33.45
97.55,219.45,32.786
97.58,217.099,32.018
97.61,216.362,31.938
97.64,214.748,31.824
97.68,213.168,31.274
97.71,211.378,30.655
97.74,209.413,30.46
97.77,205.974,30.311
97.81,203.166,29.865
97.84,201.096,29.303
97.87,197.34,29.395
97.9,195.024,29.372
97.94,195.445,28.605
97.97,193.901,28.33
98.0,191.234,28.158
98.03,188.953,27.516
98.07,187.163,26.657
98.1,183.092,26.474
98.13,181.056,25.97
98.16,179.547,25.237
98.2,177.582,24.881
98.23,174.564,24.652
98.26,172.879,23.908
98.3,168.071,23.816
98.33,166.808,23.209
98.36,164.421,22.464
98.39,161.719,22.098
98.43,157.191,21.617
98.46,156.56,21.009
98.49,154.033,20.46
98.52,150.102,20.402
98.56,147.681,18.867
98.59,143.294,18.867
98.62,141.153,18.844
98.65,138.1,18.272
98.69,135.924,18.134
98.72,134.309,17.779
98.75,131.783,17.309
98.78,129.852,16.622
98.82,127.747,15.648
98.85,124.553,15.167
98.88,121.114,14.342
98.91,114.796,13.884
98.95,110.971,13.449
98.98,108.199,13.002
99.01,107.602,12.429
99.04,104.794,11.524
99.08,98.723,11.341
99.11,94.897,10.757
99.14,92.16,9.691
99.17,86.931,9.474
99.21,82.79,9.508
99.24,81.877,8.454
99.27,79.526,7.526
99.3,75.455,7.412
99.34,72.472,6.679
99.37,67.734,5.888
99.4,64.049,5.59
99.43,60.96,5.086
99.47,57.381,4.639
99.5,53.169,4.353
99.53,48.993,4.41
99.56,47.308,3.792
99.6,44.395,3.127
99.63,41.307,2.761
99.66,37.166,2.348
99.7,32.954,1.982
99.73,29.129,1.661
99.76,25.62,1.455
99.79,22.777,1.123
99.83,20.074,0.722
99.86,16.776,0.355
99.89,13.02,0.034
99.92,8.563,-0.355
99.96,2.983,-0.424
99.99,-2.176,-0.332
100.02,-6.317,-0.08
100.05,-9.406,0.023
100.09,-12.459,0.229
100.12,-12.494,-0.504
100.15,-16.319,-1.008
100.18,-19.232,-1.386
100.22,-22.566,-2.142
100.25,-25.233,-3.07
100.28,-30.042,-3.563
100.31,-34.92,-3.838
100.35,-40.991,-3.46
100.38,-40.535,-4.135
100.41,-44.115,-4.834
100.44,-48.221,-4.456
100.48,-50.923,-5.109
100.51,-53.801,-5.67
100.54,-56.749,-6.22
100.57,-60.645,-6.644
100.61,-64.505,-7.057
100.64,-65.347,-7.996
100.67,-68.015,-9.004
100.7,-72.507,-9.348
100.74,-76.859,-10.104
100.77,-81.631,-10.321
100.8,-83.456,-11.009
100.83,-86.053,-11.799
100.87,-89.317,-12.338
100.9,-93.634,-12.819
100.93,-97.424,-13.197
100.96,-100.021,-13.598
101.0,-102.724,-14.033
101.03,-105.777,-14.457
101.06,-108.936,-15.167
101.1,-113.814,-15.339
101.13,-114.27,-16.301
101.16,-117.253,-17.195
101.19,-120.587,-17.321
101.23,-121.745,-18.73
101.26,-126.869,-19.062
101.29,-131.432,-19.199
101.32,-134.871,-20.047
101.36,-138.486,-20.46
101.39,-140.591,-21.009
101.42,-143.961,-21.239
101.45,-146.558,-20.872
101.49,-148.277,-21.468
101.52,-151.225,-22.235
101.55,-153.226,-22.59
101.58,-155.016,-23.209
101.62,-158.876,-23.667
101.65,-162.21,-24.206
101.68,-164.386,-24.985
101.71,-167.931,-25.03
101.75,-168.948,-25.454
101.78,-170.703,-26.256
101.81,-173.265,-26.795
101.84,-179.793,-26.806
101.88,-182.776,-27.012
101.91,-182.635,-28.307
101.94,-186.145,-28.318
101.97,-188.461,-28.146
102.01,-189.795,-28.914
102.04,-193.304,-29.086
102.07,-194.743,-29.028
102.1,-195.866,-29.956
102.14,-198.253,-30.781
102.17,-202.219,-30.884
102.2,-203.482,-31.01
102.23,-202.113,-32.259
102.27,-204.851,-32.282
102.3,-206.57,-32.202
102.33,-208.536,-33.072
102.36,-211.063,-33.542
102.4,-212.291,-33.828
102.43,-215.204,-34.023
102.46,-216.467,-34.378
102.5,-217.731,-34.825
102.53,-219.836,-34.836
102.56,-221.24,-35.226
102.59,-223.1,-35.764
102.63,-224.75,-36.234
102.66,-227.452,-36.463
102.69,-229.102,-36.91
102.72,-231.277,-37.253
102.76,-233.173,-37.471
102.79,-236.156,-37.368
102.82,-236.682,-37.7
102.85,-237.91,-38.193
102.89,-240.121,-38.296
102.92,-242.543,-38.445
102.95,-244.473,-38.502
102.98,-244.368,-39.144
103.02,-245.456,-39.671
103.05,-247.597,-39.774
103.08,-250.615,-39.774
103.11,-251.949,-40.232
103.15,-252.966,-40.759
103.18,-254.475,-40.816
103.21,-256.371,-41.022
103.24,-258.16,-41.263
103.28,-258.16,-41.664
103.31,-259.108,-41.778
103.34,-260.091,-41.881
103.37,-262.161,-41.927
103.41,-263.004,-41.87
103.44,-263.109,-43.05
103.47,-266.127,-42.901
103.5,-266.759,-42.832
103.54,-267.741,-43.462
103.57,-269.321,-43.428
103.6,-270.058,-43.417
103.63,-271.04,-43.772
103.67,-272.83,-43.691
103.7,-273.778,-43.829
103.73,-274.62,-44.253
103.76,-275.638,-44.493
103.8,-277.322,-43.966
103.83,-277.884,-43.772
103.86,-278.796,-43.588
103.9,-277.849,-43.565
103.93,-278.41,-43.829
103.96,-280.305,-43.313
103.99,-279.814,-43.279
104.03,-279.428,-43.726
104.06,-280.341,-43.6
104.09,-280.516,-43.565
104.12,-280.446,-43.565
104.16,-279.358,-43.783
104.19,-279.288,-44.115
104.22,-280.832,-43.84
104.25,-280.095,-44.299
104.29,-280.972,-44.425
104.32,-280.376,-44.069
104.35,-279.218,-44.459
104.38,-281.113,-43.978
104.42,-281.113,-43.348
104.45,-280.165,-43.565
104.48,-280.481,-43.428
104.51,-279.218,-43.291
104.55,-279.849,-42.89
104.58,-278.867,-42.122
104.61,-275.673,-41.881
104.64,-272.935,-41.79
104.68,-272.128,-41.744
104.71,-272.269,-41.881
104.74,-272.83,-42.191
104.77,-273.286,-41.985
104.81,-271.075,-42.065
104.84,-270.023,-42.03
104.87,-269.356,-41.515
104.9,-267.952,-41.343
104.94,-267.531,-41.114
104.97,-266.338,-40.782
105.0,-264.127,-40.713
105.03,-262.617,-40.644
105.07,-262.653,-39.991
105.1,-259.95,-39.625
105.13,-257.809,-39.396
105.17,-255.739,-38.857
105.2,-254.265,-38.468
105.23,-252.264,-38.422
105.26,-250.475,-38.502
105.3,-250.194,-37.998
105.33,-248.579,-37.643
105.36,-246.123,-37.448
105.39,-243.21,-36.99
105.43,-241.525,-36.864
105.46,-241.385,-36.532
105.49,-240.227,-36.062
105.52,-236.787,-36.005
105.56,-234.261,-36.142
105.59,-234.12,-35.707
105.62,-232.506,-35.466
105.65,-231.137,-35.214
105.69,-229.417,-34.905
105.72,-228.645,-34.493
105.75,-226.505,-34.218
105.78,-223.978,-33.943
105.82,-222.153,-33.702
105.85,-220.784,-33.301
105.88,-219.099,-33.141
105.91,-218.152,-32.442
105.95,-213.73,-32.282
105.98,-214.397,-31.938
106.01,-213.028,-31.331
106.04,-210.641,-31.262
106.08,-209.027,-30.552
106.11,-205.904,-30.288
106.14,-203.903,-29.796
106.17,-201.482,-29.131
106.21,-199.902,-28.559
106.24,-197.165,-28.135
106.27,-194.147,-28.066
106.3,-192.708,-27.596
106.34,-190.883,-27.39
106.37,-188.391,-27.069
106.4,-184.215,-26.898
106.43,-182.144,-26.508
106.47,-180.249,-26.153
106.5,-179.828,-25.523
106.53,-177.792,-24.859
106.57,-174.879,-24.71
106.6,-173.09,-23.862
106.63,-169.826,-23.346
106.66,-167.685,-22.648
106.7,-162.842,-22.361
106.73,-158.981,-22.166
106.76,-155.331,-21.72
106.79,-155.156,-21.399
106.83,-153.682,-20.906
106.86,-149.576,-20.62
106.89,-146.066,-19.852
106.92,-144.347,-19.326
106.96,-141.188,-18.764
106.99,-138.275,-18.317
107.02,-137.152,-17.63
107.05,-133.923,-17.676
107.09,-130.344,-17.332
107.12,-126.939,-16.485
107.15,-123.816,-16.118
107.18,-122.833,-15.522
107.22,-120.341,-14.56
107.25,-115.674,-13.724
107.28,-110.023,-13.208
107.31,-106.444,-12.899
107.35,-104.654,-12.177
107.38,-101.53,-11.616
107.41,-97.635,-11.169
107.44,-93.002,-10.619
107.48,-87.668,-10.276
107.51,-85.176,-9.703
107.54,-81.631,-9.164
107.57,-79.35,-8.821
107.61,-75.771,-8.076
107.64,-69.699,-8.317
107.67,-68.822,-7.664
107.7,-66.751,-6.667
107.74,-63.768,-6.06
107.77,-58.504,-5.819
107.8,-54.187,-5.315
107.83,-49.835,-5.063
107.87,-49.309,-4.399
107.9,-47.133,-3.551
107.93,-43.378,-3.276
107.97,-40.781,-2.589
108.0,-38.429,-1.638
108.03,-34.393,-1.26
108.06,-30.743,-1.042
108.1,-27.55,-0.286
108.13,-20.952,-0.344
108.16,-17.513,-0.47
108.19,-16.495,0.596
108.23,-12.424,1.02
108.26,-8.528,1.203
108.29,-4.597,2.051
108.32,0.877,2.406
108.36,6.212,2.085
108.39,10.178,1.833
108.42,13.547,1.856
108.45,16.986,1.707
108.49,17.758,2.119
108.52,20.496,2.669
108.55,24.426,2.692
108.58,27.831,3.047
108.62,31.726,3.517
108.65,35.551,3.712
108.68,38.57,4.055
108.71,42.114,4.365
108.75,45.694,4.605
108.78,48.431,5.063
108.81,50.362,5.476
108.84,54.117,5.567
108.88,56.503,6.232
108.91,61.873,6.553
108.94,64.505,6.679
108.97,68.12,7.194
109.01,70.331,7.423
109.04,72.261,8.397
109.07,76.823,8.569
109.1,79.315,9.451
109.14,82.825,10.15
109.17,85.457,10.837
109.2,90.405,11.238
109.23,93.915,11.811
109.27,97.53,12.2
109.3,99.565,12.624
109.33,101.25,13.426
109.37,103.812,14.205
109.4,109.041,14.629
109.43,113.287,15.11
109.46,116.446,15.671
109.5,118.481,16.106
109.53,120.131,16.714
109.56,123.816,17.218
109.59,128.343,17.527
109.63,130.554,18.329
109.66,133.572,18.799
109.69,136.275,19.669
109.72,140.24,20.505
109.76,142.697,20.609
109.79,146.031,20.941
109.82,149.365,21.559
109.85,151.436,22.075
109.89,155.331,22.052
109.92,158.174,22.292
109.95,158.946,23.381
109.98,161.613,24.011
110.02,166.246,23.931
110.05,168.738,24.423
110.08,171.159,24.985
110.11,172.528,25.282
110.15,175.441,25.901
110.18,179.547,26.268
110.21,181.337,27.184
110.24,185.127,27.574
110.28,187.654,27.722
110.31,188.11,28.444
110.34,189.198,29.189
110.37,192.567,29.189
110.41,194.077,29.727
110.44,197.551,30.403
110.47,199.902,30.437
110.5,201.06,30.93
110.54,204.359,31.033
110.57,205.167,31.148
110.6,205.798,31.629
110.63,209.203,31.571
110.67,211.589,31.629
110.7,212.291,32.442
110.73,213.66,32.923
110.77,214.572,33.359
110.8,217.696,33.92
110.83,220.679,33.977
110.86,220.784,34.298
110.9,221.205,35.065
110.93,224.048,35.375
110.96,226.645,35.707
110.99,228.786,36.016
111.03,229.874,36.681
111.06,232.365,37.379
111.09,234.857,37.437
111.12,236.507,37.505
111.16,237.91,37.861
111.19,240.472,38.193
111.22,241.946,38.227
111.25,241.139,38.914
111.29,244.754,39.212
111.32,247.386,39.201
111.35,248.264,39.499
111.38,249.071,39.556
111.42,249.632,39.854
111.45,251.633,40.243
111.48,253.773,40.598
111.51,256.792,40.598
111.55,256.721,40.999
111.58,258.617,41.481
111.61,260.371,40.759
111.64,259.354,41.423
111.68,262.056,41.263
111.71,261.635,41.458
111.74,263.004,42.477
111.77,265.811,42.145
111.81,267.039,42.248
111.84,268.022,42.981
111.87,269.531,42.947
111.9,269.25,43.187
111.94,270.97,43.359
111.97,271.848,43.142
112.0,272.865,43.634
112.03,274.374,43.852
112.07,276.059,43.898
112.1,277.463,43.691
112.13,277.708,43.817
112.17,276.41,44.448
112.2,279.077,43.898
112.23,279.007,43.153
112.26,279.849,43.737
112.3,280.937,43.256
112.33,278.551,44.184
112.36,280.516,44.15
112.39,281.674,43.669
112.43,281.218,43.932
112.46,281.007,44.195
112.49,280.692,43.772
112.52,281.007,44.264
112.56,283.85,43.921
112.59,282.095,43.932
112.62,281.429,44.344
112.65,283.008,44.081
112.69,284.026,43.554
112.72,282.201,43.543
112.75,281.042,43.565
112.78,280.551,43.691
112.82,282.411,43.52
112.85,281.674,43.348
112.88,279.955,43.417
112.91,278.691,42.993
112.95,277.744,42.489
112.98,276.059,42.305
113.01,275.462,42.156
113.04,274.199,42.019
113.08,272.865,42.317
113.11,274.094,41.767
113.14,271.707,41.435
113.17,269.601,41.423
113.21,268.478,40.747
113.24,266.302,40.289
113.27,264.162,40.369
113.3,263.425,40.243
113.34,262.442,40.037
113.37,262.617,39.705
113.4,260.617,39.499
113.43,258.195,39.545
113.47,257.143,39.075
113.5,255.669,38.846
113.53,253.387,39.167
113.57,253.317,39.075
113.6,252.124,38.571
113.63,249.597,38.903
113.66,250.65,38.33
113.7,248.264,37.494
113.73,244.684,37.505
113.76,243.526,37.036
113.79,241.525,36.566
113.83,239.279,36.646
113.86,238.823,36.326
113.89,236.612,36.28
113.92,234.401,36.337
113.96,232.436,35.97
113.99,231.664,35.375
114.02,230.646,35.031
114.05,229.172,34.825
114.09,226.505,34.367
114.12,223.802,34.218
114.15,223.065,33.874
114.18,220.854,33.759
114.22,218.819,33.404
114.25,216.362,32.786
114.28,215.309,32.774
114.31,215.414,32.339
114.35,213.063,31.892
114.38,210.712,31.503
114.41,208.957,31.159
114.44,205.904,30.919
114.48,203.412,30.495
114.51,200.955,29.842
114.54,198.604,29.635
114.57,197.726,28.879
114.61,193.55,28.845
114.64,191.76,28.662
114.67,190.251,28.146
114.7,188.286,27.974
114.74,185.794,27.31
114.77,182.741,26.863
114.8,181.126,26.371
114.83,178.74,25.901
114.87,176.985,25.523
114.9,175.371,24.881
114.93,170.457,25.042
114.97,169.124,24.389
115.0,167.369,23.541
115.03,165.228,23.232
115.06,160.947,22.522
115.1,155.858,22.384
115.13,154.138,21.972
115.16,152.068,21.846
115.19,151.997,21.067
115.23,149.611,19.933
115.26,144.241,19.669
115.29,140.205,19.062
115.32,136.661,18.81
115.36,134.309,18.844
115.39,134.029,18.26
115.42,132.59,17.561
115.45,128.835,17.378
115.49,128.203,16.129
115.52,123.465,15.706
115.55,120.938,15.247
115.58,116.411,14.171
115.62,111.252,14.01
115.65,110.69,13.117
115.68,106.619,12.693
115.71,102.513,12.509
115.75,98.828,11.834
115.78,95.073,11.089
115.81,90.826,10.768
115.84,87.598,10.299
115.88,84.193,9.542
115.91,81.491,8.97
115.94,79.28,8.317
115.97,75.069,7.836
116.01,71.173,7.4
116.04,66.47,6.919
116.07,62.013,6.908
116.1,61.732,6.014
116.14,57.802,5.396
116.17,54.187,5.338
116.2,51.45,4.594
116.24,47.273,4.044
116.27,43.729,3.815
116.3,41.974,3.013
116.33,37.131,2.589
116.37,33.516,2.451
116.4,30.287,1.81
116.43,26.848,1.329
116.46,23.198,0.997
116.5,19.267,0.733
116.53,15.547,0.367
116.56,12.178,-0.092
116.59,7.159,-0.16
116.63,2.281,0.034
116.66,-1.79,-0.034
