Trigger_Date,2023/06/22
Trigger_Time,T 12:12:12.375 PDT
Samples_Per_Cycle,512
Microseconds_Per_Sample,32.564
Time (ms),Voltage (V),Current (A)
-16.67,0.386,0.573
-16.64,0.526,1.661
-16.61,2.316,2.692
-16.58,6.458,3.471
-16.54,10.95,4.353
-16.51,14.775,5.281
-16.48,18.46,5.877
-16.44,22.531,6.049
-16.41,26.392,6.152
-16.38,29.55,6.369
-16.35,32.498,6.736
-16.31,35.832,7.16
-16.28,39.622,7.664
-16.25,43.553,8.111
-16.22,47.133,8.443
-16.18,50.537,8.809
-16.15,54.257,9.302
-16.12,58.223,9.794
-16.09,61.768,10.264
-16.05,65.031,10.78
-16.02,68.26,11.318
-15.99,71.805,11.834
-15.96,75.349,12.223
-15.92,78.648,12.555
-15.89,81.702,13.002
-15.86,84.72,13.506
-15.83,88.089,13.987
-15.79,91.634,14.4
-15.76,94.897,14.778
-15.73,97.67,15.179
-15.7,100.478,15.614
-15.66,103.531,16.003
-15.63,106.549,16.427
-15.6,110.199,16.897
-15.57,114.095,17.218
-15.53,117.499,17.63
-15.5,120.798,18.008
-15.47,123.921,18.203
-15.44,126.729,18.535
-15.4,129.642,18.993
-15.37,132.765,19.394
-15.34,135.994,19.887
-15.31,139.047,20.402
-15.27,141.995,20.987
-15.24,145.364,21.422
-15.21,148.628,21.743
-15.17,151.506,22.155
-15.14,154.314,22.556
-15.11,157.332,22.934
-15.08,160.666,23.22
-15.04,163.474,23.495
-15.01,165.79,23.85
-14.98,168.141,24.206
-14.95,170.773,24.549
-14.91,173.511,24.881
-14.88,175.932,25.191
-14.85,178.459,25.672
-14.82,181.583,26.164
-14.78,184.811,26.439
-14.75,187.338,26.749
-14.72,189.584,27.173
-14.69,192.111,27.39
-14.65,194.463,27.447
-14.62,196.252,27.745
-14.59,197.937,28.169
-14.56,199.622,28.444
-14.52,201.236,28.857
-14.49,202.78,29.063
-14.46,203.552,28.891
-14.43,203.482,28.524
-14.39,203.517,28.421
-14.36,204.675,28.753
-14.33,207.202,29.212
-14.3,209.869,29.853
-14.26,212.537,30.712
-14.23,215.836,31.583
-14.2,219.45,32.27
-14.17,222.504,32.717
-14.13,225.206,33.29
-14.1,228.119,33.817
-14.07,231.102,34.229
-14.04,233.804,34.481
-14.0,235.98,34.63
-13.97,237.981,34.687
-13.94,239.876,34.55
-13.9,241.034,34.286
-13.87,241.666,34.069
-13.84,242.403,34.115
-13.81,243.877,34.332
-13.77,245.667,34.527
-13.74,246.965,34.802
-13.71,247.913,35.191
-13.68,248.895,35.512
-13.64,250.229,35.753
-13.61,251.878,36.016
-13.58,252.826,36.463
-13.55,253.282,37.105
-13.51,254.44,37.643
-13.48,256.476,38.101
-13.45,258.827,38.605
-13.42,260.828,38.914
-13.38,261.775,39.075
-13.35,262.442,39.373
-13.32,264.232,39.602
-13.29,266.478,39.682
-13.25,267.566,39.785
-13.22,268.338,40.117
-13.19,269.777,40.301
-13.16,271.461,40.243
-13.12,272.76,40.335
-13.09,273.813,40.667
-13.06,274.831,40.885
-13.03,275.778,41.091
-12.99,277.287,41.286
-12.96,278.937,41.263
-12.93,279.814,41.343
-12.9,280.235,41.629
-12.86,281.288,41.515
-12.83,281.885,41.217
-12.8,281.85,41.125
-12.77,282.025,41.137
-12.73,282.376,41.011
-12.7,282.341,40.976
-12.67,283.078,41.423
-12.63,284.096,41.366
-12.6,283.745,41.492
-12.57,282.271,42.26
-12.54,282.236,42.912
-12.5,283.604,43.142
-12.47,284.692,43.359
-12.44,285.149,43.726
-12.41,285.71,43.932
-12.37,286.377,43.886
-12.34,286.693,43.817
-12.31,286.237,43.817
-12.28,285.535,43.497
-12.24,285.114,43.187
-12.21,285.464,43.153
-12.18,286.061,42.89
-12.15,285.008,42.534
-12.11,282.762,42.351
-12.08,281.534,42.019
-12.05,281.148,41.458
-12.02,280.06,41.08
-11.98,278.516,40.999
-11.95,277.428,40.999
-11.92,276.691,40.873
-11.89,275.883,40.644
-11.85,274.234,40.392
-11.82,272.269,40.129
-11.79,270.689,39.774
-11.76,269.461,39.396
-11.72,268.513,39.132
-11.69,267.706,39.006
-11.66,266.057,38.869
-11.63,264.162,38.72
-11.59,262.231,38.594
-11.56,260.512,38.433
-11.53,258.897,38.216
-11.5,257.002,38.078
-11.46,255.669,37.987
-11.43,254.861,37.689
-11.4,253.317,37.551
-11.36,251.843,37.528
-11.33,250.615,37.265
-11.3,248.965,36.852
-11.27,247.281,36.578
-11.23,245.491,36.245
-11.2,243.526,35.925
-11.17,241.56,35.535
-11.14,240.192,35.386
-11.1,239.42,35.409
-11.07,238.016,35.077
-11.04,235.419,34.561
-11.01,232.787,34.241
-10.97,231.418,33.977
-10.94,230.4,33.519
-10.91,228.329,33.084
-10.88,225.522,32.797
-10.84,223.241,32.614
-10.81,221.907,32.373
-10.78,220.363,32.03
-10.75,218.327,31.824
-10.71,216.502,31.583
-10.68,214.713,31.228
-10.65,213.028,30.907
-10.62,211.308,30.552
-10.58,209.413,30.231
-10.55,207.272,29.888
-10.52,204.64,29.452
-10.49,201.868,29.109
-10.45,199.692,28.845
-10.42,198.112,28.513
-10.39,196.323,28.226
-10.36,194.182,28.02
-10.32,192.006,27.745
-10.29,190.041,27.379
-10.26,188.181,26.737
-10.23,185.654,26.153
-10.19,182.46,25.741
-10.16,179.617,25.374
-10.13,177.477,24.973
-10.09,175.687,24.698
-10.06,173.546,24.183
-10.03,170.457,23.621
-10.0,167.299,23.129
-9.96,164.772,22.808
-9.93,162.21,21.937
-9.9,159.087,21.594
-9.87,156.841,21.445
-9.83,154.875,20.895
-9.8,152.489,20.62
-9.77,149.611,20.162
-9.74,146.312,19.669
-9.7,143.083,19.222
-9.67,140.03,18.615
-9.64,136.801,18.008
-9.61,133.818,17.756
-9.57,131.853,17.424
-9.54,129.712,16.679
-9.51,126.378,16.003
-9.48,122.658,15.408
-9.44,119.183,14.686
-9.41,115.639,13.93
-9.38,111.884,13.46
-9.35,108.549,13.197
-9.31,105.602,12.75
-9.28,102.092,12.177
-9.25,98.337,11.73
-9.22,94.687,11.169
-9.18,91.353,10.493
-9.15,88.089,9.955
-9.12,84.579,9.508
-9.09,80.754,9.016
-9.05,76.929,8.557
-9.02,73.524,8.202
-8.99,70.541,7.778
-8.96,67.313,7.297
-8.92,63.908,6.805
-8.89,60.399,6.346
-8.86,57.24,5.865
-8.82,54.187,5.361
-8.79,50.888,4.869
-8.76,47.379,4.491
-8.73,43.904,4.078
-8.69,40.43,3.654
-8.66,37.025,3.185
-8.63,33.235,2.738
-8.6,29.445,2.36
-8.56,25.83,2.005
-8.53,22.18,1.695
-8.5,18.39,1.478
-8.47,14.565,1.146
-8.43,10.493,0.882
-8.4,6.317,0.687
-8.37,1.965,0.653
-8.34,-0.035,0.275
-8.3,-0.386,-0.779
-8.27,-0.456,-1.925
-8.24,-2.597,-3.093
-8.21,-7.826,-4.296
-8.17,-13.547,-5.304
-8.14,-17.899,-6.026
-8.11,-21.619,-6.69
-8.08,-26.321,-7.137
-8.04,-31.094,-7.32
-8.01,-35.236,-7.492
-7.98,-38.57,-7.629
-7.95,-41.412,-7.836
-7.91,-44.08,-8.156
-7.88,-47.203,-8.534
-7.85,-50.537,-8.89
-7.82,-54.117,-9.416
-7.78,-57.802,-9.932
-7.75,-61.311,-10.344
-7.72,-64.4,-10.757
-7.69,-67.488,-11.261
-7.65,-70.647,-11.719
-7.62,-74.051,-12.086
-7.59,-77.56,-12.544
-7.55,-81.351,-13.025
-7.52,-85.492,-13.46
-7.49,-89.352,-13.861
-7.46,-92.441,-14.067
-7.42,-94.336,-13.792
-7.39,-95.564,-13.792
-7.36,-97.916,-14.354
-7.33,-101.706,-14.972
-7.29,-105.777,-15.568
-7.26,-109.357,-16.095
-7.23,-112.55,-16.679
-7.2,-116.025,-17.355
-7.16,-120.061,-17.871
-7.13,-123.781,-18.283
-7.1,-127.08,-18.764
-7.07,-130.168,-19.291
-7.03,-133.257,-19.83
-7.0,-136.661,-20.379
-6.97,-140.03,-20.666
-6.94,-143.224,-20.941
-6.9,-146.066,-21.113
-6.87,-148.137,-21.342
-6.84,-150.523,-21.846
-6.81,-153.436,-22.018
-6.77,-156.244,-22.338
-6.74,-159.227,-23.003
-6.71,-162.421,-23.507
-6.68,-165.404,-23.828
-6.64,-168.282,-24.206
-6.61,-170.773,-24.618
-6.58,-173.019,-25.007
-6.55,-175.511,-25.351
-6.51,-178.249,-25.786
-6.48,-181.793,-26.336
-6.45,-185.197,-26.68
-6.42,-187.584,-27.024
-6.38,-189.514,-27.379
-6.35,-191.866,-27.619
-6.32,-194.568,-27.78
-6.28,-196.884,-27.952
-6.25,-198.814,-28.226
-6.22,-200.85,-28.536
-6.19,-202.991,-28.765
-6.15,-205.307,-28.902
-6.12,-207.307,-29.017
-6.09,-208.746,-29.2
-6.06,-210.01,-29.383
-6.02,-211.624,-29.613
-5.99,-213.379,-29.899
-5.96,-215.344,-30.357
-5.93,-217.555,-30.758
-5.89,-219.766,-31.125
-5.86,-221.907,-31.388
-5.83,-223.907,-31.709
-5.8,-225.417,-31.984
-5.76,-226.364,-31.984
-5.73,-228.049,-32.259
-5.7,-230.576,-32.442
-5.67,-232.33,-32.591
-5.63,-233.243,-32.889
-5.6,-233.664,-33.404
-5.57,-234.471,-33.908
-5.54,-236.366,-34.39
-5.5,-239.069,-35.02
-5.47,-241.069,-35.375
-5.44,-242.192,-35.833
-5.41,-244.263,-36.257
-5.37,-247.0,-36.509
-5.34,-249.106,-36.692
-5.31,-250.264,-36.887
-5.28,-251.562,-37.093
-5.24,-253.773,-37.219
-5.21,-256.09,-37.391
-5.18,-257.634,-37.677
-5.15,-258.652,-37.964
-5.11,-260.02,-38.158
-5.08,-261.53,-38.204
-5.05,-262.477,-38.262
-5.01,-263.249,-38.41
-4.98,-264.478,-38.548
-4.95,-265.916,-38.8
-4.92,-267.496,-38.983
-4.88,-268.724,-39.029
-4.85,-269.672,-39.35
-4.82,-271.286,-39.522
-4.79,-272.865,-39.487
-4.75,-273.953,-39.659
-4.72,-275.041,-39.923
-4.69,-276.129,-40.14
-4.66,-277.182,-40.472
-4.62,-278.656,-40.633
-4.59,-279.533,-40.713
-4.56,-278.867,-41.309
-4.53,-278.551,-41.755
-4.49,-279.463,-41.698
-4.46,-280.376,-41.458
-4.43,-280.551,-41.687
-4.4,-281.288,-42.191
-4.36,-282.587,-42.214
-4.33,-283.289,-42.237
-4.3,-283.604,-42.546
-4.27,-284.341,-42.615
-4.23,-284.727,-42.5
-4.2,-284.727,-42.603
-4.17,-285.535,-42.672
-4.14,-286.131,-42.42
-4.1,-286.342,-42.534
-4.07,-286.938,-42.615
-4.04,-287.009,-42.294
-4.01,-286.272,-42.122
-3.97,-285.605,-41.973
-3.94,-285.008,-41.641
-3.91,-284.236,-41.435
-3.88,-284.096,-41.515
-3.84,-284.763,-41.377
-3.81,-284.201,-41.148
-3.78,-282.622,-41.057
-3.74,-281.499,-40.782
-3.71,-280.867,-40.358
-3.68,-280.13,-40.037
-3.65,-278.972,-40.003
-3.61,-277.919,-40.003
-3.58,-276.129,-40.083
-3.55,-274.094,-40.324
-3.52,-273.076,-40.312
-3.48,-271.953,-40.083
-3.45,-270.198,-40.014
-3.42,-268.478,-40.003
-3.39,-267.39,-39.98
-3.35,-266.653,-39.991
-3.32,-266.057,-39.934
-3.29,-264.864,-39.831
-3.26,-263.565,-39.625
-3.22,-262.126,-39.167
-3.19,-260.231,-38.72
-3.16,-258.652,-38.445
-3.13,-257.458,-38.136
-3.09,-256.3,-37.792
-3.06,-254.791,-37.505
-3.03,-253.317,-37.265
-3.0,-251.808,-36.887
-2.96,-249.562,-36.348
-2.93,-247.035,-36.085
-2.9,-245.737,-35.902
-2.87,-244.894,-35.547
-2.83,-243.28,-35.26
-2.8,-241.104,-35.065
-2.77,-239.349,-34.894
-2.74,-238.191,-34.401
-2.7,-236.401,-33.817
-2.67,-233.664,-33.542
-2.64,-231.383,-33.462
-2.61,-230.154,-33.255
-2.57,-228.4,-32.751
-2.54,-225.417,-32.625
-2.51,-223.311,-32.774
-2.47,-222.153,-32.476
-2.44,-220.187,-32.053
-2.41,-218.047,-31.927
-2.38,-216.222,-31.72
-2.34,-214.502,-31.274
-2.31,-212.396,-30.953
-2.28,-210.466,-30.77
-2.25,-208.957,-30.449
-2.21,-206.921,-30.014
-2.18,-204.289,-29.567
-2.15,-202.008,-29.131
-2.12,-200.078,-28.799
-2.08,-198.253,-28.478
-2.05,-196.182,-28.272
-2.02,-194.182,-28.112
-1.99,-192.427,-27.803
-1.95,-190.602,-27.299
-1.92,-187.935,-26.737
-1.89,-185.092,-26.245
-1.86,-182.53,-25.718
-1.82,-180.214,-25.214
-1.79,-177.863,-24.893
-1.76,-175.616,-24.561
-1.73,-173.16,-24.102
-1.69,-170.598,-23.598
-1.66,-167.86,-23.117
-1.63,-165.088,-22.682
-1.6,-162.175,-22.132
-1.56,-159.087,-21.72
-1.53,-156.49,-21.502
-1.5,-154.419,-21.044
-1.47,-151.892,-20.379
-1.43,-148.593,-19.841
-1.4,-145.084,-19.257
-1.37,-141.75,-18.592
-1.34,-139.363,-18.489
-1.3,-137.714,-18.157
-1.27,-135.608,-17.894
-1.24,-132.695,-17.275
-1.2,-129.01,-16.542
-1.17,-126.027,-16.21
-1.14,-123.465,-15.602
-1.11,-119.991,-14.858
-1.07,-115.604,-14.319
-1.04,-111.848,-13.93
-1.01,-108.865,-13.483
-0.98,-105.882,-12.968
-0.94,-102.548,-12.383
-0.91,-98.828,-11.765
-0.88,-94.968,-11.055
-0.85,-91.142,-10.402
-0.81,-87.317,-9.863
-0.78,-83.702,-9.382
-0.75,-80.228,-8.809
-0.72,-76.683,-8.259
-0.68,-73.138,-7.813
-0.65,-69.594,-7.377
-0.62,-66.154,-6.988
-0.59,-63.101,-6.53
-0.55,-60.083,-6.003
-0.52,-56.679,-5.487
-0.49,-52.959,-5.098
-0.46,-49.274,-4.697
-0.42,-45.589,-4.342
-0.39,-42.22,-3.998
-0.36,-38.991,-3.608
-0.33,-35.797,-3.185
-0.29,-32.288,-2.738
-0.26,-28.603,-2.325
-0.23,-24.883,-1.925
-0.2,-21.198,-1.558
-0.16,-17.407,-1.294
-0.13,-13.301,-1.134
-0.1,-9.265,-1.008
-0.07,-5.721,-0.871
-0.03,-1.685,-0.733
0.0,0.14,-0.263
0.03,0.491,0.733
0.07,0.667,1.947
0.1,3.018,3.139
0.13,8.037,4.055
0.16,13.02,5.018
0.2,17.302,5.888
0.23,21.408,6.369
0.26,25.76,6.701
0.29,30.287,7.137
0.33,34.428,7.354
0.36,37.552,7.584
0.39,40.465,7.985
0.42,44.22,8.317
0.46,48.08,8.511
0.49,51.414,8.809
0.52,54.398,9.233
0.55,57.591,9.668
0.59,60.995,10.024
0.62,64.014,10.299
0.65,66.856,10.631
0.68,69.945,11.146
0.72,73.454,11.604
0.75,76.964,11.983
0.78,80.263,12.681
0.81,83.842,13.277
0.85,87.247,13.689
0.88,90.581,14.319
0.91,94.511,14.835
0.94,98.512,15.133
0.98,101.671,15.465
1.01,104.163,15.923
1.04,107.111,16.393
1.07,110.866,16.828
1.11,114.551,17.229
1.14,117.604,17.722
1.17,120.341,18.157
1.2,123.184,18.547
1.24,126.167,19.016
1.27,129.326,19.452
1.3,132.66,19.921
1.34,136.064,20.299
1.37,139.539,20.906
1.4,144.136,21.41
1.43,147.681,21.204
1.47,149.716,21.445
1.5,151.717,21.628
1.53,154.208,21.892
1.56,157.156,22.212
1.6,160.069,22.522
1.63,162.701,23.003
1.66,165.123,23.392
1.69,167.474,23.782
1.73,170.142,24.194
1.76,172.809,24.561
1.79,175.09,24.904
1.82,177.336,25.431
1.86,180.249,26.016
1.89,183.302,26.508
1.92,186.356,26.943
1.95,189.163,27.321
1.99,191.655,27.596
2.02,194.041,27.768
2.05,196.533,27.837
2.08,198.849,27.997
2.12,200.639,28.364
2.15,202.605,28.708
2.18,204.851,28.902
2.21,207.167,29.04
2.25,208.395,28.639
2.28,208.255,28.501
2.31,209.764,29.441
2.34,213.414,29.888
2.38,215.555,30.14
2.41,215.906,31.228
2.44,217.59,32.35
2.47,220.784,32.866
2.51,223.521,33.175
2.54,225.592,33.714
2.57,227.768,34.069
2.61,230.049,34.183
2.64,231.874,34.172
2.67,233.138,34.344
2.7,234.717,34.55
2.74,236.401,34.435
2.77,237.419,34.355
2.8,238.156,34.596
2.83,239.42,34.985
2.87,241.35,35.214
2.9,243.42,35.489
2.93,245.14,35.913
2.96,246.825,36.383
3.0,248.685,36.646
3.03,250.404,36.681
3.06,251.949,36.875
3.09,253.773,37.173
3.13,255.634,37.357
3.16,256.967,37.631
3.19,258.301,38.01
3.22,260.056,38.307
3.26,261.88,38.433
3.29,263.179,38.388
3.32,263.846,38.502
3.35,264.758,38.662
3.39,264.969,39.109
3.42,265.285,39.9
3.45,267.039,40.427
3.48,268.689,40.415
3.52,269.601,40.713
3.55,271.005,41.08
3.58,272.62,41.194
3.61,273.848,41.446
3.65,274.936,41.893
3.68,276.656,42.088
3.71,278.059,42.225
3.74,279.428,42.374
3.78,280.762,42.202
3.81,281.113,42.156
3.84,281.429,42.248
3.88,282.095,41.95
3.91,282.481,41.733
3.94,282.938,42.03
3.97,284.201,42.099
4.01,284.727,42.007
4.04,284.798,42.225
4.07,285.078,42.374
4.1,285.745,42.03
4.14,285.57,41.526
4.17,284.938,41.698
4.2,285.64,41.859
4.23,286.552,41.618
4.27,286.412,41.561
4.3,286.131,41.87
4.33,285.921,41.503
4.36,285.289,41.274
4.4,284.412,41.652
4.43,283.324,41.939
4.46,282.552,42.237
4.49,282.376,42.569
4.53,282.622,42.718
4.56,282.411,42.523
4.59,281.429,42.248
4.62,280.621,41.996
4.66,279.919,41.572
4.69,278.726,41.332
4.72,277.744,41.435
4.75,276.971,41.32
4.79,275.813,40.965
4.82,274.199,40.621
4.85,272.62,40.278
4.88,271.111,39.911
4.92,269.637,39.556
4.95,268.303,39.338
4.98,267.18,39.293
5.01,266.162,39.189
5.05,264.899,39.052
5.08,263.39,38.926
5.11,261.845,38.674
5.15,259.985,38.342
5.18,258.371,38.101
5.21,257.248,37.872
5.24,256.16,37.654
5.28,254.826,37.505
5.31,253.633,37.299
5.34,252.264,36.933
5.37,250.615,36.589
5.41,248.755,36.348
5.44,246.754,36.039
5.47,244.684,35.673
5.5,242.613,35.558
5.54,240.929,35.375
5.57,239.209,34.802
5.6,236.612,34.218
5.63,234.05,34.149
5.67,232.822,34.023
5.7,231.769,33.679
5.73,230.154,33.599
5.76,228.645,33.576
5.8,227.136,33.381
5.83,225.662,33.267
5.86,224.153,33.061
5.89,222.363,32.614
5.93,220.433,32.087
5.96,218.362,31.755
5.99,216.537,31.457
6.02,214.572,31.113
6.06,212.607,30.758
6.09,210.712,30.392
6.12,208.466,29.819
6.15,205.518,29.257
6.19,202.534,28.822
6.22,200.253,28.41
6.25,198.428,28.02
6.28,196.393,27.803
6.32,194.533,27.551
6.35,192.497,27.195
6.38,190.111,26.772
6.42,187.128,26.371
6.45,184.18,26.004
6.48,181.969,25.626
6.51,180.038,25.237
6.55,178.038,24.996
6.58,175.792,24.71
6.61,173.37,24.217
6.64,170.738,23.667
6.68,168.106,23.163
6.71,165.544,22.625
6.74,162.701,22.006
6.77,159.613,21.536
6.81,157.016,21.181
6.84,154.63,20.666
6.87,151.19,19.875
6.9,146.452,19.085
6.94,142.136,18.741
6.97,139.714,18.581
7.0,138.661,18.317
7.03,137.187,18.077
7.07,134.38,17.779
7.1,131.046,17.47
7.13,127.817,16.897
7.16,125.009,16.278
7.2,122.447,15.854
7.23,119.64,15.179
7.26,116.025,14.434
7.29,112.024,13.953
7.33,108.76,13.689
7.36,106.058,13.197
7.39,102.724,12.555
7.42,99.39,11.96
7.46,96.021,11.181
7.49,92.16,10.39
7.52,88.159,9.668
7.55,84.053,9.027
7.59,80.157,8.557
7.62,76.683,8.099
7.65,73.209,7.584
7.69,69.559,7.102
7.72,65.839,6.644
7.75,62.048,6.14
7.78,58.398,5.716
7.82,55.24,5.396
7.85,52.573,5.212
7.88,49.976,4.88
7.91,46.852,4.399
7.95,43.272,3.941
7.98,40.009,3.608
8.01,37.201,3.208
8.04,34.218,2.784
8.08,30.533,2.383
8.11,26.778,2.028
8.14,23.303,1.684
8.17,19.513,1.34
8.21,15.442,1.02
8.24,11.125,0.859
8.27,7.089,0.481
8.3,2.527,0.367
8.34,0.0,0.103
8.37,-0.316,-0.928
8.4,-0.877,-2.257
8.43,-3.966,-3.299
8.47,-8.984,-4.17
8.5,-13.687,-5.201
8.53,-18.039,-5.98
8.56,-22.11,-6.266
8.6,-26.076,-6.53
8.63,-30.182,-6.942
8.66,-34.323,-7.08
8.69,-37.587,-7.148
8.73,-40.254,-7.492
8.76,-43.272,-7.904
8.79,-46.852,-8.191
8.82,-50.291,-8.569
8.86,-53.555,-9.096
8.89,-56.749,-9.634
8.92,-60.048,-10.138
8.96,-63.382,-10.654
8.99,-66.997,-11.146
9.02,-70.576,-11.582
9.05,-74.051,-12.051
9.09,-77.455,-12.487
9.12,-80.789,-12.899
9.15,-83.948,-13.231
9.18,-86.896,-13.563
9.22,-89.879,-14.067
9.25,-93.353,-14.652
9.28,-96.793,-15.098
9.31,-99.811,-15.511
9.35,-102.408,-16.038
9.38,-105.637,-16.622
9.41,-109.743,-17.023
9.44,-114.024,-17.378
9.48,-117.955,-17.722
9.51,-120.938,-17.951
9.54,-123.325,-18.295
9.57,-126.237,-18.65
9.61,-129.466,-19.028
9.64,-132.484,-19.474
9.67,-135.432,-20.127
9.7,-138.942,-20.987
9.74,-142.557,-21.433
9.77,-145.505,-21.628
9.8,-147.961,-21.949
9.83,-151.471,-22.751
9.87,-155.647,-22.968
9.9,-158.525,-22.991
9.93,-160.526,-23.518
9.96,-163.403,-24.057
10.0,-166.632,-24.286
10.03,-169.334,-24.503
10.06,-171.581,-24.893
10.09,-173.827,-25.179
10.13,-176.073,-25.363
10.16,-178.635,-25.786
10.19,-181.723,-26.439
10.23,-184.846,-26.898
10.26,-187.549,-27.207
10.29,-189.865,-27.505
10.32,-192.006,-27.826
10.36,-194.077,-28.032
10.39,-195.726,-28.341
10.42,-197.481,-28.753
10.45,-199.937,-29.189
10.49,-202.57,-29.475
10.52,-204.816,-29.681
10.55,-206.36,-29.888
10.58,-207.799,-30.082
10.62,-209.378,-30.14
10.65,-211.273,-30.254
10.68,-213.239,-30.518
10.71,-215.274,-30.93
10.75,-217.31,-31.285
10.78,-219.17,-31.732
10.81,-221.03,-32.076
10.84,-223.206,-32.511
10.88,-225.311,-32.728
10.91,-226.645,-32.809
10.94,-228.154,-33.198
10.97,-230.821,-33.565
11.01,-233.138,-33.725
11.04,-234.857,-34.252
11.07,-236.893,-34.584
11.1,-238.332,-34.424
11.14,-239.174,-34.47
11.17,-240.929,-34.825
11.2,-243.456,-34.962
11.23,-245.351,-35.031
11.27,-246.193,-35.466
11.3,-247.527,-35.925
11.33,-249.597,-35.936
11.36,-251.176,-36.005
11.4,-251.738,-36.452
11.43,-251.808,-37.093
11.46,-252.791,-37.654
11.5,-255.283,-38.078
11.53,-258.266,-38.41
11.56,-260.056,-38.811
11.59,-260.933,-39.109
11.63,-261.986,-39.132
11.66,-263.6,-39.121
11.69,-265.636,-39.201
11.72,-267.075,-39.201
11.76,-267.601,-39.338
11.79,-268.303,-39.739
11.82,-269.847,-39.888
11.85,-271.286,-39.877
11.89,-272.128,-40.152
11.92,-273.006,-40.61
11.95,-274.515,-40.656
11.98,-275.743,-40.667
12.02,-276.971,-40.988
12.05,-278.445,-41.217
12.08,-279.849,-41.263
12.11,-280.621,-41.251
12.15,-281.148,-41.297
12.18,-281.709,-41.171
12.21,-281.815,-40.976
12.24,-282.025,-40.908
12.28,-282.867,-40.942
12.31,-283.569,-40.942
12.34,-283.85,-41.171
12.37,-284.201,-41.4
12.41,-283.534,-41.778
12.44,-282.552,-42.202
12.47,-281.92,-42.168
12.5,-281.499,-41.939
12.54,-282.411,-42.569
12.57,-284.131,-43.176
12.6,-284.447,-43.187
12.63,-283.745,-43.291
12.67,-284.131,-43.359
12.7,-285.149,-43.13
12.73,-284.938,-42.832
12.77,-284.026,-42.935
12.8,-284.271,-43.027
12.83,-285.078,-42.729
12.86,-284.833,-42.386
12.9,-283.815,-42.168
12.93,-282.271,-41.755
12.96,-281.042,-41.263
12.99,-280.13,-40.85
13.03,-279.358,-40.69
13.06,-278.656,-40.633
13.09,-277.849,-40.495
13.12,-276.515,-40.301
13.16,-274.796,-40.106
13.19,-272.9,-39.774
13.22,-271.216,-39.43
13.25,-269.882,-39.132
13.29,-268.478,-39.052
13.32,-267.18,-39.132
13.35,-266.443,-39.029
13.38,-265.916,-38.72
13.42,-264.127,-38.582
13.45,-261.319,-38.456
13.48,-258.968,-38.181
13.51,-257.669,-37.918
13.55,-256.686,-37.735
13.58,-255.107,-37.654
13.61,-253.387,-37.517
13.64,-252.159,-37.334
13.68,-250.931,-37.15
13.71,-248.93,-36.818
13.74,-246.684,-36.463
13.77,-245.386,-36.543
13.81,-244.754,-36.314
13.84,-243.35,-35.867
13.87,-240.823,-35.524
13.9,-238.753,-35.306
13.94,-237.349,-35.077
13.97,-236.156,-34.642
14.0,-234.401,-34.229
14.04,-232.085,-34.034
14.07,-229.839,-33.92
14.1,-228.189,-33.427
14.13,-226.505,-33.003
14.17,-224.785,-33.084
14.2,-223.1,-32.9
14.23,-220.784,-32.305
14.26,-218.362,-31.972
14.3,-216.783,-31.858
14.33,-215.66,-31.491
14.36,-214.116,-30.999
14.39,-212.01,-30.701
14.43,-209.518,-30.506
14.46,-206.956,-30.162
14.49,-204.465,-29.635
14.52,-202.078,-29.223
14.56,-200.008,-28.891
14.59,-198.253,-28.524
14.62,-196.182,-28.272
14.65,-194.182,-28.043
14.69,-192.392,-27.734
14.72,-190.251,-27.321
14.75,-187.444,-26.852
14.78,-184.566,-26.462
14.82,-182.355,-26.016
14.85,-180.424,-25.5
14.88,-178.319,-25.133
14.91,-175.932,-24.801
14.95,-173.195,-24.343
14.98,-170.457,-23.805
15.01,-167.615,-23.289
15.04,-164.597,-22.865
15.08,-161.649,-22.327
15.11,-158.771,-21.788
15.14,-156.279,-21.479
15.17,-153.928,-21.055
15.21,-151.085,-20.379
15.24,-147.646,-19.841
15.27,-144.382,-19.371
15.31,-141.118,-18.707
15.34,-138.1,-18.386
15.37,-135.678,-18.077
15.4,-133.467,-17.951
15.44,-131.677,-17.378
15.47,-129.15,-16.393
15.5,-125.887,-15.843
15.53,-122.623,-15.305
15.57,-119.218,-14.583
15.6,-115.569,-13.815
15.63,-111.884,-13.38
15.66,-108.83,-12.979
15.7,-105.742,-12.429
15.73,-102.232,-11.891
15.76,-98.477,-11.41
15.79,-94.547,-10.848
15.83,-90.721,-10.207
15.86,-87.001,-9.623
15.89,-83.632,-9.119
15.92,-80.193,-8.637
15.96,-76.683,-8.191
15.99,-73.103,-7.744
16.02,-69.734,-7.286
16.05,-66.505,-6.805
16.09,-63.206,-6.415
16.12,-59.767,-6.129
16.15,-56.503,-5.797
16.18,-53.415,-5.327
16.22,-50.362,-4.892
16.25,-47.449,-4.422
16.28,-44.255,-3.883
16.31,-40.289,-3.391
16.35,-35.973,-2.967
16.38,-32.042,-2.566
16.41,-28.357,-2.165
16.44,-24.391,-1.833
16.48,-20.601,-1.581
16.51,-16.776,-1.34
16.54,-13.055,-1.134
16.58,-9.3,-0.939
16.61,-5.334,-0.779
16.64,-1.228,-0.79
16.67,0.14,-0.355
16.71,0.526,0.664
16.74,0.562,1.821
16.77,2.667,3.07
16.8,7.581,4.009
16.84,12.494,4.846
16.87,16.53,5.739
16.9,20.461,6.358
16.93,24.953,6.701
16.97,29.375,7.045
17.0,33.481,7.4
17.03,37.201,7.618
17.06,40.57,7.859
17.1,43.974,8.271
17.13,47.624,8.649
17.16,51.169,8.97
17.19,54.433,9.405
17.23,57.591,9.932
17.26,60.82,10.402
17.29,64.189,10.883
17.32,67.839,11.387
17.36,71.735,11.845
17.39,75.034,12.212
17.42,77.806,12.601
17.45,81.175,13.025
17.49,85.316,13.346
17.52,89.177,13.586
17.55,92.371,13.941
17.58,95.424,14.297
17.62,98.512,14.549
17.65,101.355,14.869
17.68,104.022,15.27
17.71,106.935,15.728
17.75,109.918,16.324
17.78,113.358,16.828
17.81,116.762,17.252
17.85,119.815,17.745
17.88,122.588,18.214
17.91,125.816,18.684
17.94,129.361,19.131
17.98,132.73,19.623
18.01,135.924,19.956
18.04,139.188,20.654
18.07,143.224,21.227
18.11,146.347,21.044
18.14,148.944,21.685
18.17,152.383,22.178
18.2,155.472,22.201
18.24,157.227,22.453
18.27,159.262,23.037
18.3,162.491,23.461
18.33,165.614,23.644
18.37,167.966,24.034
18.4,170.001,24.469
18.43,172.493,24.778
18.46,175.125,25.099
18.5,177.968,25.638
18.53,181.232,26.187
18.56,184.46,26.577
18.59,187.408,26.909
18.63,189.97,27.218
18.66,192.076,27.482
18.69,193.971,27.711
18.72,196.077,27.952
18.76,198.744,28.215
18.79,201.447,28.444
18.82,203.482,28.708
18.85,205.061,29.028
18.89,206.746,29.292
18.92,208.501,29.235
18.95,210.185,29.303
18.98,211.975,29.578
19.02,214.046,29.899
19.05,216.327,30.403
19.08,218.503,30.85
19.12,220.187,31.033
19.15,221.942,31.411
19.18,224.294,31.858
19.21,226.82,32.098
19.25,228.891,32.293
19.28,230.786,32.683
19.31,232.962,32.912
19.34,235.138,33.015
19.38,237.173,33.301
19.41,239.455,33.679
19.44,240.894,34.046
19.47,241.49,34.664
19.51,243.105,35.363
19.54,245.737,35.821
19.57,248.509,36.165
19.6,250.404,36.612
19.64,252.194,37.013
19.67,254.195,37.345
19.7,256.546,37.666
19.73,258.371,37.987
19.77,259.634,38.353
19.8,261.6,38.594
19.83,263.705,38.708
19.86,265.32,38.949
19.9,266.583,39.212
19.93,267.285,39.086
19.96,267.285,38.892
19.99,267.952,38.903
20.03,269.531,38.788
20.06,270.97,38.72
20.09,271.883,39.178
20.12,273.251,39.682
20.16,274.901,39.808
20.19,275.954,39.774
20.22,276.585,39.865
20.25,277.393,39.888
20.29,278.516,39.785
20.32,279.147,39.9
20.35,279.884,40.369
20.39,281.253,40.427
20.42,281.218,40.679
20.45,279.779,41.366
20.48,279.253,41.664
20.52,279.919,41.778
20.55,281.218,41.985
20.58,282.095,42.134
20.61,282.692,42.443
20.65,283.289,42.844
20.68,284.096,42.993
20.71,284.798,42.832
20.74,285.219,42.752
20.78,285.675,42.592
20.81,285.71,42.443
20.84,285.57,42.569
20.87,286.201,42.809
20.91,286.693,42.821
20.94,286.658,42.832
20.97,286.377,42.752
21.0,286.272,42.557
21.04,285.886,42.34
21.07,285.289,42.179
21.1,285.254,42.099
21.13,285.57,42.122
21.17,285.429,42.122
21.2,284.306,41.881
21.23,282.797,41.435
21.26,281.604,40.954
21.3,280.692,40.541
21.33,279.744,40.369
21.36,279.077,40.301
21.39,278.27,40.369
21.43,276.62,40.598
21.46,274.831,40.633
21.49,273.286,40.301
21.53,271.567,40.094
21.56,270.058,39.991
21.59,268.689,39.831
21.62,267.636,39.774
21.66,266.689,39.888
21.69,266.127,39.854
21.72,264.934,39.522
21.75,262.933,39.189
21.79,261.179,38.869
21.82,259.424,38.124
21.85,252.861,34.412
21.88,238.683,30.346
21.92,227.873,29.796
21.95,227.522,30.128
21.98,229.277,29.532
22.01,226.434,30.002
22.05,222.574,31.812
22.08,222.784,33.313
22.11,226.68,34.47
22.14,231.137,35.993
22.18,234.19,37.276
22.21,235.313,37.883
22.24,236.226,38.445
22.27,238.472,38.594
22.31,239.946,37.987
22.34,238.928,36.979
22.37,236.752,36.383
22.4,235.735,35.661
22.44,234.576,34.367
22.47,231.558,33.416
22.5,228.014,33.049
22.53,225.557,32.568
22.57,223.065,31.64
22.6,219.836,31.171
22.63,217.59,31.067
22.66,216.081,30.747
22.7,213.94,30.346
22.73,211.273,30.185
22.76,209.273,29.956
22.8,207.588,29.59
22.83,205.307,29.051
22.86,202.499,28.65
22.89,200.078,28.536
22.93,198.463,28.49
22.96,197.235,28.238
22.99,195.445,27.997
23.02,193.445,27.871
23.06,191.55,27.551
23.09,189.339,26.921
23.12,186.426,26.302
23.15,183.899,25.832
23.19,181.863,25.34
23.22,179.547,24.801
23.25,176.599,24.377
23.28,173.546,24.034
23.32,170.949,23.518
23.35,168.352,22.957
23.38,165.334,22.487
23.41,162.421,21.96
23.45,159.753,21.456
23.48,157.191,21.032
23.51,154.349,20.483
23.54,151.12,19.967
23.58,147.961,19.474
23.61,144.838,18.913
23.64,141.609,18.363
23.67,138.17,17.836
23.71,134.66,17.344
23.74,131.783,17.057
23.77,129.677,16.794
23.8,127.536,16.427
23.84,124.658,16.015
23.87,121.359,15.557
23.9,118.06,14.949
23.93,115.007,14.377
23.97,112.129,13.93
24.0,109.286,13.563
24.03,106.128,13.071
24.07,102.513,12.532
24.1,99.004,12.028
24.13,95.494,11.398
24.16,91.669,10.699
24.2,87.878,10.081
24.23,84.264,9.554
24.26,81.07,9.073
24.29,77.876,8.5
24.33,74.332,7.996
24.36,70.717,7.572
24.39,67.278,7.16
24.42,64.224,6.656
24.46,61.206,6.22
24.49,58.083,5.865
24.52,54.994,5.453
24.55,51.73,4.983
24.59,48.221,4.582
24.62,44.781,4.09
24.65,41.307,3.505
24.68,37.376,2.887
24.72,33.095,2.509
24.75,29.234,2.199
24.78,25.549,1.821
24.81,21.97,1.535
24.85,18.144,1.363
24.88,14.529,1.134
24.91,10.739,1.02
24.94,7.335,0.928
24.98,3.474,0.813
25.01,0.491,0.607
25.04,-0.246,-0.218
25.07,-0.421,-1.558
25.11,-1.895,-2.944
25.14,-6.633,-3.929
25.17,-11.827,-4.846
25.2,-16.319,-5.797
25.24,-20.531,-6.381
25.27,-24.847,-6.713
25.3,-28.918,-7.057
25.34,-32.849,-7.446
25.37,-36.464,-7.641
25.4,-40.149,-7.767
25.43,-43.729,-8.088
25.47,-47.449,-8.5
25.5,-50.888,-8.786
25.53,-54.012,-9.153
25.56,-57.346,-9.691
25.6,-61.171,-10.115
25.63,-64.751,-10.425
25.66,-67.804,-10.894
25.69,-70.963,-11.33
25.73,-74.226,-11.788
25.76,-77.771,-12.223
25.79,-81.07,-12.498
25.82,-83.597,-12.991
25.86,-86.79,-13.655
25.89,-90.616,-14.125
25.92,-94.301,-14.48
25.95,-97.284,-14.732
25.99,-99.846,-15.247
26.02,-102.969,-15.751
26.05,-106.584,-16.198
26.08,-109.918,-16.565
26.12,-113.042,-17.183
26.15,-116.656,-17.825
26.18,-120.482,-18.065
26.21,-123.57,-18.317
26.25,-126.132,-18.73
26.28,-128.729,-18.993
26.31,-131.502,-19.371
26.34,-134.801,-19.921
26.38,-138.451,-20.391
26.41,-141.785,-20.815
26.44,-144.733,-21.147
26.47,-147.26,-21.284
26.51,-149.611,-21.605
26.54,-152.594,-22.018
26.57,-155.542,-22.35
26.61,-158.279,-22.877
26.64,-161.333,-23.564
26.67,-164.983,-24.034
26.7,-168.071,-24.332
26.74,-170.528,-24.755
26.77,-173.16,-25.179
26.8,-176.003,-25.443
26.83,-178.74,-25.867
26.87,-182.004,-26.485
26.9,-185.443,-26.829
26.93,-188.216,-27.047
26.96,-190.321,-27.333
27.0,-192.357,-27.596
27.03,-194.568,-27.722
27.06,-196.533,-27.894
27.09,-198.534,-28.169
27.13,-200.674,-28.536
27.16,-203.166,-28.765
27.19,-205.518,-28.868
27.22,-206.992,-29.051
27.26,-208.185,-29.349
27.29,-209.799,-29.544
27.32,-212.01,-29.704
27.35,-214.256,-29.933
27.39,-216.116,-30.323
27.42,-217.169,-30.815
27.45,-218.292,-31.4
27.48,-220.187,-31.755
27.52,-222.433,-32.064
27.55,-224.329,-32.385
27.58,-225.873,-32.774
27.61,-227.663,-33.129
27.65,-229.909,-33.45
27.68,-232.471,-33.771
27.71,-234.752,-34.172
27.74,-236.647,-34.401
27.78,-238.086,-34.642
27.81,-239.56,-34.951
27.84,-241.315,-35.1
27.88,-243.28,-35.409
27.91,-245.456,-35.741
27.94,-247.141,-35.948
27.97,-248.264,-36.211
28.01,-249.738,-36.566
28.04,-251.633,-36.578
28.07,-253.107,-36.452
28.1,-254.124,-36.704
28.14,-256.02,-37.07
28.17,-257.95,-37.15
28.2,-259.248,-37.231
28.23,-260.126,-37.551
28.27,-261.53,-37.735
28.3,-262.758,-37.677
28.33,-263.6,-37.861
28.36,-264.864,-38.193
28.4,-266.548,-38.353
28.43,-267.741,-38.422
28.46,-268.549,-38.64
28.49,-269.882,-38.983
28.53,-271.321,-39.155
28.56,-271.602,-39.728
28.59,-271.848,-40.644
28.62,-272.83,-41.068
28.66,-274.023,-41.24
28.69,-275.322,-41.492
28.72,-276.62,-41.778
28.75,-277.744,-42.156
28.79,-279.007,-42.397
28.82,-280.305,-42.374
28.85,-281.218,-42.328
28.88,-281.885,-42.294
28.92,-282.587,-42.191
28.95,-283.394,-42.088
28.98,-283.85,-41.881
29.01,-284.306,-42.34
29.05,-285.219,-42.328
29.08,-285.675,-42.225
29.11,-285.991,-42.26
29.15,-285.851,-41.939
29.18,-285.254,-41.847
29.21,-285.254,-42.053
29.24,-286.166,-42.007
29.28,-286.237,-41.79
29.31,-285.289,-42.053
29.34,-285.184,-42.122
29.37,-285.149,-41.847
29.41,-283.218,-41.824
29.44,-281.534,-42.294
29.47,-282.341,-42.454
29.5,-283.745,-42.328
29.54,-283.218,-42.42
29.57,-281.429,-42.592
29.6,-280.27,-42.294
29.63,-279.955,-41.813
29.67,-279.604,-41.515
29.7,-278.621,-41.343
29.73,-277.287,-41.355
29.76,-276.55,-41.366
29.8,-276.27,-41.137
29.83,-275.217,-40.828
29.86,-273.672,-40.427
29.89,-271.812,-39.877
29.93,-270.093,-39.419
29.96,-269.005,-39.189
29.99,-268.303,-39.063
30.02,-267.25,-38.903
30.06,-265.53,-38.811
30.09,-264.056,-38.628
30.12,-262.793,-38.158
30.15,-261.179,-37.757
30.19,-259.213,-37.494
30.22,-257.353,-37.219
30.25,-255.774,-36.99
30.28,-254.265,-36.83
30.32,-253.036,-36.623
30.35,-251.176,-36.452
30.38,-248.825,-36.165
30.42,-246.649,-35.833
30.45,-244.719,-35.753
30.48,-243.385,-35.764
30.51,-242.122,-35.592
30.55,-240.297,-35.455
30.58,-238.683,-35.466
30.61,-237.595,-35.34
30.64,-236.015,-34.871
30.68,-233.804,-34.596
30.71,-232.085,-34.538
30.74,-230.821,-34.012
30.77,-228.821,-33.462
30.81,-226.329,-33.278
30.84,-224.68,-33.141
30.87,-223.241,-32.591
30.9,-221.31,-32.133
30.94,-219.099,-31.663
30.97,-216.467,-31.193
31.0,-214.502,-31.136
31.03,-213.73,-30.896
31.07,-212.045,-30.46
31.1,-209.694,-30.357
31.13,-206.921,-29.704
31.16,-203.447,-28.902
31.2,-200.604,-28.662
31.23,-199.095,-28.387
31.26,-197.446,-27.791
31.29,-194.989,-27.574
31.33,-192.708,-27.47
31.36,-191.129,-27.23
31.39,-189.233,-26.795
31.42,-186.461,-26.497
31.46,-183.548,-25.97
31.49,-180.775,-25.615
31.52,-179.231,-25.615
31.55,-178.003,-25.237
31.59,-175.932,-24.881
31.62,-173.37,-24.492
31.65,-170.844,-23.85
31.69,-168.317,-23.209
31.72,-165.755,-22.579
31.75,-162.947,-21.96
31.78,-159.543,-21.388
31.82,-156.525,-21.216
31.85,-154.243,-20.918
31.88,-151.506,-20.276
31.91,-148.242,-19.83
31.95,-144.908,-19.383
31.98,-142.065,-19.016
32.01,-139.468,-18.466
32.04,-136.766,-17.836
32.08,-133.783,-17.47
32.11,-131.046,-17.206
32.14,-128.413,-16.588
32.17,-125.29,-16.003
32.21,-121.78,-15.499
32.24,-118.166,-14.938
32.27,-114.586,-14.285
32.3,-111.427,-13.747
32.34,-108.585,-13.288
32.37,-105.391,-12.784
32.4,-101.636,-12.292
32.43,-97.986,-11.834
32.47,-94.617,-11.238
32.5,-91.142,-10.573
32.53,-87.492,-9.955
32.56,-83.807,-9.428
32.6,-80.017,-8.912
32.63,-76.437,-8.42
32.66,-73.033,-7.973
32.69,-69.839,-7.572
32.73,-66.786,-7.057
32.76,-63.452,-6.495
32.79,-59.592,-6.06
32.82,-55.801,-5.797
32.86,-52.538,-5.407
32.89,-49.59,-4.88
32.92,-46.361,-4.433
32.96,-43.237,-4.09
32.99,-40.114,-3.551
33.02,-36.604,-2.944
33.05,-32.674,-2.52
33.09,-28.813,-2.165
33.12,-25.058,-1.787
33.15,-21.443,-1.466
33.18,-17.688,-1.214
33.22,-13.792,-1.02
33.25,-9.756,-0.848
33.28,-5.861,-0.642
33.31,-1.755,-0.653
33.35,0.105,-0.378
33.38,0.456,0.584
33.41,0.667,1.833
33.44,2.878,2.944
33.48,7.405,3.723
33.51,12.318,4.846
33.54,16.916,5.865
33.57,21.162,6.415
33.61,25.549,6.724
33.64,29.796,7.183
33.67,34.358,7.526
33.7,38.64,7.652
33.74,41.974,7.79
33.77,44.746,8.202
33.8,47.765,8.489
33.83,50.888,8.832
33.87,54.222,9.462
33.9,58.118,10.001
33.93,61.592,10.436
33.96,64.926,10.929
34.0,68.155,11.364
34.03,71.594,11.765
34.06,74.858,12.109
34.09,77.911,12.441
34.13,80.93,12.945
34.16,84.229,13.609
34.19,87.738,14.193
34.23,91.037,14.675
34.26,94.231,15.11
34.29,97.214,15.568
34.32,100.267,16.015
34.36,103.355,16.427
34.39,106.9,16.794
34.42,111.217,17.137
34.45,115.498,17.321
34.49,118.552,17.355
34.52,120.552,17.527
34.55,122.412,17.859
34.58,125.15,18.501
34.62,129.01,19.051
34.65,132.52,19.337
34.68,135.117,19.772
34.71,137.784,20.334
34.75,141.293,21.044
34.78,145.54,21.559
34.81,148.874,21.697
34.84,151.155,22.063
34.88,153.577,22.522
34.91,156.841,22.911
34.94,160.315,23.209
34.97,163.403,23.576
35.01,165.93,24.034
35.04,168.317,24.423
35.07,170.949,24.778
35.1,173.686,25.133
35.14,176.213,25.489
35.17,178.74,25.97
35.2,181.758,26.451
35.23,185.092,26.783
35.27,187.865,27.081
35.3,190.111,27.379
35.33,192.287,27.562
35.36,194.357,27.722
35.4,196.147,27.997
35.43,197.832,28.421
35.46,199.832,28.857
35.5,202.008,29.223
35.53,203.973,29.624
35.56,206.114,29.945
35.59,207.869,29.968
35.63,209.167,30.094
35.66,210.992,30.403
35.69,213.94,31.056
35.72,217.696,31.629
35.76,220.433,31.915
35.79,221.872,32.35
35.82,223.557,32.946
35.85,226.013,33.107
35.89,228.259,33.049
35.92,229.839,33.233
35.95,231.383,33.359
35.98,232.576,33.427
36.02,233.699,33.611
36.05,235.699,33.897
36.08,238.051,34.115
36.11,239.63,34.126
36.15,240.332,34.206
36.18,241.069,34.435
36.21,242.754,34.642
36.24,244.508,34.79
36.28,245.667,35.088
36.31,246.754,35.478
36.34,248.193,35.718
36.37,249.667,35.73
36.41,249.808,36.005
36.44,249.843,36.452
36.47,250.685,36.646
36.5,252.054,36.864
36.54,253.563,37.322
36.57,255.142,37.895
36.6,256.792,38.319
36.63,258.336,38.651
36.67,260.02,39.075
36.7,262.231,39.361
36.73,264.583,39.396
36.77,265.952,39.716
36.8,266.969,40.14
36.83,268.408,40.278
36.86,270.303,40.117
36.9,272.093,40.22
36.93,273.322,40.358
36.96,274.199,40.702
36.99,275.427,40.954
37.03,276.585,41.034
37.06,277.463,41.011
37.09,278.516,41.274
37.12,280.13,41.412
37.16,281.253,41.332
37.19,281.429,41.366
37.22,282.025,41.549
37.25,283.253,41.366
37.29,283.815,41.034
37.32,283.815,41.32
37.35,284.377,41.538
37.38,284.833,41.309
37.42,283.955,41.664
37.45,283.359,42.66
37.48,283.745,42.97
37.51,283.78,42.603
37.55,283.78,42.901
37.58,284.552,43.325
37.61,285.219,43.21
37.64,285.114,43.187
37.68,285.219,43.405
37.71,285.745,43.187
37.74,285.57,42.809
37.77,284.692,42.615
37.81,284.271,42.534
37.84,284.271,42.305
37.87,283.92,42.088
37.9,283.078,41.985
37.94,282.306,41.79
37.97,281.604,41.469
38.0,280.411,41.194
38.04,278.937,40.908
38.07,277.919,40.724
38.1,277.287,40.633
38.13,276.48,40.404
38.17,274.69,40.072
38.2,272.62,39.865
38.23,271.391,39.636
38.26,270.374,39.258
38.3,268.584,38.96
38.33,266.548,38.88
38.36,265.425,38.72
38.39,264.793,38.365
38.43,262.793,37.861
38.46,258.617,37.322
38.49,254.581,36.784
38.52,252.405,36.463
38.56,251.703,36.497
38.59,251.001,36.589
38.62,249.387,36.83
38.65,247.948,37.265
38.69,247.737,37.505
38.72,247.702,37.448
38.75,247.421,37.391
38.78,247.246,37.437
38.82,246.965,37.345
38.85,246.193,37.162
38.88,245.21,36.944
38.91,244.263,36.738
38.95,243.175,36.291
38.98,240.718,35.501
39.01,237.63,34.722
39.04,234.576,33.931
39.08,232.33,33.267
39.11,230.4,32.786
39.14,228.084,32.465
39.17,225.697,32.133
39.21,223.346,31.869
39.24,221.135,31.549
39.27,219.205,31.216
39.31,217.415,30.907
39.34,215.485,30.598
39.37,213.309,30.254
39.4,210.466,30.071
39.44,207.623,29.979
39.47,205.693,29.796
39.5,203.903,29.338
39.53,201.692,28.971
39.57,199.376,28.753
39.6,197.481,28.536
39.63,195.866,28.261
39.66,194.112,28.032
39.7,192.146,27.86
39.73,190.216,27.413
39.76,187.724,26.817
39.79,184.952,26.382
39.83,182.706,25.832
39.86,180.214,25.248
39.89,177.512,24.939
39.92,175.125,24.629
39.96,172.844,24.125
39.99,170.142,23.598
40.02,167.229,23.175
40.05,164.807,22.648
40.09,162.105,22.018
40.12,159.087,21.514
40.15,156.349,21.399
40.18,154.349,21.227
40.22,151.611,20.368
40.25,147.54,19.921
40.28,144.417,19.772
40.31,142.522,19.326
40.35,140.872,19.028
40.38,138.837,18.695
40.41,135.748,18.123
40.44,132.835,17.756
40.48,130.624,17.241
40.51,127.852,16.313
40.54,123.851,15.511
40.58,119.394,14.846
40.61,115.007,14.079
40.64,111.111,13.563
40.67,107.988,13.3
40.71,105.426,12.819
40.74,101.952,12.189
40.77,97.951,11.696
40.8,94.125,11.135
40.84,90.511,10.516
40.87,86.896,9.909
40.9,83.07,9.29
40.93,79.315,8.832
40.97,75.806,8.454
41.0,72.542,8.042
41.03,69.348,7.687
41.06,66.19,7.297
41.1,62.961,6.873
41.13,59.521,6.438
41.16,56.398,6.003
41.19,53.31,5.602
41.23,50.291,5.166
41.26,47.238,4.731
41.29,43.974,4.284
41.32,40.289,3.757
41.36,36.464,3.242
41.39,32.639,2.795
41.42,29.024,2.44
41.45,25.514,2.119
41.49,22.075,1.764
41.52,18.179,1.478
41.55,14.214,1.226
41.58,10.248,1.008
41.62,6.528,0.813
41.65,2.492,0.813
41.68,0.14,0.55
41.71,-0.351,-0.504
41.75,-0.491,-1.799
41.78,-2.457,-3.07
41.81,-7.51,-4.135
41.85,-13.02,-5.132
41.88,-17.618,-6.003
41.91,-21.654,-6.61
41.94,-25.865,-6.965
41.98,-30.077,-7.309
42.01,-34.323,-7.664
42.04,-38.184,-7.927
42.07,-41.623,-8.202
42.11,-44.746,-8.477
42.14,-47.905,-8.832
42.17,-51.028,-9.21
42.2,-54.503,-9.634
42.24,-58.293,-10.047
42.27,-61.803,-10.39
42.3,-64.786,-10.791
42.33,-67.734,-11.215
42.37,-70.717,-11.57
42.4,-73.489,-12.028
42.43,-76.753,-12.532
42.46,-80.754,-12.899
42.5,-84.755,-13.243
42.53,-88.335,-13.563
42.56,-91.318,-13.964
42.59,-94.16,-14.4
42.63,-97.565,-14.812
42.66,-101.109,-15.144
42.69,-104.163,-15.614
42.72,-107.321,-16.061
42.76,-110.655,-16.496
42.79,-114.235,-16.966
42.82,-117.709,-17.47
42.85,-120.622,-17.756
42.89,-123.009,-18.168
42.92,-125.5,-18.501
42.95,-128.624,-19.039
42.98,-132.204,-19.52
43.02,-135.889,-20.196
43.05,-139.679,-20.792
43.08,-142.873,-21.021
43.12,-145.786,-21.456
43.15,-148.698,-21.662
43.18,-151.436,-21.983
43.21,-154.454,-22.464
43.25,-157.648,-22.877
43.28,-160.771,-23.186
43.31,-163.614,-23.61
43.34,-166.316,-24.034
43.38,-168.983,-24.332
43.41,-171.3,-24.584
43.44,-173.651,-24.939
43.47,-175.932,-25.133
43.51,-177.968,-25.385
43.54,-180.635,-26.13
43.57,-184.215,-26.703
43.6,-187.233,-26.875
43.64,-189.233,-27.138
43.67,-191.479,-27.631
43.7,-194.392,-27.803
43.73,-196.533,-27.871
43.77,-198.077,-28.261
43.8,-200.359,-28.696
43.83,-203.026,-28.879
43.86,-205.026,-29.097
43.9,-206.36,-29.383
43.93,-207.974,-29.509
43.96,-209.589,-29.601
43.99,-211.414,-29.922
44.03,-213.73,-30.185
44.06,-215.59,-30.495
44.09,-217.274,-30.919
44.12,-219.31,-31.228
44.16,-221.416,-31.342
44.19,-222.925,-31.583
44.22,-224.399,-31.846
44.25,-226.048,-32.064
44.29,-227.803,-32.293
44.32,-229.874,-32.557
44.35,-231.734,-32.809
44.39,-233.383,-33.244
44.42,-234.927,-33.611
44.45,-236.156,-34.023
44.48,-237.209,-34.401
44.52,-238.507,-34.848
44.55,-240.543,-35.512
44.58,-243.35,-36.005
44.61,-245.667,-36.28
44.65,-247.316,-36.612
44.68,-249.352,-36.956
44.71,-251.352,-37.047
44.74,-252.65,-37.185
44.78,-254.019,-37.471
44.81,-255.879,-37.654
44.84,-257.494,-37.872
44.87,-259.038,-38.227
44.91,-260.863,-38.433
44.94,-262.407,-38.445
44.97,-262.968,-38.433
45.0,-263.495,-38.502
45.04,-264.969,-38.548
45.07,-266.689,-38.617
45.1,-267.812,-38.766
45.13,-268.584,-39.052
45.17,-269.847,-39.35
45.2,-271.461,-39.51
45.23,-272.514,-39.716
45.26,-273.357,-40.094
45.3,-274.831,-40.175
45.33,-276.129,-40.06
45.36,-277.287,-40.255
45.39,-278.516,-40.507
45.43,-278.34,-41.183
45.46,-277.814,-41.95
45.49,-278.059,-42.007
45.52,-278.761,-41.95
45.56,-279.147,-41.996
45.59,-279.253,-42.294
45.62,-280.13,-42.626
45.66,-281.464,-42.649
45.69,-282.025,-42.844
45.72,-282.727,-43.199
45.75,-283.955,-43.153
45.79,-284.692,-43.016
45.82,-284.833,-43.119
45.85,-285.078,-43.142
45.88,-285.675,-43.016
45.92,-286.272,-42.901
45.95,-286.658,-42.821
45.98,-286.974,-42.752
46.01,-286.938,-42.649
46.05,-286.447,-42.466
46.08,-285.5,-42.099
46.11,-284.412,-41.927
46.14,-284.236,-41.962
46.18,-284.131,-41.962
46.21,-283.745,-41.836
46.24,-283.148,-41.538
46.27,-281.744,-41.16
46.31,-280.13,-40.885
46.34,-279.007,-40.541
46.37,-278.516,-40.266
46.4,-277.357,-40.312
46.44,-275.638,-40.564
46.47,-274.164,-40.621
46.5,-273.076,-40.472
46.53,-271.918,-40.243
46.57,-270.654,-39.98
46.6,-268.935,-39.739
46.63,-267.39,-39.648
46.66,-266.513,-39.59
46.7,-265.671,-39.487
46.73,-264.653,-39.384
46.76,-263.144,-39.327
46.79,-261.916,-39.121
46.83,-260.933,-38.651
46.86,-259.459,-38.147
46.89,-257.564,-37.838
46.93,-256.09,-37.574
46.96,-254.756,-37.185
46.99,-252.931,-36.967
47.02,-250.966,-36.818
47.06,-248.895,-36.429
47.09,-246.684,-36.051
47.12,-244.824,-35.89
47.15,-243.385,-35.65
47.19,-241.841,-35.398
47.22,-240.016,-35.169
47.25,-238.753,-35.329
47.28,-237.981,-35.146
47.32,-236.086,-34.607
47.35,-233.313,-34.195
47.38,-231.137,-33.886
47.41,-229.909,-33.84
47.45,-229.031,-33.656
47.48,-227.417,-33.336
47.51,-225.206,-33.164
47.54,-223.206,-33.072
47.58,-221.275,-32.58
47.61,-218.889,-32.121
47.64,-216.924,-31.824
47.67,-215.274,-31.331
47.71,-213.239,-30.827
47.74,-210.747,-30.472
47.77,-208.676,-30.162
47.8,-207.027,-29.762
47.84,-204.886,-29.269
47.87,-202.043,-28.902
47.9,-199.165,-28.719
47.93,-197.2,-28.536
47.97,-195.866,-28.375
48.0,-194.427,-28.215
48.03,-192.357,-27.986
48.06,-190.041,-27.654
48.1,-187.584,-27.195
48.13,-185.197,-26.726
48.16,-183.057,-26.164
48.2,-180.705,-25.546
48.23,-178.178,-25.111
48.26,-175.722,-24.698
48.29,-173.16,-24.16
48.33,-170.212,-23.656
48.36,-167.229,-23.209
48.39,-164.175,-22.785
48.42,-161.649,-22.27
48.46,-158.876,-21.697
48.49,-155.998,-21.399
48.52,-153.682,-20.964
48.55,-151.225,-20.311
48.59,-148.312,-19.795
48.62,-145.47,-19.337
48.65,-142.171,-18.741
48.68,-138.837,-18.478
48.72,-136.626,-18.329
48.75,-135.152,-18.203
48.78,-133.537,-17.825
48.81,-130.484,-16.931
48.85,-126.132,-16.324
48.88,-122.412,-15.786
48.91,-119.394,-15.087
48.94,-116.025,-14.342
48.98,-112.234,-13.77
49.01,-108.409,-13.288
49.04,-104.865,-12.784
49.07,-101.355,-12.257
49.11,-97.916,-11.765
49.14,-94.757,-11.192
49.17,-91.318,-10.677
49.2,-87.563,-10.184
49.24,-83.772,-9.668
49.27,-80.017,-9.084
49.3,-76.472,-8.603
49.33,-73.068,-8.156
49.37,-69.699,-7.618
49.4,-66.365,-7.091
49.43,-63.277,-6.713
49.47,-60.434,-6.243
49.5,-57.346,-5.716
49.53,-53.731,-5.201
49.56,-49.976,-4.777
49.6,-46.536,-4.307
49.63,-43.167,-3.712
49.66,-39.272,-3.15
49.69,-35.201,-2.772
49.73,-31.235,-2.406
49.76,-27.55,-2.016
49.79,-23.759,-1.764
49.82,-20.074,-1.581
49.86,-16.46,-1.386
49.89,-12.985,-1.18
49.92,-9.476,-1.042
49.95,-6.036,-0.882
49.99,-2.141,-0.882
50.02,0.035,-0.527
50.05,0.526,0.515
50.08,0.702,1.959
50.12,3.194,3.242
50.15,8.493,4.204
50.18,13.687,5.212
50.21,18.214,6.071
50.25,21.899,6.346
50.28,25.269,6.53
50.31,29.41,7.183
50.34,34.393,7.538
50.38,38.184,7.561
50.41,40.746,7.801
50.44,43.623,8.145
50.47,47.133,8.271
50.51,50.783,8.557
50.54,54.292,9.096
50.57,57.556,9.554
50.6,60.329,9.966
50.64,63.417,10.562
50.67,67.278,11.043
50.7,71.278,11.433
50.74,74.858,11.868
50.77,78.017,12.257
50.8,81.14,12.727
50.83,84.685,13.243
50.87,88.194,13.609
50.9,91.177,14.148
50.93,94.266,14.686
50.96,97.565,15.064
51.0,100.793,15.431
51.03,103.987,15.866
51.06,107.076,16.393
51.09,110.374,16.943
51.13,113.884,17.412
51.16,117.323,17.894
51.19,120.692,18.329
51.22,123.676,18.673
51.26,126.624,19.142
51.29,130.028,19.692
51.32,133.748,20.299
51.35,137.433,20.723
51.39,140.662,21.135
51.42,143.996,21.491
51.45,147.049,21.388
51.48,149.435,21.445
51.52,151.576,21.64
51.55,153.471,21.8
51.58,155.331,22.04
51.61,157.753,22.522
51.65,160.947,23.094
51.68,164.07,23.587
51.71,166.562,24.08
51.74,169.054,24.618
51.78,172.072,25.042
51.81,175.371,25.317
51.84,178.249,25.741
51.87,181.056,26.394
51.91,184.285,26.84
51.94,187.444,27.15
51.97,190.251,27.459
52.01,192.743,27.654
52.04,194.708,27.768
52.07,196.428,27.997
52.1,198.463,28.295
52.14,200.955,28.662
52.17,203.307,28.765
52.2,204.921,28.879
52.23,206.325,29.04
52.27,207.729,29.086
52.3,208.781,28.948
52.33,210.01,29.601
52.36,213.66,30.804
52.4,217.836,31.445
52.43,220.363,31.915
52.46,221.767,32.431
52.49,223.381,32.728
52.53,224.995,32.648
52.56,226.575,32.763
52.59,228.4,32.958
52.62,230.014,33.141
52.66,231.242,33.164
52.69,232.225,33.095
52.72,233.664,33.404
52.75,235.629,33.691
52.79,237.068,33.588
52.82,237.595,33.668
52.85,238.823,34.286
52.88,241.209,34.722
52.92,243.28,34.917
52.95,244.894,35.375
52.98,246.79,35.856
53.01,249.246,36.028
53.05,250.861,35.993
53.08,251.808,36.211
53.11,253.036,36.543
53.14,255.142,36.726
53.18,257.143,36.921
53.21,258.582,37.265
53.24,260.056,37.574
53.28,261.494,37.757
53.31,262.688,37.769
53.34,263.811,37.815
53.37,264.513,38.09
53.41,264.548,38.72
53.44,265.39,39.43
53.47,267.145,39.819
53.5,268.338,40.083
53.54,269.321,40.621
53.57,271.005,40.919
53.6,272.83,40.976
53.63,274.55,41.16
53.67,275.954,41.435
53.7,277.217,41.733
53.73,278.796,41.916
53.76,280.341,41.824
53.8,281.253,41.755
53.83,281.815,41.778
53.86,282.166,41.755
53.89,282.376,41.584
53.93,282.552,41.526
53.96,282.797,41.629
53.99,283.429,41.698
54.02,283.78,41.652
54.06,284.026,41.721
54.09,284.236,41.79
54.12,285.078,42.076
54.15,285.851,41.813
54.19,285.043,41.423
54.22,285.008,42.386
54.25,287.605,42.489
54.28,287.921,41.755
54.32,286.623,42.294
54.35,287.009,42.305
54.38,286.868,41.675
54.41,284.096,41.71
54.45,281.499,42.145
54.48,281.92,42.179
54.51,283.043,42.076
54.55,282.306,42.065
54.58,280.727,42.638
54.61,280.727,42.615
54.64,280.27,41.973
54.68,279.182,41.824
54.71,278.165,41.675
54.74,277.603,41.446
54.77,276.866,41.24
54.81,275.813,41.125
54.84,274.445,40.873
54.87,273.041,40.484
54.9,271.672,40.094
54.94,270.233,39.728
54.97,268.443,39.43
55.0,266.689,39.35
55.03,265.565,39.304
55.07,264.899,39.086
55.1,264.091,38.823
55.13,262.407,38.445
55.16,260.02,37.998
55.2,257.845,37.723
55.23,256.721,37.586
55.26,256.09,37.379
55.29,255.247,37.437
55.33,254.721,37.574
55.36,253.528,37.357
55.39,250.615,36.898
55.42,247.456,36.566
55.46,246.404,36.6
55.49,246.368,36.2
55.52,244.333,35.65
55.55,240.367,35.317
55.59,237.314,35.054
55.62,236.928,34.825
55.65,236.928,34.344
55.68,234.682,34.0
55.72,231.488,33.943
55.75,229.803,33.771
55.78,229.242,33.313
55.82,227.628,33.072
55.85,225.276,33.084
55.88,223.1,32.774
55.91,221.346,32.121
55.95,219.591,31.571
55.98,217.801,31.251
56.01,215.695,30.93
56.04,213.379,30.632
56.08,211.484,30.346
56.11,209.799,29.968
56.14,207.553,29.578
56.17,204.781,29.131
56.21,202.184,28.708
56.24,200.253,28.318
56.27,198.393,27.997
56.3,196.358,27.814
56.34,194.638,27.585
56.37,192.638,27.299
56.4,190.111,26.943
56.43,186.952,26.577
56.47,184.25,26.21
56.5,182.355,25.775
56.53,180.389,25.282
56.56,178.003,25.007
56.6,175.616,24.71
56.63,173.23,24.263
56.66,170.457,23.736
56.69,167.474,23.301
56.73,164.807,22.854
56.76,161.964,22.27
56.79,159.016,21.811
56.82,156.595,21.525
56.86,154.454,21.124
56.89,151.857,20.54
56.92,148.453,19.887
56.95,144.978,19.474
56.99,142.381,19.016
57.02,139.749,18.134
57.05,136.275,17.756
57.09,133.502,17.733
57.12,130.835,17.195
57.15,128.133,17.0
57.18,126.273,16.771
57.22,124.202,16.141
57.25,120.447,15.202
57.28,115.112,14.102
57.31,110.199,13.552
57.35,107.146,13.254
57.38,104.654,12.704
57.41,101.53,12.177
57.44,98.232,11.811
57.48,95.143,11.284
57.51,91.844,10.654
57.54,88.475,10.047
57.57,85.106,9.462
57.61,81.596,8.844
57.64,77.841,8.237
57.67,73.911,7.687
57.7,70.12,7.183
57.74,66.4,6.667
57.77,62.68,6.289
57.8,59.171,6.003
57.83,56.152,5.636
57.87,52.924,5.224
57.9,49.66,4.846
57.93,46.536,4.41
57.96,43.413,3.872
58.0,39.868,3.356
58.03,36.113,2.933
58.06,32.393,2.486
58.09,28.638,2.073
58.13,24.988,1.821
58.16,21.443,1.604
58.19,17.969,1.363
58.22,14.389,1.077
58.26,10.634,0.894
58.29,7.019,0.733
58.32,2.843,0.722
58.36,0.246,0.447
58.39,-0.351,-0.55
58.42,-0.562,-1.925
58.45,-2.878,-3.15
58.49,-7.826,-4.044
58.52,-12.704,-4.937
58.55,-16.776,-5.865
58.58,-21.022,-6.484
58.62,-25.725,-6.77
58.65,-30.392,-7.022
58.68,-34.569,-7.263
58.71,-37.938,-7.446
58.75,-41.096,-7.687
58.78,-43.939,-7.996
58.81,-47.028,-8.351
58.84,-50.011,-8.649
58.88,-52.959,-9.038
58.91,-56.503,-9.508
58.94,-60.153,-9.966
58.97,-63.312,-10.402
59.01,-66.435,-10.86
59.04,-69.875,-11.238
59.07,-73.384,-11.65
59.1,-76.683,-12.109
59.14,-79.982,-12.681
59.17,-83.386,-13.243
59.2,-86.826,-13.827
59.23,-90.335,-14.423
59.27,-93.845,-14.995
59.3,-97.424,-15.454
59.33,-100.793,-15.843
59.36,-104.022,-16.267
59.4,-107.602,-16.714
59.43,-111.708,-16.966
59.46,-115.533,-17.229
59.49,-118.762,-17.619
59.53,-121.394,-17.951
59.56,-123.676,-18.352
59.59,-126.518,-18.856
59.63,-129.993,-19.383
59.66,-133.537,-19.978
59.69,-136.906,-20.528
59.72,-140.1,-21.009
59.76,-143.329,-21.514
59.79,-146.452,-21.766
59.82,-149.295,-22.006
59.85,-152.173,-22.281
59.89,-154.84,-22.396
59.92,-157.086,-22.533
59.95,-159.718,-23.129
59.98,-163.193,-23.713
60.02,-165.755,-23.805
60.05,-167.404,-24.137
60.08,-169.51,-24.71
60.11,-172.388,-25.191
60.15,-175.546,-25.592
60.18,-178.705,-26.119
60.21,-181.898,-26.806
60.24,-185.408,-27.264
60.28,-188.426,-27.47
60.31,-190.848,-27.757
60.34,-193.024,-27.974
60.37,-194.708,-28.055
60.41,-196.533,-28.181
60.44,-198.639,-28.398
60.47,-201.096,-28.753
60.5,-203.412,-28.983
60.54,-205.061,-29.143
60.57,-206.114,-29.361
60.6,-207.413,-29.739
60.63,-209.94,-30.197
60.67,-212.256,-30.002
60.7,-213.098,-30.036
60.73,-214.537,-30.632
60.76,-217.485,-31.193
60.8,-220.398,-31.411
60.83,-222.083,-31.675
60.86,-223.416,-32.179
60.9,-225.311,-32.362
60.93,-227.347,-32.431
60.96,-229.417,-32.637
60.99,-231.313,-32.9
61.03,-232.506,-33.049
61.06,-233.769,-33.427
61.09,-236.086,-33.748
61.12,-238.226,-33.656
61.16,-238.928,-33.817
61.19,-239.911,-34.275
61.22,-242.227,-34.504
61.25,-244.333,-34.596
61.29,-245.28,-35.077
61.32,-246.544,-35.604
61.35,-248.439,-35.73
61.38,-250.51,-35.856
61.42,-251.492,-36.2
61.45,-251.352,-36.921
61.48,-252.089,-37.551
61.51,-254.44,-38.021
61.55,-257.178,-38.514
61.58,-259.319,-39.029
61.61,-260.687,-39.235
61.64,-261.845,-39.258
61.68,-263.39,-39.315
61.71,-264.934,-39.487
61.74,-266.548,-39.648
61.77,-267.636,-39.705
61.81,-268.689,-39.911
61.84,-270.444,-39.968
61.87,-271.707,-40.014
61.9,-272.62,-40.381
61.94,-273.567,-40.667
61.97,-274.409,-40.828
62.0,-275.497,-40.976
62.04,-276.761,-41.16
62.07,-278.2,-41.286
62.1,-279.604,-41.377
62.13,-280.586,-41.366
62.17,-281.148,-41.412
62.2,-281.744,-41.4
62.23,-282.446,-41.103
62.26,-282.657,-41.091
62.3,-283.113,-41.458
62.33,-284.166,-41.469
62.36,-284.517,-41.423
62.39,-283.675,-41.95
62.43,-282.762,-42.66
62.46,-282.938,-42.912
62.49,-283.394,-42.729
62.52,-283.499,-42.752
62.56,-283.955,-43.222
62.59,-284.727,-43.336
62.62,-284.868,-43.325
62.65,-284.412,-43.417
62.69,-284.657,-43.565
62.72,-285.359,-43.268
62.75,-284.622,-42.58
62.78,-283.604,-42.649
62.82,-284.377,-42.809
62.85,-285.008,-42.454
62.88,-283.675,-42.168
62.91,-282.025,-42.134
62.95,-281.358,-41.755
62.98,-280.656,-41.206
63.01,-279.358,-40.999
63.04,-278.305,-40.965
63.08,-277.603,-40.85
63.11,-276.726,-40.782
63.14,-275.357,-40.77
63.17,-274.339,-40.587
63.21,-273.286,-40.106
63.24,-271.742,-39.636
63.27,-269.952,-39.293
63.31,-268.689,-39.098
63.34,-267.776,-39.041
63.37,-267.145,-38.995
63.4,-265.601,-38.949
63.44,-263.425,-38.926
63.47,-261.389,-38.525
63.5,-259.705,-38.01
63.53,-258.055,-37.723
63.57,-256.265,-37.677
63.6,-254.651,-37.654
63.63,-253.352,-37.563
63.66,-252.159,-37.46
63.7,-250.826,-37.334
63.73,-249.141,-36.761
63.76,-246.509,-36.234
63.79,-245.21,-36.497
63.83,-245.421,-36.28
63.86,-244.263,-35.695
63.89,-241.174,-35.421
63.92,-238.577,-35.249
63.96,-237.454,-34.917
63.99,-236.577,-34.493
64.02,-234.682,-34.115
64.05,-231.769,-33.759
64.09,-229.663,-33.725
64.12,-228.996,-33.53
64.15,-228.014,-33.084
64.18,-225.838,-32.797
64.22,-223.592,-32.602
64.25,-221.416,-32.041
64.28,-219.17,-31.457
64.31,-217.274,-31.136
64.35,-215.555,-30.781
64.38,-213.379,-30.357
64.41,-210.431,-30.174
64.44,-207.834,-30.197
64.48,-205.904,-29.991
64.51,-204.254,-29.498
64.54,-202.043,-29.109
64.58,-199.692,-28.902
64.61,-197.902,-28.616
64.64,-196.323,-28.341
64.67,-194.498,-28.123
64.71,-192.497,-27.871
64.74,-190.181,-27.436
64.77,-187.654,-26.852
64.8,-185.233,-26.325
64.84,-182.741,-25.786
64.87,-180.038,-25.294
64.9,-177.371,-24.996
64.93,-175.371,-24.675
64.97,-173.335,-24.16
65.0,-170.668,-23.587
65.03,-167.545,-23.094
65.06,-164.526,-22.613
65.1,-161.859,-22.098
65.13,-158.946,-21.582
65.16,-156.244,-21.296
65.19,-153.787,-20.929
65.23,-151.015,-20.276
65.26,-147.575,-19.761
65.29,-144.136,-19.417
65.32,-141.083,-18.844
65.36,-138.766,-18.569
65.39,-137.187,-18.443
65.42,-135.678,-18.226
65.45,-133.327,-17.779
65.49,-129.677,-16.908
65.52,-125.746,-16.313
65.55,-122.342,-15.774
65.58,-119.464,-15.098
65.62,-115.99,-14.319
65.65,-111.884,-13.735
65.68,-108.163,-13.288
65.71,-104.97,-12.727
65.75,-101.671,-12.074
65.78,-97.845,-11.639
65.81,-94.02,-11.169
65.85,-90.44,-10.596
65.88,-86.931,-10.069
65.91,-83.737,-9.577
65.94,-80.193,-9.05
65.98,-76.437,-8.58
66.01,-72.752,-8.122
66.04,-69.453,-7.744
66.07,-66.19,-7.332
66.11,-62.926,-6.85
66.14,-59.557,-6.358
66.17,-56.363,-6.014
66.2,-53.415,-5.613
66.24,-50.291,-5.086
66.27,-46.817,-4.548
66.3,-43.167,-4.124
66.33,-39.517,-3.677
66.37,-35.867,-3.162
66.4,-31.831,-2.818
66.43,-28.217,-2.474
66.46,-24.812,-2.073
66.5,-21.268,-1.707
66.53,-17.407,-1.443
66.56,-13.477,-1.203
66.59,-9.511,-0.962
66.63,-5.58,-0.733
66.66,-1.509,-0.733
66.69,0.105,-0.378
66.72,0.491,0.573
66.76,0.772,1.936
66.79,3.334,3.253
66.82,8.423,4.055
66.85,13.161,4.96
66.89,17.302,5.968
66.92,21.548,6.495
66.95,25.69,6.598
66.98,29.48,6.908
67.02,33.235,7.251
67.05,36.71,7.503
67.08,39.973,7.836
67.12,43.553,8.282
67.15,47.133,8.58
67.18,50.291,8.947
67.21,53.38,9.462
67.25,56.854,9.978
67.28,60.574,10.459
67.31,64.259,10.974
67.34,67.874,11.467
67.38,71.629,11.925
67.41,75.314,12.28
67.44,78.754,12.509
67.47,81.912,12.819
67.51,85.071,13.3
67.54,88.58,13.644
67.57,92.02,13.976
67.6,95.213,14.308
67.64,98.161,14.594
67.67,100.969,14.927
67.7,103.847,15.328
67.73,107.005,15.74
67.77,110.41,16.278
67.8,114.059,16.759
67.83,117.393,17.264
67.86,120.587,17.722
67.9,123.605,18.042
67.93,126.413,18.501
67.96,129.396,19.131
67.99,132.835,19.658
68.03,136.134,20.173
68.06,139.398,20.689
68.09,143.118,21.307
68.12,146.312,21.307
68.16,148.242,21.445
68.19,150.172,21.685
68.22,153.191,22.315
68.25,157.858,23.071
68.29,161.578,23.278
68.32,163.544,23.679
68.35,165.755,24.228
68.39,168.843,24.492
68.42,172.037,24.549
68.45,174.423,24.801
68.48,176.564,25.076
68.52,178.845,25.397
68.55,181.653,25.832
68.58,184.531,26.279
68.61,187.022,26.749
68.65,189.304,27.161
68.68,191.655,27.436
68.71,194.112,27.642
68.74,196.358,27.883
68.78,198.534,28.238
68.81,200.955,28.559
68.84,203.552,28.811
68.87,205.904,29.051
68.91,207.904,29.326
68.94,209.413,29.338
68.97,210.08,29.051
69.0,211.484,29.498
69.04,214.818,30.071
69.07,217.976,30.254
69.1,219.591,30.586
69.13,220.679,30.987
69.17,222.293,31.216
69.2,224.188,31.274
69.23,225.943,31.675
69.26,227.171,31.904
69.3,228.294,32.167
69.33,230.014,32.465
69.36,232.33,32.786
69.39,234.927,33.095
69.43,235.91,33.404
69.46,235.313,33.817
69.49,235.699,34.264
69.52,238.191,34.664
69.56,241.315,35.02
69.59,243.28,35.547
69.62,244.649,36.085
69.66,246.579,36.44
69.69,248.965,36.6
69.72,250.685,36.646
69.75,251.633,36.83
69.79,253.107,37.082
69.82,255.458,37.265
69.85,257.564,37.505
69.88,259.354,37.757
69.92,260.406,38.01
69.95,261.389,38.296
69.98,262.512,38.319
70.01,263.741,38.365
70.05,265.074,38.605
70.08,266.583,38.892
70.11,267.847,39.006
70.14,268.759,39.201
70.18,270.023,39.567
70.21,271.567,39.831
70.24,273.006,39.957
70.27,274.445,40.106
70.31,275.638,40.255
70.34,276.726,40.427
70.37,278.024,40.564
70.4,279.077,40.724
70.44,278.867,41.297
70.47,278.761,41.95
70.5,279.393,41.996
70.53,279.709,41.973
70.57,280.025,41.996
70.6,280.411,41.985
70.63,281.113,42.225
70.66,282.201,42.42
70.7,282.727,42.523
70.73,283.113,42.775
70.76,284.236,42.798
70.79,285.078,42.592
70.83,284.938,42.615
70.86,285.078,42.844
70.89,285.71,42.821
70.93,286.061,42.683
70.96,285.991,42.626
70.99,286.131,42.764
71.02,286.412,42.477
71.06,285.991,42.202
71.09,285.359,42.156
71.12,285.008,41.985
71.15,284.622,41.893
71.19,284.552,42.214
71.22,284.622,42.076
71.25,283.64,41.618
71.28,282.13,41.251
71.32,280.867,40.873
71.35,280.235,40.495
71.38,279.288,39.957
71.41,277.252,40.072
71.45,275.357,40.461
71.48,274.374,40.461
71.51,273.637,40.266
71.54,272.269,40.209
71.58,270.795,40.072
71.61,269.25,39.819
71.64,268.373,39.59
71.67,267.531,39.464
71.71,266.127,39.464
71.74,264.548,39.419
71.77,263.214,39.235
71.8,261.951,38.88
71.84,260.301,38.525
71.87,258.582,38.273
71.9,257.248,38.067
71.93,256.02,37.757
71.97,254.581,37.609
72.0,253.352,37.54
72.03,251.808,37.391
72.06,250.089,36.967
72.1,247.913,36.44
72.13,246.614,36.417
72.16,246.053,36.085
72.2,244.473,35.478
72.23,241.701,35.123
72.26,239.911,35.226
72.29,240.157,35.524
72.33,240.718,35.409
72.36,239.174,35.123
72.39,236.542,35.054
72.42,234.892,34.836
72.46,233.875,34.367
72.49,231.979,34.069
72.52,229.698,33.805
72.55,227.592,33.29
72.59,225.697,32.74
72.62,223.662,32.35
72.65,220.819,31.663
72.68,216.888,30.667
72.72,213.695,30.266
72.75,212.326,30.151
72.78,211.028,29.635
72.81,207.939,29.269
72.85,205.026,29.464
72.88,204.184,29.75
72.91,204.289,29.521
72.94,203.061,29.338
72.98,200.955,29.372
73.01,199.692,29.383
73.04,198.534,28.708
73.07,195.761,27.711
73.11,192.287,27.058
73.14,189.444,26.439
73.17,186.987,25.638
73.2,183.653,24.996
73.24,180.003,24.607
73.27,177.266,24.228
73.3,174.704,23.518
73.33,170.984,22.636
73.37,166.843,22.189
73.4,163.368,21.949
73.43,160.42,21.41
73.47,157.332,20.952
73.5,154.63,20.906
73.53,152.594,20.792
73.56,150.243,20.196
73.6,146.663,19.474
73.63,143.118,19.177
73.66,140.802,18.844
73.69,138.766,18.283
73.73,135.854,17.882
73.76,132.906,17.699
73.79,130.484,17.435
73.82,127.817,16.748
73.86,124.413,16.038
73.89,120.973,15.511
73.92,117.78,14.961
73.95,114.586,14.354
73.99,111.111,13.827
74.02,107.918,13.495
74.05,105.391,12.899
74.08,101.987,12.017
74.12,97.214,11.261
74.15,92.441,10.677
74.18,88.335,10.081
74.21,84.755,9.462
74.25,81.245,8.89
74.28,77.771,8.58
74.31,74.472,8.248
74.34,71.138,7.744
74.38,67.348,7.183
74.41,63.733,6.805
74.44,61.031,6.346
74.47,58.434,5.785
74.51,55.24,5.281
74.54,51.765,4.995
74.57,48.466,4.708
74.6,45.132,4.204
74.64,41.237,3.62
74.67,37.482,3.196
74.7,34.148,2.784
74.74,30.533,2.303
74.77,26.532,1.959
74.8,22.917,1.799
74.83,19.583,1.558
74.87,16.074,1.294
74.9,12.213,0.985
74.93,8.247,0.687
74.96,3.79,0.515
75.0,0.421,0.355
75.03,-0.281,-0.47
75.06,-0.351,-1.558
75.09,-1.614,-2.658
75.13,-6.107,-3.803
75.16,-11.792,-4.937
75.19,-15.793,-5.075
75.22,-17.267,-5.27
75.26,-20.811,-6.61
75.29,-26.532,-6.805
75.32,-30.533,-6.484
75.35,-32.919,-7.102
75.39,-36.464,-7.732
75.42,-40.64,-7.721
75.45,-44.08,-7.859
75.48,-47.238,-8.454
75.52,-50.362,-8.626
75.55,-52.924,-8.672
75.58,-55.486,-9.061
75.61,-58.714,-9.657
75.65,-62.259,-10.047
75.68,-65.347,-10.528
75.71,-68.611,-11.123
75.74,-72.086,-11.662
75.78,-75.7,-12.166
75.81,-79.315,-12.739
75.84,-83.0,-13.414
75.87,-86.966,-14.056
75.91,-91.037,-14.491
75.94,-94.652,-14.881
75.97,-97.951,-15.259
76.01,-101.425,-15.522
76.04,-104.549,-15.74
76.07,-107.076,-16.129
76.1,-109.532,-16.656
76.14,-112.796,-17.195
76.17,-116.306,-17.676
76.2,-119.499,-17.939
76.23,-122.026,-18.317
76.27,-124.553,-18.879
76.3,-127.641,-19.326
76.33,-131.151,-19.726
76.36,-134.52,-20.322
76.4,-138.17,-20.861
76.43,-142.241,-21.17
76.46,-145.645,-21.422
76.49,-148.523,-21.697
76.53,-151.295,-22.063
76.56,-154.173,-22.361
76.59,-157.121,-22.613
76.62,-159.789,-23.037
76.66,-162.666,-23.507
76.69,-165.369,-23.873
76.72,-167.931,-24.183
76.75,-170.633,-24.538
76.79,-173.511,-24.881
76.82,-175.967,-25.133
76.85,-178.003,-25.512
76.88,-180.46,-26.164
76.92,-183.723,-26.68
76.95,-186.707,-26.989
76.98,-189.128,-27.299
77.01,-191.55,-27.596
77.05,-193.971,-27.745
77.08,-195.901,-27.917
77.11,-197.762,-28.181
77.14,-200.253,-28.478
77.18,-202.991,-28.65
77.21,-204.956,-28.857
77.24,-206.395,-29.04
77.28,-208.044,-29.2
77.31,-209.589,-29.315
77.34,-211.203,-29.578
77.37,-212.782,-29.933
77.41,-214.467,-30.369
77.44,-216.397,-30.85
77.47,-218.503,-31.251
77.5,-220.187,-31.549
77.54,-221.661,-31.846
77.57,-223.381,-32.007
77.6,-225.206,-32.305
77.63,-227.312,-32.797
77.67,-229.768,-33.175
77.7,-231.979,-33.462
77.73,-234.015,-33.908
77.76,-236.296,-34.149
77.8,-238.261,-34.378
77.83,-239.771,-34.71
77.86,-241.245,-34.882
77.89,-243.21,-35.134
77.93,-245.877,-35.398
77.96,-248.193,-35.569
77.99,-249.597,-35.753
78.02,-250.439,-36.005
78.06,-251.773,-36.062
78.09,-253.528,-36.005
78.12,-255.002,-36.154
78.15,-255.914,-36.532
78.19,-257.143,-36.887
78.22,-258.862,-37.07
78.25,-260.687,-37.265
78.28,-262.302,-37.299
78.32,-262.828,-37.276
78.35,-263.144,-37.437
78.38,-264.618,-37.597
78.41,-266.443,-37.735
78.45,-267.566,-37.964
78.48,-268.513,-38.239
78.51,-268.829,-38.731
78.55,-268.794,-39.728
78.58,-269.742,-40.381
78.61,-270.795,-40.587
78.64,-271.532,-41.057
78.68,-273.181,-41.423
78.71,-274.936,-41.526
78.74,-276.129,-42.053
78.77,-278.024,-42.408
78.81,-279.568,-42.305
78.84,-280.341,-42.42
78.87,-281.499,-42.431
78.9,-282.306,-42.053
78.94,-282.446,-41.962
78.97,-282.762,-42.191
79.0,-283.218,-42.328
79.03,-283.745,-42.26
79.07,-284.026,-42.214
79.1,-284.201,-42.363
79.13,-284.727,-42.317
79.16,-284.622,-42.122
79.2,-284.763,-42.122
79.23,-285.605,-42.042
79.26,-285.675,-42.111
79.29,-285.5,-42.34
79.33,-285.815,-42.408
79.36,-286.342,-42.214
79.39,-285.78,-42.134
79.42,-283.78,-42.237
79.46,-282.271,-42.466
79.49,-282.797,-42.603
79.52,-283.92,-42.557
79.55,-283.64,-42.534
79.59,-282.06,-42.534
79.62,-280.621,-42.26
79.65,-280.2,-41.801
79.68,-279.99,-41.4
79.72,-279.147,-41.251
79.75,-278.024,-41.309
79.78,-277.077,-41.263
79.82,-276.445,-41.091
79.85,-275.813,-40.805
79.88,-274.374,-40.346
79.91,-271.883,-39.911
79.95,-269.812,-39.625
79.98,-269.25,-39.361
80.01,-269.391,-39.167
80.04,-268.478,-39.063
80.08,-266.197,-39.041
80.11,-264.091,-38.88
80.14,-262.723,-38.365
80.17,-261.494,-37.815
80.21,-259.915,-37.505
80.24,-257.915,-37.345
80.27,-256.055,-37.173
80.3,-254.686,-36.921
80.34,-253.563,-36.772
80.37,-252.475,-36.543
80.4,-250.124,-36.2
80.43,-247.316,-36.051
80.47,-245.807,-36.028
80.5,-245.351,-35.948
80.53,-244.473,-35.867
80.56,-242.543,-35.913
80.6,-240.648,-35.913
80.63,-239.384,-35.627
80.66,-238.051,-34.974
80.69,-235.84,-34.447
80.73,-233.313,-34.183
80.76,-231.172,-33.84
80.79,-229.172,-33.45
80.82,-227.066,-33.095
80.86,-224.68,-32.511
80.89,-222.469,-32.133
80.92,-220.609,-31.835
80.95,-218.573,-31.457
80.99,-216.151,-31.159
81.02,-214.081,-31.022
81.05,-212.537,-30.85
81.09,-211.273,-30.506
81.12,-209.483,-30.243
81.15,-207.272,-30.025
81.18,-204.64,-29.532
81.22,-202.043,-29.051
81.25,-199.973,-28.822
81.28,-198.218,-28.616
81.31,-196.463,-28.33
81.35,-194.357,-28.123
81.38,-192.146,-27.974
81.41,-190.321,-27.551
81.44,-188.391,-26.898
81.48,-185.864,-26.302
81.51,-183.337,-25.729
81.54,-180.705,-25.133
81.57,-177.863,-24.847
81.61,-175.581,-24.538
81.64,-173.651,-24.022
81.67,-171.054,-23.541
81.7,-168.036,-23.106
81.74,-165.158,-22.579
81.77,-162.386,-22.052
81.8,-159.473,-21.514
81.83,-156.876,-21.376
81.87,-154.945,-20.952
81.9,-152.068,-20.082
81.93,-148.312,-19.658
81.96,-145.049,-19.291
82.0,-142.416,-18.856
82.03,-140.03,-18.363
82.06,-137.257,-17.951
82.09,-134.274,-17.527
82.13,-131.502,-17.241
82.16,-128.905,-16.828
82.19,-126.132,-16.233
82.22,-122.939,-15.637
82.26,-119.464,-15.075
82.29,-115.884,-14.48
82.32,-112.445,-14.022
82.36,-109.497,-13.632
82.39,-107.111,-13.071
82.42,-104.268,-12.349
82.45,-100.653,-11.73
82.49,-96.512,-11.009
82.52,-92.195,-10.218
82.55,-87.843,-9.588
82.58,-83.878,-9.153
82.62,-80.473,-8.637
82.65,-77.069,-8.111
82.68,-73.279,-7.721
82.71,-69.769,-7.332
82.75,-66.365,-6.816
82.78,-63.171,-6.427
82.81,-60.294,-6.129
82.84,-57.451,-5.705
82.88,-53.976,-5.27
82.91,-50.151,-4.892
82.94,-46.712,-4.365
82.97,-43.343,-3.735
83.01,-39.552,-3.162
83.04,-35.657,-2.635
83.07,-31.48,-2.222
83.1,-27.725,-1.925
83.14,-24.181,-1.65
83.17,-20.706,-1.386
83.2,-17.021,-1.168
83.23,-13.091,-0.951
83.27,-9.125,-0.779
83.3,-5.229,-0.745
83.33,-1.439,-0.813
83.36,0.14,-0.378
83.4,0.491,0.653
83.43,0.702,1.913
83.46,3.123,3.093
83.49,8.072,3.964
83.53,12.915,4.88
83.56,17.091,5.819
83.59,21.408,6.369
83.63,25.9,6.656
83.66,30.428,7.034
83.69,34.499,7.263
83.72,37.411,7.297
83.76,39.763,7.561
83.79,42.886,8.019
83.82,46.747,8.385
83.85,50.362,8.718
83.89,53.696,9.142
83.92,57.065,9.634
83.95,60.539,10.047
83.98,63.768,10.528
84.02,66.891,11.078
84.05,70.19,11.616
84.08,73.84,12.04
84.11,77.35,12.406
84.15,80.544,12.899
84.18,83.807,13.518
84.21,87.598,13.976
84.24,91.212,14.457
84.28,94.406,14.892
84.31,97.354,15.328
84.34,100.443,15.728
84.37,103.847,16.152
84.41,107.637,16.565
84.44,111.743,16.966
84.47,115.323,17.252
84.5,118.411,17.584
84.54,121.043,17.882
84.57,123.64,18.249
84.6,126.518,18.547
84.63,129.958,19.154
84.67,133.081,19.429
84.7,135.783,19.772
84.73,138.696,20.414
84.76,142.697,21.09
84.8,146.487,21.273
84.83,149.295,21.685
84.86,151.927,22.086
84.9,154.489,22.292
84.93,156.911,22.556
84.96,159.508,22.968
84.99,162.737,23.495
85.03,165.755,23.862
85.06,168.422,24.286
85.09,171.089,24.572
85.12,173.897,24.836
85.16,176.599,25.099
85.19,179.196,25.523
85.22,181.793,26.038
85.25,184.285,26.508
85.29,186.707,26.989
85.32,189.514,27.574
85.35,192.708,27.963
85.38,195.2,28.089
85.42,196.779,28.318
85.45,198.99,28.662
85.48,201.903,28.879
85.51,204.43,29.028
85.55,206.325,29.212
85.58,208.115,29.361
85.61,209.378,29.303
85.64,210.185,29.372
85.68,211.589,29.567
85.71,213.765,29.842
85.74,216.222,30.208
85.77,218.433,30.701
85.81,220.258,31.182
85.84,222.083,31.594
85.87,223.557,31.663
85.9,225.136,31.789
85.94,227.242,32.087
85.97,229.347,32.35
86.0,231.067,32.58
86.03,232.471,32.751
86.07,234.05,33.221
86.1,236.366,33.576
86.13,238.332,33.439
86.17,239.209,33.507
86.2,240.472,33.954
86.23,242.894,34.286
86.26,245.21,34.435
86.3,246.93,34.848
86.33,248.579,35.329
86.36,250.439,35.398
86.39,251.001,35.466
86.43,250.475,36.234
86.46,251.703,36.933
86.49,254.37,37.276
86.52,256.686,37.861
86.56,258.371,38.582
86.59,259.669,38.983
86.62,261.073,39.041
86.65,262.793,39.109
86.69,264.407,39.155
86.72,265.741,39.235
86.75,266.969,39.361
86.78,268.092,39.43
86.82,269.18,39.545
86.85,270.619,39.762
86.88,271.848,39.945
86.91,272.971,40.175
86.95,273.567,40.163
86.98,274.304,40.22
87.01,275.462,40.289
87.04,276.55,40.289
87.08,277.322,40.507
87.11,278.094,40.885
87.14,279.007,41.068
87.17,279.849,40.976
87.21,280.341,40.919
87.24,280.586,41.183
87.27,281.674,41.24
87.3,282.797,41.286
87.34,283.78,41.595
87.37,284.412,41.423
87.4,284.236,41.847
87.44,283.85,42.374
87.47,283.955,42.615
87.5,284.306,42.523
87.53,284.201,42.374
87.57,284.201,42.58
87.6,284.587,42.66
87.63,284.833,42.718
87.66,285.008,42.844
87.7,285.359,42.832
87.73,285.535,42.752
87.76,285.359,42.718
87.79,285.078,42.66
87.83,285.078,42.626
87.86,284.903,42.557
87.89,284.271,42.363
87.92,283.324,41.985
87.96,282.13,41.561
87.99,281.253,41.194
88.02,280.235,40.782
88.05,278.831,40.553
88.09,277.779,40.679
88.12,277.603,40.598
88.15,276.866,40.301
88.18,275.392,40.026
88.22,273.567,39.636
88.25,271.777,39.121
88.28,269.882,38.708
88.31,268.198,38.525
88.35,267.25,38.41
88.38,266.267,38.284
88.41,264.899,38.25
88.44,263.179,38.17
88.48,260.793,38.021
88.51,258.301,37.861
88.54,256.616,37.769
88.57,255.704,37.563
88.61,254.37,37.402
88.64,252.37,37.402
88.67,250.966,37.448
88.71,250.334,37.208
88.74,249.176,36.979
88.77,247.702,36.921
88.8,246.053,36.566
88.84,244.473,36.326
88.87,244.017,36.566
88.9,243.701,36.463
88.93,241.982,35.936
88.97,239.314,35.661
89.0,237.454,35.386
89.03,236.191,34.79
89.06,234.436,34.195
89.1,231.699,33.599
89.13,228.435,33.015
89.16,226.013,32.568
89.19,224.96,32.27
89.23,223.521,32.121
89.26,220.924,31.709
89.29,217.731,31.445
89.32,215.765,31.571
89.36,215.063,31.537
89.39,214.046,31.159
89.42,211.975,30.85
89.45,209.659,30.632
89.49,207.588,30.162
89.52,204.886,29.361
89.55,201.517,28.662
89.58,198.218,28.078
89.62,195.164,27.344
89.65,192.322,26.749
89.68,189.619,26.485
89.71,187.303,26.371
89.75,185.303,26.268
89.78,183.513,26.004
89.81,181.898,25.764
89.84,180.354,25.569
89.88,178.564,25.328
89.91,176.599,25.122
89.94,174.704,24.916
89.98,172.704,24.71
90.01,170.738,24.412
90.04,168.738,23.908
90.07,166.667,23.598
90.11,164.175,22.785
90.14,160.21,21.8
90.17,156.244,21.284
90.2,153.366,20.757
90.24,151.576,20.609
90.27,149.751,19.967
90.3,146.242,19.429
90.33,142.276,18.982
90.37,138.907,18.558
90.4,136.696,18.214
90.43,134.59,17.481
90.46,131.607,17.034
90.5,128.484,16.611
90.53,125.22,16.015
90.56,122.131,15.465
90.59,119.043,14.972
90.63,115.779,14.331
90.66,112.024,13.621
90.69,108.234,13.254
90.72,104.9,12.819
90.76,101.355,12.097
90.79,97.319,11.456
90.82,93.423,10.974
90.85,89.914,10.47
90.89,86.615,9.932
90.92,83.351,9.474
90.95,79.947,9.038
90.98,76.437,8.569
91.02,73.174,8.191
91.05,70.19,7.79
91.08,67.032,7.274
91.11,63.487,6.782
91.15,59.872,6.392
91.18,56.503,5.957
91.21,53.275,5.464
91.25,49.835,5.052
91.28,46.606,4.708
91.31,43.588,4.239
91.34,40.324,3.712
91.38,36.499,3.288
91.41,32.674,2.978
91.44,29.34,2.543
91.47,25.795,2.154
91.51,22.285,1.879
91.54,18.987,1.65
91.57,15.547,1.283
91.6,11.406,0.974
91.64,7.159,0.779
91.67,2.562,0.653
91.7,0.035,0.241
91.73,-0.351,-0.939
91.77,-0.807,-2.337
91.8,-3.755,-3.356
91.83,-8.528,-4.135
91.86,-13.055,-5.155
91.9,-17.162,-5.945
91.93,-21.162,-6.209
91.96,-24.918,-6.323
91.99,-28.252,-6.575
92.03,-31.305,-6.805
92.06,-34.323,-7.137
92.09,-37.868,-7.744
92.12,-41.763,-8.282
92.16,-45.589,-8.718
92.19,-49.554,-9.382
92.22,-54.117,-9.943
92.25,-58.258,-10.321
92.29,-62.013,-10.734
92.32,-65.593,-11.352
92.35,-69.524,-11.925
92.38,-72.998,-12.143
92.42,-75.876,-12.441
92.45,-79.28,-12.773
92.48,-83.246,-13.162
92.52,-87.177,-13.472
92.55,-90.3,-13.632
92.58,-92.897,-13.999
92.61,-95.564,-14.354
92.65,-98.477,-14.64
92.68,-101.355,-14.961
92.71,-104.268,-15.419
92.74,-107.321,-15.832
92.78,-110.304,-16.301
92.81,-113.463,-16.851
92.84,-117.323,-17.447
92.87,-120.798,-17.71
92.91,-123.43,-18.054
92.94,-125.887,-18.34
92.97,-129.115,-19.016
93.0,-133.011,-19.52
93.04,-136.626,-20.093
93.07,-139.854,-20.631
93.1,-142.522,-20.929
93.13,-145.259,-21.342
93.17,-148.383,-21.685
93.2,-151.471,-22.063
93.23,-154.524,-22.476
93.26,-157.472,-22.9
93.3,-160.28,-23.278
93.33,-163.123,-23.713
93.36,-166.316,-24.32
93.39,-169.51,-24.652
93.43,-172.002,-24.79
93.46,-174.072,-25.191
93.49,-176.634,-25.523
93.52,-179.442,-25.809
93.56,-182.214,-26.29
93.59,-185.233,-26.817
93.62,-188.426,-27.23
93.65,-190.883,-27.436
93.69,-192.673,-27.608
93.72,-194.533,-27.848
93.75,-196.428,-28.032
93.79,-198.253,-28.284
93.82,-200.359,-28.685
93.85,-202.956,-29.074
93.88,-205.447,-29.372
93.92,-207.097,-29.464
93.95,-208.255,-29.509
93.98,-209.694,-29.67
94.01,-211.449,-29.83
94.05,-212.993,-30.002
94.08,-214.607,-30.392
94.11,-216.818,-30.77
94.14,-219.029,-31.171
94.18,-221.1,-31.445
94.21,-222.539,-31.663
94.24,-224.153,-31.915
94.27,-226.189,-32.03
94.31,-228.154,-32.133
94.34,-229.733,-32.362
94.37,-231.523,-32.832
94.4,-234.085,-33.141
94.44,-236.191,-33.611
94.47,-237.384,-34.16
94.5,-238.367,-34.664
94.53,-239.665,-34.653
94.57,-240.753,-34.722
94.6,-241.982,-35.295
94.63,-243.947,-35.948
94.66,-246.474,-36.497
94.7,-248.474,-36.715
94.73,-249.808,-36.933
94.76,-251.106,-37.242
94.79,-253.001,-37.471
94.83,-254.897,-37.574
94.86,-256.511,-37.838
94.89,-258.16,-38.101
94.92,-259.775,-38.262
94.96,-261.214,-38.388
94.99,-262.617,-38.514
95.02,-263.986,-38.617
95.06,-265.46,-38.731
95.09,-266.653,-38.846
95.12,-267.39,-38.972
95.15,-268.478,-39.212
95.19,-270.093,-39.304
95.22,-271.532,-39.361
95.25,-272.69,-39.728
95.28,-274.269,-39.968
95.32,-275.568,-39.968
95.35,-276.515,-40.094
95.38,-277.744,-40.301
95.41,-278.2,-40.656
95.45,-277.708,-41.515
95.48,-277.708,-42.099
95.51,-278.41,-42.145
95.54,-279.112,-42.019
95.58,-279.147,-42.191
95.61,-279.393,-42.512
95.64,-280.692,-42.786
95.67,-282.271,-42.786
95.71,-282.727,-42.557
95.74,-282.622,-43.187
95.77,-283.815,-43.68
95.8,-285.008,-43.279
95.84,-284.938,-43.027
95.87,-285.114,-43.313
95.9,-286.061,-43.348
95.93,-286.412,-43.199
95.97,-286.272,-43.279
96.0,-286.588,-43.256
96.03,-286.763,-42.924
96.06,-286.342,-42.649
96.1,-285.605,-42.374
96.13,-285.008,-42.099
96.16,-284.517,-41.985
96.19,-284.166,-41.904
96.23,-283.499,-41.755
96.26,-282.762,-41.526
96.29,-281.604,-41.274
96.33,-280.2,-40.965
96.36,-278.937,-40.541
96.39,-277.779,-40.301
96.42,-276.585,-40.644
96.46,-275.603,-40.965
96.49,-274.129,-40.816
96.52,-272.269,-40.724
96.55,-271.497,-40.53
96.59,-271.005,-40.129
96.62,-269.356,-39.751
96.65,-267.285,-39.728
96.68,-266.338,-39.716
96.72,-266.267,-39.441
96.75,-265.53,-39.167
96.78,-263.67,-38.96
96.81,-261.003,-38.594
96.85,-258.582,-38.204
96.88,-257.283,-37.872
96.91,-256.546,-37.551
96.94,-255.072,-37.322
96.98,-253.072,-37.219
97.01,-251.527,-37.082
97.04,-250.475,-36.772
97.07,-248.895,-36.383
97.11,-246.509,-36.165
97.14,-244.508,-36.085
97.17,-243.596,-35.753
97.2,-242.543,-35.363
97.24,-240.823,-35.18
97.27,-239.209,-35.363
97.3,-237.946,-35.26
97.33,-236.226,-34.722
97.37,-233.839,-34.367
97.4,-231.664,-34.126
97.43,-229.874,-33.656
97.46,-227.873,-33.278
97.5,-226.013,-33.107
97.53,-224.434,-32.923
97.56,-222.644,-32.488
97.6,-220.468,-32.041
97.63,-218.327,-31.686
97.66,-216.327,-31.4
97.69,-214.362,-31.125
97.73,-212.537,-30.815
97.76,-210.466,-30.54
97.79,-208.711,-30.266
97.82,-206.886,-29.762
97.86,-204.289,-29.338
97.89,-201.727,-29.051
97.92,-199.657,-28.753
97.95,-197.867,-28.421
97.99,-196.147,-28.261
98.02,-194.147,-28.043
98.05,-191.725,-27.78
98.08,-189.514,-27.367
98.12,-187.514,-26.703
98.15,-185.162,-26.13
98.18,-182.285,-25.603
98.21,-179.407,-25.099
98.25,-176.985,-24.836
98.28,-175.195,-24.446
98.31,-172.984,-23.885
98.34,-170.001,-23.381
98.38,-166.562,-22.911
98.41,-163.614,-22.522
98.44,-160.876,-21.972
98.47,-158.49,-21.536
98.51,-156.384,-21.158
98.54,-154.314,-20.906
98.57,-151.576,-20.276
98.6,-148.172,-19.852
98.64,-145.329,-19.44
98.67,-142.873,-19.028
98.7,-140.451,-18.695
98.73,-137.468,-18.168
98.77,-134.309,-17.756
98.8,-131.642,-17.332
98.83,-129.431,-16.851
98.87,-127.22,-16.576
98.9,-125.009,-16.336
98.93,-121.851,-15.625
98.96,-117.85,-14.869
99.0,-114.095,-14.331
99.03,-111.182,-13.77
99.06,-108.023,-12.979
99.09,-103.777,-12.2
99.13,-99.039,-11.536
99.16,-94.617,-10.871
99.19,-90.826,-10.15
99.22,-87.071,-9.508
99.26,-83.492,-8.935
99.29,-79.596,-8.477
99.32,-75.735,-8.065
99.35,-71.945,-7.687
99.39,-68.436,-7.309
99.42,-65.067,-6.85
99.45,-61.803,-6.346
99.48,-58.504,-5.9
99.52,-55.17,-5.579
99.55,-52.257,-5.189
99.58,-49.239,-4.708
99.61,-46.08,-4.296
99.65,-42.711,-3.861
99.68,-39.342,-3.322
99.71,-35.797,-2.852
99.74,-31.972,-2.52
99.78,-28.427,-2.142
99.81,-24.637,-1.787
99.84,-20.917,-1.569
99.87,-17.442,-1.42
99.91,-13.898,-1.191
99.94,-10.037,-0.894
99.97,-6.036,-0.79
100.0,-2.281,-0.939
100.04,-0.14,-0.836
100.07,0.421,0.103
100.1,0.491,1.18
100.14,1.404,2.486
100.17,5.65,3.735
100.2,11.581,4.777
100.23,16.881,5.831
100.27,21.373,6.633
100.3,25.69,6.908
100.33,29.761,7.217
100.36,34.148,7.652
100.4,38.394,7.698
100.43,41.483,7.698
100.46,44.22,8.111
100.49,47.8,8.592
100.53,51.485,8.741
100.56,54.608,9.038
100.59,57.697,9.565
100.62,61.206,9.966
100.66,64.47,10.333
100.69,67.488,10.734
100.72,70.331,11.135
100.75,73.419,11.536
100.79,76.718,11.96
100.82,80.122,12.487
100.85,83.527,13.128
100.88,86.966,13.747
100.92,90.475,14.319
100.95,93.915,14.812
100.98,97.284,15.259
101.01,100.653,15.683
101.05,104.128,16.061
101.08,107.602,16.507
101.11,110.831,17.034
101.14,114.375,17.447
101.18,117.78,17.79
101.21,120.833,18.168
101.24,123.395,18.501
101.27,125.887,18.993
101.31,129.221,19.463
101.34,132.87,19.967
101.37,136.31,20.494
101.41,139.644,21.113
101.44,143.82,21.754
101.47,147.435,21.685
101.5,149.927,22.006
101.54,152.243,22.224
101.57,154.524,22.304
101.6,157.086,22.693
101.63,160.175,23.06
101.67,163.087,23.438
101.7,165.404,23.793
101.73,167.685,24.228
101.76,170.528,24.595
101.8,173.476,24.836
101.83,175.967,25.076
101.86,178.284,25.638
101.89,181.302,26.359
101.93,185.057,26.829
101.96,188.075,27.173
101.99,189.97,27.562
102.02,191.69,27.837
102.06,194.006,27.986
102.09,196.814,28.078
102.12,199.481,28.272
102.15,201.552,28.41
102.19,202.85,28.524
102.22,204.57,29.051
102.25,207.307,29.498
102.28,209.518,29.441
102.32,210.08,29.555
102.35,211.133,30.025
102.38,213.765,30.346
102.41,216.081,30.575
102.45,216.959,31.171
102.48,218.433,31.927
102.51,221.065,32.19
102.55,223.416,32.305
102.58,225.136,32.625
102.61,226.75,32.9
102.64,228.329,33.107
102.68,230.295,33.336
102.71,232.646,33.588
102.74,234.331,33.748
102.77,235.313,34.092
102.81,236.682,34.355
102.84,238.507,34.412
102.87,240.332,34.527
102.9,242.052,34.836
102.94,243.596,35.157
102.97,244.965,35.421
103.0,246.614,35.695
103.03,248.474,35.993
103.07,250.089,36.234
103.1,251.527,36.509
103.13,253.177,36.784
103.16,255.037,36.99
103.2,257.002,37.196
103.23,258.511,37.46
103.26,259.775,37.735
103.29,261.389,37.895
103.33,263.249,37.987
103.36,264.513,38.136
103.39,264.478,38.617
103.42,264.688,39.212
103.46,266.338,39.602
103.49,267.987,39.728
103.52,268.584,40.209
103.55,269.882,40.828
103.59,271.883,40.816
103.62,273.322,40.885
103.65,274.585,41.251
103.68,275.954,41.595
103.72,277.638,41.778
103.75,279.393,41.813
103.78,280.727,41.847
103.82,281.569,41.962
103.85,282.236,41.927
103.88,282.692,41.721
103.91,282.832,41.503
103.95,283.218,41.446
103.98,283.71,41.526
104.01,284.131,41.755
104.04,284.552,41.824
104.08,285.043,41.847
104.11,285.5,41.847
104.14,286.307,42.019
104.17,286.342,41.572
104.21,284.973,41.263
104.24,284.763,41.652
104.27,286.868,41.859
104.3,287.149,41.206
104.34,284.763,41.286
104.37,284.026,41.595
104.4,285.745,41.652
104.43,284.377,41.263
104.47,280.551,41.733
104.5,279.744,42.523
104.53,282.762,42.821
104.56,284.096,42.466
104.6,281.253,42.557
104.63,278.27,42.764
104.66,278.831,42.649
104.69,280.867,41.87
104.73,280.446,41.446
104.76,277.814,41.881
104.79,276.866,42.111
104.82,277.042,41.251
104.86,275.603,40.598
104.89,273.216,40.346
104.92,271.111,39.911
104.95,270.163,39.602
104.99,269.707,39.235
105.02,268.443,39.109
105.05,266.513,39.041
105.09,264.864,38.869
105.12,264.442,38.72
105.15,263.354,38.17
105.18,260.231,37.689
105.22,257.388,37.62
105.25,256.862,37.528
105.28,256.651,37.208
105.31,255.107,36.99
105.35,253.317,37.013
105.38,252.089,36.852
105.41,250.053,36.28
105.44,247.456,36.165
105.48,246.333,36.52
105.51,245.947,36.28
105.54,244.122,35.902
105.57,241.911,36.119
105.61,241.034,36.165
105.64,240.402,35.455
105.67,238.016,34.653
105.7,234.647,34.275
105.74,232.716,33.851
105.77,231.453,33.313
105.8,229.593,32.992
105.83,226.961,32.843
105.87,224.785,32.614
105.9,222.679,32.328
105.93,220.679,32.064
105.96,218.784,31.801
106.0,216.888,31.56
106.03,215.134,31.342
106.06,213.274,31.033
106.09,211.063,30.747
106.13,209.238,30.495
106.16,207.518,30.002
106.19,204.956,29.383
106.22,201.833,28.868
106.26,199.165,28.513
106.29,197.551,28.146
106.32,196.252,27.78
106.36,194.147,27.528
106.39,191.866,27.299
106.42,189.584,26.943
106.45,187.198,26.52
106.49,184.987,26.073
106.52,182.46,25.592
106.55,179.512,25.156
106.58,176.95,24.893
106.62,175.266,24.469
106.65,173.23,23.942
106.68,170.493,23.381
106.71,167.545,22.819
106.75,164.597,22.407
106.78,161.824,21.937
106.81,159.052,21.502
106.84,156.595,21.25
106.88,154.173,20.895
106.91,151.366,20.311
106.94,148.172,19.623
106.97,145.154,19.222
107.01,142.838,18.81
107.04,140.381,18.306
107.07,137.679,18.26
107.1,135.538,17.951
107.14,132.8,17.183
107.17,129.642,16.931
107.2,126.904,16.553
107.23,124.202,15.935
107.27,120.622,14.995
107.3,115.849,14.079
107.33,111.638,13.689
107.36,108.9,13.243
107.4,106.339,12.487
107.43,102.548,11.673
107.46,97.881,11.078
107.49,93.774,10.619
107.53,90.511,10.092
107.56,87.387,9.542
107.59,83.983,8.993
107.63,80.087,8.466
107.66,76.297,8.007
107.69,72.858,7.595
107.72,69.839,7.16
107.76,66.716,6.644
107.79,63.312,6.255
107.82,59.908,5.98
107.85,56.644,5.579
107.89,53.204,5.155
107.92,49.66,4.846
107.95,46.396,4.525
107.98,43.307,4.009
108.02,40.184,3.586
108.05,37.061,3.208
108.08,33.691,2.715
108.11,29.971,2.325
108.15,26.146,1.982
108.18,22.636,1.615
108.21,18.951,1.157
108.24,14.845,0.859
108.28,10.564,0.664
108.31,6.212,0.458
108.34,1.825,0.458
108.37,-0.07,0.08
108.41,-0.316,-0.997
108.44,-1.053,-2.44
108.47,-4.948,-3.654
108.5,-10.458,-4.479
108.54,-14.951,-5.35
108.57,-18.741,-6.117
108.6,-22.847,-6.472
108.63,-27.339,-6.587
108.67,-31.235,-6.759
108.7,-34.639,-7.068
108.73,-37.622,-7.091
108.76,-40.044,-7.091
108.8,-42.641,-7.572
108.83,-46.045,-8.076
108.86,-49.625,-8.466
108.9,-52.748,-8.958
108.93,-56.223,-9.554
108.96,-60.013,-10.047
108.99,-63.522,-10.608
109.03,-66.927,-11.238
109.06,-70.682,-11.776
109.09,-74.998,-12.246
109.12,-79.07,-12.59
109.16,-82.439,-13.014
109.19,-85.422,-13.495
109.22,-88.651,-13.93
109.25,-92.23,-14.365
109.29,-95.705,-14.858
109.32,-98.898,-15.19
109.35,-101.636,-15.465
109.38,-104.373,-15.889
109.42,-107.426,-16.427
109.45,-110.866,-16.794
109.48,-114.27,-17.229
109.51,-117.604,-17.745
109.55,-120.798,-18.088
109.58,-123.851,-18.409
109.61,-127.01,-18.799
109.64,-130.098,-19.257
109.68,-133.994,-19.898
109.71,-138.24,-20.414
109.74,-141.644,-20.792
109.77,-144.101,-21.078
109.81,-146.101,-21.296
109.84,-148.418,-21.605
109.87,-151.26,-21.846
109.9,-153.717,-22.098
109.94,-155.682,-22.625
109.97,-158.174,-23.175
110.0,-161.613,-23.633
110.03,-165.228,-23.999
110.07,-167.966,-24.332
110.1,-170.282,-24.675
110.13,-172.704,-25.099
110.17,-175.616,-25.363
110.2,-178.529,-25.706
110.23,-181.548,-26.302
110.26,-184.741,-26.76
110.3,-187.549,-27.092
110.33,-189.97,-27.493
110.36,-192.041,-27.803
110.39,-194.006,-28.055
110.43,-196.498,-28.135
110.46,-198.99,-28.272
110.49,-201.236,-28.582
110.52,-203.307,-28.879
110.56,-205.237,-29.143
110.59,-207.132,-29.361
110.62,-208.746,-29.464
110.65,-209.869,-29.647
110.69,-210.957,-29.945
110.72,-212.677,-30.3
110.75,-215.274,-30.667
110.78,-217.59,-31.09
110.82,-219.661,-31.606
110.85,-222.012,-31.904
110.88,-223.872,-31.904
110.91,-225.417,-32.03
110.95,-227.171,-32.328
110.98,-229.207,-32.694
111.01,-231.453,-33.026
111.04,-233.453,-33.29
111.08,-235.559,-33.771
111.11,-237.665,-33.863
111.14,-238.612,-33.771
111.17,-239.314,-34.034
111.21,-241.315,-34.218
111.24,-243.42,-34.218
111.27,-244.859,-34.458
111.3,-246.298,-34.894
111.34,-248.123,-35.157
111.37,-249.597,-35.203
111.4,-249.773,-35.409
111.44,-249.422,-36.028
111.47,-250.404,-36.658
111.5,-252.475,-37.185
111.53,-254.897,-37.861
111.57,-257.529,-38.491
111.6,-259.705,-38.857
111.63,-261.073,-39.041
111.66,-262.126,-39.086
111.7,-263.354,-39.098
111.73,-265.32,-39.178
111.76,-266.934,-39.247
111.79,-267.601,-39.51
111.83,-268.478,-39.9
111.86,-270.198,-39.991
111.89,-271.707,-39.98
111.92,-272.69,-40.243
111.96,-273.953,-40.45
111.99,-275.146,-40.392
112.02,-276.199,-40.461
112.05,-277.322,-40.782
112.09,-278.551,-41.045
112.12,-279.884,-41.16
112.15,-280.797,-41.103
112.18,-281.218,-41.137
112.22,-281.674,-41.068
112.25,-282.236,-40.873
112.28,-282.832,-40.736
112.31,-283.429,-40.999
112.35,-284.131,-41.263
112.38,-283.464,-41.733
112.41,-281.815,-42.374
112.44,-281.674,-42.66
112.48,-282.692,-42.477
112.51,-283.113,-42.603
112.54,-283.183,-43.245
112.57,-284.061,-43.646
112.61,-285.184,-43.508
112.64,-285.64,-43.577
112.67,-286.237,-43.703
112.71,-287.009,-43.543
112.74,-286.517,-43.119
112.77,-285.535,-42.809
112.8,-285.254,-42.431
112.84,-285.078,-42.019
112.87,-284.271,-41.893
112.9,-283.183,-41.641
112.93,-281.674,-41.194
112.97,-280.2,-40.873
113.0,-279.182,-40.679
113.03,-278.059,-40.507
113.06,-276.831,-40.518
113.1,-276.305,-40.713
113.13,-276.41,-40.747
113.16,-276.024,-40.576
113.19,-274.585,-40.392
113.23,-272.83,-40.083
113.26,-271.321,-39.716
113.29,-270.093,-39.396
113.32,-269.25,-39.201
113.36,-268.163,-39.121
113.39,-266.794,-38.995
113.42,-265.039,-38.903
113.45,-262.898,-38.846
113.49,-261.108,-38.548
113.52,-259.775,-38.158
113.55,-258.371,-37.975
113.58,-256.792,-37.964
113.62,-255.247,-37.838
113.65,-254.019,-37.643
113.68,-252.896,-37.483
113.71,-251.633,-37.288
113.75,-249.808,-36.704
113.78,-247.316,-36.222
113.81,-245.807,-36.268
113.84,-245.175,-35.902
113.88,-243.21,-35.295
113.91,-240.262,-35.169
113.94,-238.472,-35.146
113.98,-237.454,-34.699
114.01,-235.524,-34.115
114.04,-233.208,-33.897
114.07,-231.804,-33.633
114.11,-230.295,-33.187
114.14,-228.014,-32.992
114.17,-226.189,-32.866
114.2,-225.031,-32.499
114.24,-223.627,-32.076
114.27,-221.556,-31.686
114.3,-218.924,-31.388
114.33,-216.608,-31.136
114.37,-215.063,-30.781
114.4,-213.379,-30.426
114.43,-211.063,-30.208
114.46,-208.43,-30.082
114.5,-206.079,-29.842
114.53,-203.973,-29.406
114.56,-201.938,-29.04
114.59,-200.043,-28.753
114.63,-198.077,-28.501
114.66,-196.498,-28.249
114.69,-194.849,-27.997
114.72,-192.989,-27.596
114.76,-190.672,-27.035
114.79,-187.794,-26.451
114.82,-185.092,-25.947
114.85,-182.46,-25.397
114.89,-179.828,-24.881
114.92,-177.441,-24.584
114.95,-175.441,-24.263
114.98,-173.3,-23.759
115.02,-170.212,-23.289
115.05,-166.913,-22.877
115.08,-164.211,-22.441
115.11,-161.754,-21.926
115.15,-159.087,-21.479
115.18,-156.56,-21.261
115.21,-154.243,-20.838
115.25,-151.401,-20.173
115.28,-148.347,-19.635
115.31,-145.505,-19.108
115.34,-142.381,-18.421
115.38,-139.082,-18.134
115.41,-136.661,-18.237
115.44,-134.309,-17.676
115.47,-131.958,-17.561
115.51,-129.817,-17.367
115.54,-127.255,-16.943
115.57,-124.202,-16.198
115.6,-120.728,-15.58
115.64,-116.797,-14.583
115.67,-112.129,-13.575
115.7,-107.988,-13.082
115.73,-104.865,-12.601
115.77,-101.495,-12.017
115.8,-97.705,-11.662
115.83,-94.16,-11.238
115.86,-90.862,-10.573
115.9,-87.457,-9.898
115.93,-83.807,-9.474
115.96,-80.122,-9.05
115.99,-76.437,-8.534
116.03,-72.787,-8.076
116.06,-69.453,-7.698
116.09,-66.119,-7.171
116.12,-62.399,-6.679
116.16,-58.714,-6.255
116.19,-55.31,-5.877
116.22,-52.011,-5.533
116.25,-49.203,-5.166
116.29,-46.255,-4.662
116.32,-42.957,-4.135
116.35,-39.131,-3.586
116.38,-34.955,-3.127
116.42,-31.2,-2.749
116.45,-28.041,-2.406
116.48,-24.602,-2.085
116.52,-21.092,-1.947
116.55,-17.828,-1.695
116.58,-14.424,-1.317
116.61,-10.458,-0.997
116.65,-6.212,-0.779
116.68,-1.755,-0.676
