Trigger_Date,2023/06/22
Trigger_Time,T 14:13:12.755 PDT
Samples_Per_Cycle,512
Microseconds_Per_Sample,32.549
Time (ms),Voltage (V),Current (A)
-16.67,0.316,-0.115
-16.63,0.491,1.146
-16.6,1.088,2.36
-16.57,4.352,3.345
-16.54,9.37,4.284
-16.5,14.319,5.384
-16.47,18.671,6.049
-16.44,22.461,6.427
-16.4,26.637,6.896
-16.37,31.059,7.343
-16.34,35.341,7.595
-16.31,38.85,7.755
-16.27,42.079,8.007
-16.24,45.378,8.351
-16.21,48.853,8.637
-16.18,52.046,8.89
-16.14,54.713,9.336
-16.11,57.556,9.863
-16.08,61.066,10.299
-16.05,64.891,10.654
-16.01,68.716,11.02
-15.98,72.226,11.421
-15.95,75.209,11.753
-15.92,77.806,12.086
-15.88,80.719,12.567
-15.85,84.334,13.059
-15.82,87.949,13.449
-15.79,91.037,13.815
-15.75,93.774,14.319
-15.72,96.722,14.869
-15.69,99.986,15.305
-15.66,103.461,15.683
-15.62,106.83,16.21
-15.59,110.304,16.737
-15.56,113.708,17.08
-15.53,116.797,17.504
-15.49,119.85,17.974
-15.46,123.009,18.363
-15.43,126.132,18.833
-15.4,129.361,19.314
-15.36,133.081,19.818
-15.33,136.731,20.173
-15.3,139.468,20.437
-15.27,142.381,21.158
-15.23,145.75,21.399
-15.2,148.874,21.8
-15.17,151.366,22.029
-15.14,153.085,22.178
-15.1,154.98,22.728
-15.07,158.279,23.197
-15.04,161.929,23.495
-15.01,164.877,23.828
-14.97,167.299,24.274
-14.94,170.036,24.652
-14.91,173.055,24.939
-14.88,175.967,25.179
-14.84,178.775,25.58
-14.81,181.618,26.05
-14.78,184.25,26.405
-14.74,186.391,26.554
-14.71,187.654,26.485
-14.68,187.935,26.187
-14.65,188.075,26.061
-14.61,189.304,26.359
-14.58,191.866,26.817
-14.55,194.849,27.241
-14.52,197.411,27.78
-14.48,199.762,28.49
-14.45,202.464,29.109
-14.42,205.237,29.521
-14.39,208.115,29.979
-14.35,210.992,30.506
-14.32,214.046,30.953
-14.29,216.783,31.228
-14.26,219.029,31.434
-14.22,221.03,31.686
-14.19,223.1,31.801
-14.16,224.118,31.709
-14.13,224.539,31.766
-14.09,225.381,31.972
-14.06,226.75,32.385
-14.03,228.575,32.797
-14.0,229.663,33.072
-13.96,231.067,33.702
-13.93,233.804,34.16
-13.9,235.945,34.16
-13.87,236.787,34.401
-13.83,237.981,34.848
-13.8,240.262,35.191
-13.77,242.859,35.237
-13.74,244.228,35.478
-13.7,245.175,36.062
-13.67,246.684,36.417
-13.64,248.615,36.452
-13.61,250.79,36.566
-13.57,253.001,36.852
-13.54,254.475,37.093
-13.51,255.493,37.368
-13.48,257.213,37.7
-13.44,259.424,37.975
-13.41,261.389,38.113
-13.38,262.617,38.113
-13.35,263.425,38.17
-13.31,264.548,38.296
-13.28,265.846,38.33
-13.25,266.864,38.262
-13.22,267.671,38.456
-13.18,269.215,38.743
-13.15,270.444,38.743
-13.12,271.391,39.121
-13.08,271.918,39.545
-13.05,271.567,40.335
-13.02,272.269,41.034
-12.99,273.637,41.274
-12.95,274.374,41.435
-12.92,275.041,42.134
-12.89,276.585,42.477
-12.86,277.919,42.34
-12.82,278.551,42.145
-12.79,278.972,42.294
-12.76,280.06,42.397
-12.73,281.183,42.248
-12.69,282.025,42.305
-12.66,282.587,42.397
-12.63,283.043,42.557
-12.6,283.394,42.271
-12.56,283.604,42.225
-12.53,284.131,42.351
-12.5,284.727,42.179
-12.47,284.973,42.386
-12.43,285.605,42.626
-12.4,286.096,42.58
-12.37,286.131,42.512
-12.34,286.061,42.363
-12.3,285.219,42.099
-12.27,283.92,41.881
-12.24,283.359,41.778
-12.21,283.78,41.79
-12.17,283.885,41.698
-12.14,283.008,41.549
-12.11,281.464,41.297
-12.08,278.796,41.332
-12.04,277.498,41.446
-12.01,277.568,41.045
-11.98,276.901,40.862
-11.95,275.497,41.171
-11.91,274.445,41.24
-11.88,273.392,40.896
-11.85,271.707,40.724
-11.82,270.549,40.507
-11.78,269.672,39.945
-11.75,268.338,39.464
-11.72,266.408,39.373
-11.69,265.109,39.35
-11.65,264.337,39.052
-11.62,263.214,38.903
-11.59,261.845,38.857
-11.56,260.336,38.628
-11.52,258.617,38.307
-11.49,256.792,38.09
-11.46,255.528,37.895
-11.42,254.054,37.666
-11.39,252.159,37.586
-11.36,250.79,37.437
-11.33,249.281,37.059
-11.29,247.316,36.658
-11.26,245.526,36.303
-11.23,244.228,35.936
-11.2,242.964,35.558
-11.16,241.034,35.088
-11.13,238.718,34.917
-11.1,237.103,34.836
-11.07,235.77,34.412
-11.03,233.559,34.0
-11.0,230.856,33.886
-10.97,228.786,33.771
-10.94,227.347,33.427
-10.9,226.048,33.221
-10.87,224.399,33.049
-10.84,222.293,32.969
-10.81,220.854,32.889
-10.77,219.801,32.488
-10.74,217.941,32.064
-10.71,215.836,31.858
-10.68,214.256,31.606
-10.64,213.028,31.239
-10.61,211.694,30.804
-10.58,208.922,30.22
-10.55,205.588,29.83
-10.51,202.991,29.303
-10.48,201.166,28.65
-10.45,199.236,28.169
-10.42,196.919,27.848
-10.38,194.568,27.7
-10.35,192.778,27.608
-10.32,190.848,27.092
-10.29,188.847,26.806
-10.25,187.163,26.485
-10.22,185.197,26.199
-10.19,182.53,25.443
-10.16,179.196,24.996
-10.12,177.055,25.111
-10.09,175.897,24.847
-10.06,173.546,24.228
-10.03,169.194,23.507
-9.99,165.579,23.507
-9.96,164.281,23.22
-9.93,162.807,22.327
-9.89,159.718,21.777
-9.86,156.279,21.582
-9.83,153.612,21.055
-9.8,150.874,20.414
-9.76,147.751,19.658
-9.73,144.557,19.268
-9.7,141.434,18.615
-9.67,137.994,18.008
-9.63,134.836,18.042
-9.6,132.66,17.802
-9.57,130.624,17.401
-9.54,128.027,16.908
-9.5,124.834,16.462
-9.47,121.605,15.98
-9.44,118.657,15.316
-9.41,115.533,14.571
-9.37,112.164,14.033
-9.34,108.936,13.609
-9.31,105.707,13.048
-9.28,102.057,12.475
-9.24,98.232,11.902
-9.21,94.582,11.215
-9.18,90.862,10.505
-9.15,87.071,9.806
-9.11,82.93,9.233
-9.08,78.824,8.935
-9.05,75.525,8.546
-9.02,72.612,7.973
-8.98,69.559,7.503
-8.95,66.26,7.102
-8.92,62.75,6.633
-8.89,59.451,6.197
-8.85,56.398,5.819
-8.82,53.485,5.487
-8.79,50.467,5.144
-8.76,47.238,4.766
-8.72,43.799,4.307
-8.69,40.324,3.906
-8.66,37.131,3.494
-8.63,33.937,3.013
-8.59,30.392,2.589
-8.56,26.567,2.291
-8.53,22.952,1.89
-8.5,19.302,1.501
-8.46,15.266,1.157
-8.43,11.02,0.836
-8.4,6.387,0.47
-8.37,1.685,0.435
-8.33,-0.105,-0.069
-8.3,-0.351,-1.237
-8.27,-1.123,-2.497
-8.23,-4.562,-3.448
-8.2,-9.441,-4.307
-8.17,-14.038,-5.35
-8.14,-18.039,-6.152
-8.1,-22.25,-6.736
-8.07,-27.234,-7.114
-8.04,-32.007,-7.354
-8.01,-35.657,-7.412
-7.97,-38.219,-7.446
-7.94,-40.816,-7.698
-7.91,-44.15,-8.007
-7.88,-47.519,-8.305
-7.84,-50.572,-8.637
-7.81,-53.906,-9.05
-7.78,-57.381,-9.416
-7.75,-60.645,-9.852
-7.71,-63.908,-10.367
-7.68,-67.348,-10.86
-7.65,-70.892,-11.318
-7.62,-74.051,-11.788
-7.58,-77.034,-12.223
-7.55,-80.228,-12.761
-7.52,-83.842,-13.3
-7.49,-87.387,-13.815
-7.45,-90.686,-14.308
-7.42,-93.845,-14.697
-7.39,-97.038,-15.041
-7.36,-100.056,-15.35
-7.32,-103.004,-15.74
-7.29,-106.268,-16.198
-7.26,-109.497,-16.633
-7.23,-112.726,-17.149
-7.19,-116.095,-17.653
-7.16,-119.218,-18.077
-7.13,-122.272,-18.535
-7.1,-125.536,-19.028
-7.06,-128.87,-19.52
-7.03,-132.309,-19.99
-7.0,-136.099,-20.494
-6.97,-139.96,-21.17
-6.93,-143.61,-21.422
-6.9,-146.066,-21.399
-6.87,-147.47,-21.41
-6.84,-150.137,-22.029
-6.8,-154.384,-22.579
-6.77,-157.964,-22.739
-6.74,-160.104,-23.06
-6.71,-162.28,-23.667
-6.67,-165.509,-24.194
-6.64,-168.668,-24.423
-6.61,-171.194,-24.721
-6.57,-173.476,-25.065
-6.54,-175.511,-25.294
-6.51,-177.722,-25.729
-6.48,-180.775,-26.348
-6.44,-184.109,-26.772
-6.41,-186.742,-27.081
-6.38,-189.093,-27.344
-6.35,-191.479,-27.562
-6.31,-193.726,-27.711
-6.28,-195.586,-27.826
-6.25,-197.446,-28.009
-6.22,-199.376,-28.375
-6.18,-201.552,-28.685
-6.15,-203.658,-28.776
-6.12,-204.921,-28.902
-6.09,-205.939,-29.177
-6.05,-207.132,-29.361
-6.02,-208.22,-29.647
-5.99,-210.01,-30.128
-5.96,-212.607,-30.598
-5.92,-214.677,-31.033
-5.89,-216.502,-31.56
-5.86,-218.503,-31.995
-5.83,-220.503,-32.339
-5.79,-222.363,-32.625
-5.76,-224.294,-33.015
-5.73,-226.505,-33.29
-5.7,-228.926,-33.427
-5.66,-231.102,-33.599
-5.63,-232.997,-33.92
-5.6,-234.752,-34.103
-5.57,-236.331,-34.241
-5.53,-237.419,-34.309
-5.5,-238.437,-34.607
-5.47,-240.332,-35.157
-5.44,-242.859,-35.684
-5.4,-244.965,-35.867
-5.37,-246.544,-35.97
-5.34,-248.123,-36.417
-5.31,-250.194,-36.646
-5.27,-251.738,-36.623
-5.24,-252.861,-36.864
-5.21,-254.616,-37.185
-5.18,-256.616,-37.311
-5.14,-258.336,-37.483
-5.11,-259.564,-37.826
-5.08,-260.863,-37.975
-5.05,-261.038,-38.101
-5.01,-260.301,-38.72
-4.98,-260.828,-39.361
-4.95,-263.004,-39.716
-4.91,-265.109,-40.152
-4.88,-266.057,-40.644
-4.85,-266.934,-41.08
-4.82,-268.408,-41.217
-4.78,-269.917,-41.286
-4.75,-271.251,-41.469
-4.72,-272.585,-41.618
-4.69,-273.848,-41.778
-4.65,-275.041,-42.145
-4.62,-276.761,-42.271
-4.59,-277.814,-42.271
-4.56,-278.235,-42.489
-4.52,-279.358,-42.305
-4.49,-279.779,-41.881
-4.46,-279.604,-41.813
-4.43,-279.919,-41.79
-4.39,-280.972,-41.778
-4.36,-281.674,-41.733
-4.33,-281.92,-41.939
-4.3,-282.271,-42.122
-4.26,-283.043,-42.374
-4.23,-283.78,-42.134
-4.2,-283.289,-41.939
-4.17,-283.359,-42.34
-4.13,-284.903,-42.34
-4.1,-285.605,-42.03
-4.07,-284.341,-42.512
-4.04,-283.148,-43.073
-4.0,-283.078,-42.935
-3.97,-283.008,-42.603
-3.94,-282.376,-42.557
-3.91,-281.779,-42.775
-3.87,-281.744,-42.89
-3.84,-281.815,-43.004
-3.81,-281.744,-43.016
-3.78,-281.323,-42.764
-3.74,-280.2,-42.363
-3.71,-278.656,-42.088
-3.68,-277.603,-41.79
-3.65,-276.971,-41.481
-3.61,-276.62,-41.4
-3.58,-275.708,-41.297
-3.55,-273.672,-41.171
-3.52,-271.953,-40.919
-3.48,-270.935,-40.358
-3.45,-269.461,-39.888
-3.42,-267.426,-39.648
-3.39,-265.741,-39.567
-3.35,-265.215,-39.51
-3.32,-265.039,-39.373
-3.29,-264.021,-39.258
-3.25,-262.372,-39.098
-3.22,-260.687,-38.617
-3.19,-259.073,-38.067
-3.16,-257.423,-37.712
-3.12,-255.844,-37.505
-3.09,-254.651,-37.173
-3.06,-253.282,-36.807
-3.03,-251.106,-36.726
-2.99,-248.965,-36.669
-2.96,-246.825,-36.383
-2.93,-244.93,-36.142
-2.9,-243.701,-35.959
-2.86,-242.508,-35.661
-2.83,-240.788,-35.547
-2.8,-238.823,-35.375
-2.77,-237.068,-35.043
-2.73,-235.454,-34.802
-2.7,-233.769,-34.538
-2.67,-231.769,-34.195
-2.64,-229.874,-34.046
-2.6,-228.4,-33.84
-2.57,-226.855,-33.416
-2.54,-224.75,-33.061
-2.51,-222.784,-32.877
-2.47,-220.819,-32.362
-2.44,-218.608,-32.007
-2.41,-216.327,-31.56
-2.38,-214.081,-31.136
-2.34,-212.502,-31.239
-2.31,-211.694,-31.239
-2.28,-210.326,-30.896
-2.25,-207.904,-30.644
-2.21,-205.798,-30.369
-2.18,-203.938,-29.704
-2.15,-201.587,-29.131
-2.12,-199.236,-28.776
-2.08,-197.095,-28.41
-2.05,-195.164,-28.089
-2.02,-193.304,-27.848
-1.99,-191.479,-27.562
-1.95,-189.023,-27.184
-1.92,-186.25,-26.68
-1.89,-183.618,-26.153
-1.86,-181.477,-25.66
-1.82,-179.231,-25.191
-1.79,-176.95,-24.859
-1.76,-174.599,-24.538
-1.73,-171.896,-24.114
-1.69,-168.843,-23.621
-1.66,-166.176,-23.106
-1.63,-163.965,-22.579
-1.59,-161.368,-21.972
-1.56,-157.964,-21.41
-1.53,-154.84,-21.307
-1.5,-152.664,-21.009
-1.46,-149.646,-20.013
-1.43,-146.101,-19.715
-1.4,-143.399,-19.36
-1.37,-141.153,-18.993
-1.33,-138.942,-18.638
-1.3,-136.064,-18.077
-1.27,-133.116,-17.71
-1.24,-130.379,-17.206
-1.2,-127.396,-16.691
-1.17,-124.448,-16.187
-1.14,-121.149,-15.683
-1.11,-117.639,-15.064
-1.07,-113.884,-14.491
-1.04,-110.831,-14.045
-1.01,-108.62,-13.472
-0.98,-105.777,-12.83
-0.94,-102.232,-12.257
-0.91,-98.442,-11.593
-0.88,-94.371,-10.848
-0.85,-90.054,-10.253
-0.81,-85.948,-9.772
-0.78,-82.404,-9.371
-0.75,-79.105,-9.016
-0.72,-75.806,-8.592
-0.68,-72.191,-8.133
-0.65,-68.822,-7.767
-0.62,-65.839,-7.32
-0.59,-62.961,-6.85
-0.55,-59.802,-6.438
-0.52,-56.573,-6.014
-0.49,-53.275,-5.487
-0.46,-49.976,-4.972
-0.42,-46.782,-4.468
-0.39,-43.027,-3.929
-0.36,-38.815,-3.356
-0.33,-34.499,-2.898
-0.29,-30.533,-2.555
-0.26,-26.778,-2.325
-0.23,-23.514,-2.131
-0.2,-20.566,-1.936
-0.16,-17.407,-1.776
-0.13,-14.143,-1.638
-0.1,-10.634,-1.363
-0.07,-6.949,-1.123
-0.03,-3.088,-0.997
0.0,-0.211,-0.745
0.03,0.526,0.286
0.07,0.632,1.695
0.1,2.386,3.127
0.13,7.405,4.124
0.16,12.775,5.144
0.2,17.477,6.037
0.23,21.619,6.575
0.26,26.146,7.011
0.29,30.814,7.354
0.33,35.236,7.629
0.36,39.096,7.778
0.39,42.5,7.985
0.42,45.659,8.294
0.46,48.888,8.637
0.49,51.976,8.935
0.52,54.889,9.348
0.55,57.872,9.84
0.59,61.136,10.287
0.62,64.47,10.677
0.65,67.734,11.146
0.68,71.068,11.604
0.72,74.402,11.983
0.75,77.49,12.361
0.78,80.508,12.819
0.81,83.772,13.346
0.85,87.141,13.815
0.88,90.37,14.297
0.91,93.564,14.778
0.94,97.214,15.202
0.98,101.039,15.522
1.01,104.619,15.797
1.04,107.567,16.187
1.07,110.48,16.645
1.11,113.603,17.046
1.14,116.762,17.516
1.17,120.061,17.894
1.2,123.395,18.203
1.24,126.378,18.478
1.27,129.256,19.062
1.3,132.414,19.463
1.33,135.713,19.956
1.37,139.293,20.643
1.4,142.908,21.009
1.43,145.68,21.261
1.46,148.207,21.64
1.5,151.05,22.018
1.53,153.963,22.292
1.56,156.595,22.59
1.59,159.122,22.98
1.63,162.21,23.358
1.66,165.334,23.679
1.69,167.931,24.068
1.73,170.317,24.412
1.76,172.704,24.733
1.79,174.985,25.088
1.82,177.371,25.546
1.86,180.144,26.107
1.89,183.092,26.577
1.92,185.654,26.989
1.95,188.181,27.173
1.99,190.181,27.012
2.02,191.76,27.001
2.05,193.585,27.23
2.08,196.007,27.596
2.12,198.779,27.986
2.15,201.447,28.364
2.18,203.833,28.685
2.21,205.869,29.005
2.25,207.518,29.189
2.28,209.132,29.383
2.31,210.957,29.762
2.34,213.554,30.151
2.38,215.941,30.426
2.41,217.696,30.758
2.44,219.24,30.987
2.47,220.854,31.136
2.51,222.153,31.067
2.54,223.451,31.067
2.57,225.592,31.56
2.6,227.943,31.732
2.64,229.242,31.858
2.67,229.839,32.156
2.7,231.242,32.602
2.73,233.629,32.969
2.77,235.735,33.278
2.8,237.068,33.416
2.83,238.156,33.553
2.86,240.262,34.08
2.9,243.245,34.401
2.93,245.421,34.573
2.96,246.614,34.917
2.99,246.649,35.581
3.03,246.404,36.211
3.06,247.456,36.715
3.09,249.738,37.334
3.12,252.299,37.998
3.16,254.44,38.514
3.19,256.055,38.972
3.22,258.09,39.407
3.25,260.828,39.522
3.29,262.688,39.384
3.32,263.179,39.441
3.35,264.127,39.602
3.39,265.881,39.487
3.42,266.934,39.304
3.45,267.25,39.728
3.48,268.619,40.094
3.52,270.303,40.014
3.55,271.251,40.186
3.58,272.339,40.495
3.61,273.427,40.61
3.65,274.304,40.782
3.68,275.287,41.08
3.71,276.796,41.16
3.74,277.814,41.125
3.78,278.375,41.274
3.81,278.937,41.309
3.84,279.393,41.229
3.87,279.884,40.942
3.91,279.919,40.885
3.94,279.358,41.458
3.97,279.218,42.214
4.0,280.235,42.34
4.04,281.007,42.134
4.07,281.007,42.191
4.1,281.078,42.569
4.13,282.516,42.97
4.17,283.289,42.546
4.2,283.253,43.13
4.23,284.517,43.714
4.26,285.394,43.245
4.3,285.219,43.027
4.33,285.078,42.97
4.36,284.938,42.569
4.39,284.341,42.019
4.43,283.429,41.916
4.46,283.289,42.145
4.49,283.499,42.076
4.52,283.008,41.87
4.56,281.885,41.755
4.59,280.867,41.503
4.62,279.99,41.068
4.65,278.937,40.633
4.69,277.849,40.312
4.72,277.007,40.186
4.75,276.199,39.968
4.78,274.725,39.705
4.82,272.935,39.407
4.85,271.075,39.086
4.88,269.566,38.662
4.91,267.671,38.376
4.95,265.215,38.525
4.98,263.635,38.788
5.01,262.653,38.846
5.05,261.53,38.892
5.08,260.336,38.903
5.11,259.073,38.754
5.14,257.915,38.502
5.18,256.862,38.25
5.21,255.458,38.113
5.24,253.949,37.987
5.27,252.58,37.769
5.31,251.247,37.574
5.34,249.808,37.368
5.37,248.193,36.944
5.4,246.509,36.452
5.44,244.965,36.039
5.47,243.456,35.718
5.5,241.42,35.26
5.53,239.244,35.111
5.57,238.016,34.928
5.6,236.401,34.309
5.63,233.418,33.897
5.66,230.681,33.886
5.7,229.663,33.622
5.73,229.031,33.095
5.76,227.452,32.843
5.79,225.136,32.763
5.83,222.995,32.522
5.86,221.451,32.156
5.89,219.731,31.652
5.92,217.029,31.4
5.96,214.221,31.262
5.99,212.466,30.976
6.02,210.817,30.621
6.05,208.711,30.529
6.09,206.851,30.346
6.12,205.237,30.048
6.15,203.307,29.475
6.18,201.376,29.223
6.22,199.481,28.685
6.25,197.27,28.272
6.28,195.691,28.398
6.31,195.164,28.318
6.35,193.55,27.585
6.38,190.041,27.092
6.41,186.917,26.795
6.44,185.338,26.405
6.48,183.583,25.477
6.51,180.038,24.859
6.54,177.161,24.916
6.57,176.143,24.744
6.61,174.388,23.885
6.64,170.528,23.152
6.67,166.422,22.842
6.71,163.684,22.567
6.74,161.227,21.651
6.77,157.718,21.032
6.8,154.419,20.826
6.84,151.962,20.414
6.87,149.681,20.059
6.9,147.049,19.555
6.93,144.066,19.131
6.97,141.364,18.718
7.0,138.907,18.237
7.03,136.205,17.745
7.06,133.292,17.332
7.1,130.519,16.943
7.13,127.676,16.439
7.16,124.658,15.946
7.19,121.57,15.396
7.23,118.095,14.789
7.26,114.445,14.193
7.29,110.901,13.644
7.32,107.953,13.22
7.36,105.426,12.681
7.39,102.303,12.063
7.42,98.442,11.501
7.45,94.231,10.883
7.49,90.054,10.264
7.52,85.983,9.657
7.55,81.982,9.153
7.58,78.719,8.821
7.62,75.946,8.351
7.65,72.928,7.813
7.68,69.453,7.4
7.71,66.049,7.045
7.75,62.856,6.575
7.78,59.802,6.163
7.81,56.784,5.808
7.84,53.661,5.43
7.88,50.291,5.063
7.91,46.957,4.708
7.94,43.869,4.158
7.97,40.781,3.712
8.01,37.692,3.242
8.04,34.253,2.704
8.07,30.217,2.291
8.1,26.181,2.073
8.14,22.707,1.787
8.17,19.443,1.478
8.2,15.968,1.134
8.23,11.757,0.768
8.27,7.054,0.412
8.3,2.141,0.309
8.33,-0.07,-0.16
8.37,-0.281,-1.26
8.4,-1.228,-2.394
8.43,-4.597,-3.219
8.46,-9.265,-4.09
8.5,-13.547,-5.086
8.53,-17.267,-5.945
8.56,-21.513,-6.449
8.59,-26.041,-6.885
8.63,-30.814,-7.377
8.66,-35.481,-7.732
8.69,-39.377,-7.904
8.72,-42.641,-8.237
8.76,-45.448,-8.534
8.79,-48.326,-8.89
8.82,-51.765,-9.359
8.85,-55.45,-9.817
8.89,-58.89,-10.195
8.92,-62.364,-10.562
8.95,-66.225,-10.745
8.98,-69.594,-10.94
9.02,-72.331,-11.204
9.05,-74.612,-11.513
9.08,-76.999,-11.799
9.11,-79.385,-12.017
9.15,-82.263,-12.613
9.18,-85.913,-13.323
9.21,-89.493,-13.838
9.24,-92.581,-14.193
9.28,-95.67,-14.617
9.31,-99.074,-15.305
9.34,-102.618,-15.625
9.37,-105.426,-15.946
9.41,-108.549,-16.759
9.44,-112.375,-17.264
9.47,-116.341,-17.687
9.5,-119.92,-18.088
9.54,-122.728,-18.466
9.57,-125.781,-19.154
9.6,-129.607,-19.681
9.63,-133.011,-19.841
9.67,-136.029,-20.643
9.7,-139.503,-21.216
9.73,-142.662,-21.399
9.76,-145.399,-21.72
9.8,-147.786,-21.96
9.83,-150.453,-22.327
9.86,-153.577,-22.682
9.89,-156.876,-22.991
9.93,-160.034,-23.301
9.96,-162.912,-23.644
9.99,-165.649,-23.942
10.03,-168.317,-24.228
10.06,-171.019,-24.526
10.09,-173.546,-24.847
10.12,-175.792,-25.202
10.16,-178.038,-25.672
10.19,-180.916,-26.233
10.22,-184.355,-26.634
10.25,-187.444,-26.863
10.29,-189.549,-27.115
10.32,-191.234,-27.425
10.35,-193.304,-27.619
10.38,-195.691,-27.711
10.42,-197.516,-27.917
10.45,-199.236,-28.33
10.48,-201.271,-28.57
10.51,-203.412,-28.639
10.55,-205.132,-28.788
10.58,-206.465,-28.983
10.61,-207.623,-29.109
10.64,-208.711,-29.372
10.68,-210.536,-29.704
10.71,-213.133,-30.059
10.74,-215.414,-30.414
10.77,-217.099,-30.85
10.81,-218.608,-31.319
10.84,-220.644,-31.617
10.87,-222.995,-31.766
10.9,-224.785,-32.098
10.94,-226.083,-32.706
10.97,-227.452,-33.198
11.0,-229.242,-33.759
11.03,-231.804,-34.218
11.07,-234.225,-34.573
11.1,-236.156,-34.813
11.13,-238.121,-34.917
11.16,-240.192,-34.951
11.2,-241.876,-35.077
11.23,-243.14,-35.398
11.26,-244.684,-35.764
11.29,-246.965,-36.062
11.33,-249.246,-36.28
11.36,-250.439,-36.417
11.39,-251.106,-36.578
11.42,-252.405,-36.83
11.46,-254.651,-37.082
11.49,-256.827,-37.219
11.52,-258.16,-37.494
11.56,-259.213,-37.838
11.59,-260.406,-37.987
11.62,-261.81,-37.872
11.65,-262.968,-38.044
11.69,-264.021,-38.136
11.72,-264.934,-38.101
11.75,-266.057,-38.342
11.78,-267.32,-38.502
11.82,-268.373,-38.708
11.85,-269.566,-38.96
11.88,-271.005,-39.155
11.91,-272.128,-39.293
11.95,-271.637,-39.945
11.98,-271.286,-40.942
12.01,-272.69,-41.515
12.04,-274.234,-41.595
12.08,-274.655,-42.007
12.11,-275.357,-42.557
12.14,-277.007,-42.42
12.17,-278.024,-42.145
12.21,-278.726,-42.248
12.24,-279.568,-42.305
12.27,-280.586,-42.466
12.3,-281.393,-42.512
12.34,-281.569,-42.844
12.37,-282.06,-43.038
12.4,-283.324,-43.016
12.43,-284.096,-42.672
12.47,-283.569,-42.489
12.5,-283.64,-42.764
12.53,-285.219,-42.683
12.56,-285.886,-42.294
12.6,-285.57,-42.34
12.63,-285.5,-42.363
12.66,-285.254,-41.985
12.69,-284.482,-41.515
12.73,-283.289,-41.263
12.76,-282.516,-41.309
12.79,-282.376,-41.435
12.82,-282.446,-41.492
12.86,-281.99,-41.503
12.89,-281.007,-41.435
12.92,-280.095,-41.091
12.95,-279.639,-40.621
12.99,-278.831,-40.186
13.02,-277.322,-40.026
13.05,-275.989,-40.026
13.08,-274.023,-40.14
13.12,-271.707,-40.415
13.15,-270.619,-40.392
13.18,-269.601,-40.049
13.22,-267.917,-39.923
13.25,-266.267,-39.911
13.28,-265.46,-39.785
13.31,-265.215,-39.716
13.35,-264.864,-39.693
13.38,-263.635,-39.579
13.41,-261.88,-39.304
13.44,-259.985,-38.846
13.48,-258.441,-38.376
13.51,-256.932,-38.044
13.54,-255.107,-37.861
13.57,-253.142,-37.78
13.61,-251.598,-37.666
13.64,-250.826,-37.517
13.67,-249.773,-37.288
13.7,-247.948,-36.887
13.74,-245.807,-36.463
13.77,-244.157,-36.131
13.8,-242.929,-35.764
13.83,-241.455,-35.443
13.87,-239.314,-35.226
13.9,-237.033,-35.123
13.93,-235.489,-34.894
13.96,-234.331,-34.447
14.0,-232.506,-34.092
14.03,-230.154,-33.966
14.06,-228.224,-33.725
14.09,-226.61,-33.278
14.13,-224.785,-32.923
14.16,-222.96,-32.728
14.19,-220.995,-32.316
14.22,-218.889,-31.812
14.26,-216.502,-31.468
14.29,-214.326,-31.274
14.32,-212.712,-30.976
14.35,-210.922,-30.712
14.39,-208.781,-30.563
14.42,-206.851,-30.38
14.45,-204.71,-29.945
14.48,-202.464,-29.487
14.52,-200.464,-29.051
14.55,-198.428,-28.696
14.58,-196.288,-28.295
14.61,-193.761,-28.192
14.65,-191.901,-28.112
14.68,-190.883,-27.803
14.71,-189.374,-27.276
14.74,-187.057,-26.806
14.78,-184.109,-26.05
14.81,-181.232,-25.66
14.84,-179.793,-25.5
14.88,-178.74,-25.007
14.91,-176.038,-24.297
14.94,-172.212,-23.965
14.97,-169.299,-23.61
15.01,-167.159,-23.06
15.04,-164.561,-22.464
15.07,-160.736,-21.743
15.1,-157.086,-21.514
15.14,-155.086,-21.319
15.17,-153.787,-20.929
15.2,-150.734,-20.013
15.23,-146.207,-19.658
15.27,-142.662,-19.314
15.3,-140.556,-18.993
15.33,-139.433,-18.695
15.36,-137.468,-18.088
15.4,-133.678,-17.596
15.43,-130.028,-17.229
15.46,-127.396,-16.748
15.49,-125.044,-16.072
15.53,-121.991,-15.385
15.56,-117.92,-14.709
15.59,-113.849,-14.079
15.62,-110.199,-13.575
15.66,-107.04,-13.243
15.69,-104.092,-12.819
15.72,-100.899,-12.28
15.75,-97.424,-11.753
15.79,-93.774,-11.1
15.82,-90.019,-10.402
15.85,-86.089,-9.772
15.88,-82.404,-9.313
15.92,-79.105,-8.901
15.95,-75.806,-8.534
15.98,-72.682,-8.202
16.01,-69.734,-7.824
16.05,-66.611,-7.309
16.08,-63.312,-6.793
16.11,-59.943,-6.392
16.14,-57.03,-5.9
16.18,-53.871,-5.247
16.21,-50.116,-4.743
16.24,-46.431,-4.319
16.27,-42.711,-3.792
16.31,-38.815,-3.253
16.34,-35.025,-2.852
16.37,-31.34,-2.543
16.4,-27.76,-2.268
16.44,-24.321,-2.016
16.47,-20.987,-1.787
16.5,-17.513,-1.638
16.54,-14.284,-1.604
16.57,-11.125,-1.432
16.6,-7.861,-1.214
16.63,-4.141,-0.974
16.67,-0.702,-0.733
16.7,0.456,0.103
16.73,0.562,1.455
16.76,2.036,3.036
16.8,6.949,4.135
16.83,12.564,5.075
16.86,17.407,6.037
16.89,21.619,6.701
16.93,26.462,7.068
16.96,31.41,7.32
16.99,35.762,7.584
17.02,39.236,7.755
17.06,42.36,7.973
17.09,45.554,8.259
17.12,48.923,8.534
17.15,52.187,8.786
17.19,55.205,9.142
17.22,58.083,9.6
17.25,61.136,10.081
17.28,64.294,10.562
17.32,67.593,11.055
17.35,71.068,11.513
17.38,74.367,11.948
17.41,77.35,12.361
17.45,80.614,12.853
17.48,84.369,13.323
17.51,87.914,13.655
17.54,90.791,14.09
17.58,93.529,14.606
17.61,96.687,15.098
17.64,100.021,15.499
17.67,103.11,15.9
17.71,106.058,16.416
17.74,109.427,16.92
17.77,112.866,17.332
17.8,116.235,17.779
17.84,119.499,18.157
17.87,122.307,18.478
17.9,125.009,18.982
17.93,128.308,19.429
17.97,132.169,19.898
18.0,135.783,20.219
18.03,138.907,20.803
18.06,142.451,21.514
18.1,146.031,21.674
18.13,148.769,21.88
18.16,151.26,22.258
18.2,153.857,22.602
18.23,156.349,22.945
18.26,158.911,23.381
18.29,162.105,23.839
18.33,165.474,24.183
18.36,168.387,24.526
18.39,170.844,24.813
18.42,172.949,25.111
18.46,175.371,25.385
18.49,178.073,25.729
18.52,180.74,26.222
18.55,183.618,26.714
18.59,186.461,27.069
18.62,188.742,27.39
18.65,190.497,27.608
18.68,192.287,27.757
18.72,194.463,27.952
18.75,196.744,28.364
18.78,199.025,28.822
18.81,201.376,29.131
18.85,203.307,29.429
18.88,205.096,29.739
18.91,206.746,29.796
18.94,207.939,29.922
18.98,209.378,30.346
19.01,211.484,30.747
19.04,213.905,31.148
19.07,216.011,31.411
19.11,217.836,31.778
19.14,219.836,32.167
19.17,222.118,32.431
19.2,224.364,32.717
19.24,226.259,33.164
19.27,228.435,33.645
19.3,230.962,33.92
19.33,233.278,34.115
19.37,235.068,34.447
19.4,237.209,34.722
19.43,239.349,34.962
19.46,241.28,35.363
19.5,243.21,35.81
19.53,245.631,36.154
19.56,248.158,36.474
19.59,250.475,36.83
19.63,252.65,37.105
19.66,254.861,37.253
19.69,256.616,37.425
19.72,257.88,37.654
19.76,259.494,37.975
19.79,261.67,38.067
19.82,263.214,38.021
19.86,263.741,38.101
19.89,264.267,38.284
19.92,265.039,38.17
19.95,264.407,38.158
19.99,263.214,38.72
20.02,264.056,39.384
20.05,265.987,39.693
20.08,266.899,40.083
20.12,267.847,40.828
20.15,269.742,41.194
20.18,271.532,41.274
20.21,272.514,41.595
20.25,273.708,41.973
20.28,275.111,42.053
20.31,276.129,42.294
20.34,277.357,42.592
20.38,278.937,42.58
20.41,279.99,42.454
20.44,280.446,42.386
20.47,280.551,42.317
20.51,280.656,42.214
20.54,280.902,42.099
20.57,281.358,42.03
20.6,282.166,42.076
20.64,283.113,42.065
20.67,283.253,42.122
20.7,283.289,42.248
20.73,283.534,42.145
20.77,283.569,42.088
20.8,283.534,42.111
20.83,283.92,42.156
20.86,284.552,42.34
20.9,285.254,42.512
20.93,285.114,42.718
20.96,284.061,43.038
20.99,283.394,43.119
21.03,283.183,43.027
21.06,283.218,42.947
21.09,283.289,43.038
21.12,283.148,43.256
21.16,283.008,43.336
21.19,282.622,43.119
21.22,282.095,42.58
21.25,281.042,41.996
21.29,279.253,41.652
21.32,277.849,41.412
21.35,277.393,41.091
21.38,277.147,40.999
21.42,276.234,40.965
21.45,274.094,40.747
21.48,271.883,40.358
21.52,270.584,39.9
21.55,269.707,39.476
21.58,268.022,39.247
21.61,265.952,39.281
21.65,264.583,39.384
21.68,263.846,39.35
21.71,262.793,39.098
21.74,260.898,38.823
21.78,259.529,38.479
21.81,258.266,37.609
21.84,251.247,33.977
21.87,236.682,29.888
21.91,225.311,29.028
21.94,223.907,29.292
21.97,225.241,28.937
22.0,222.539,29.487
22.04,218.678,31.4
22.07,219.17,33.141
22.1,223.592,34.344
22.13,228.014,35.764
22.17,230.611,37.196
22.2,231.804,37.987
22.23,233.173,38.548
22.26,235.664,38.811
22.3,237.138,38.365
22.33,235.945,37.551
22.36,234.085,36.99
22.39,233.664,36.303
22.43,232.646,35.34
22.46,230.47,34.722
22.49,228.575,34.183
22.52,226.926,33.301
22.56,224.504,32.213
22.59,221.1,31.537
22.62,217.906,31.205
22.65,215.485,30.781
22.69,213.309,30.277
22.72,210.782,29.956
22.75,208.044,29.75
22.78,205.763,29.544
22.82,203.973,29.04
22.85,201.868,28.605
22.88,199.551,28.57
22.91,197.516,28.616
22.95,196.077,28.41
22.98,194.708,28.181
23.01,193.304,27.997
23.04,191.725,27.608
23.08,189.268,26.921
23.11,186.005,26.325
23.14,183.057,25.924
23.18,180.916,25.454
23.21,178.88,24.916
23.24,176.459,24.515
23.27,173.721,24.125
23.31,170.633,23.576
23.34,167.264,23.037
23.37,164.211,22.487
23.4,161.192,21.96
23.44,158.49,21.514
23.47,156.209,21.032
23.5,153.612,20.483
23.53,150.243,19.944
23.57,146.417,19.44
23.6,142.802,18.867
23.63,139.574,18.295
23.66,136.45,17.802
23.7,133.432,17.332
23.73,130.554,17.0
23.76,127.852,16.771
23.79,125.395,16.404
23.83,122.693,16.049
23.86,119.815,15.648
23.89,117.078,15.11
23.92,114.024,14.594
23.96,111.076,14.262
23.99,109.041,13.77
24.02,106.654,13.014
24.05,103.18,12.418
24.09,99.319,11.879
24.12,95.494,11.112
24.15,91.458,10.367
24.18,87.387,9.863
24.22,83.913,9.371
24.25,80.684,8.878
24.28,77.42,8.408
24.31,73.77,8.076
24.35,70.261,7.744
24.38,67.032,7.297
24.41,63.803,6.816
24.44,60.68,6.495
24.48,57.837,6.152
24.51,54.819,5.728
24.54,51.555,5.35
24.57,48.466,4.96
24.61,45.483,4.433
24.64,42.079,3.883
24.67,38.359,3.288
24.7,34.323,2.772
24.74,30.252,2.348
24.77,26.251,1.97
24.8,22.215,1.604
24.84,18.074,1.375
24.87,14.038,1.123
24.9,9.862,1.008
24.93,6.001,0.951
24.97,2.071,0.859
25.0,0.14,0.504
25.03,-0.351,-0.378
25.06,-0.456,-1.524
25.1,-1.93,-2.898
25.13,-6.668,-3.918
25.16,-11.932,-4.811
25.19,-16.249,-5.716
25.23,-20.25,-6.484
25.26,-24.847,-6.828
25.29,-29.164,-7.068
25.32,-33.621,-7.503
25.36,-37.868,-7.71
25.39,-41.237,-7.927
25.42,-44.325,-8.34
25.45,-47.729,-8.741
25.49,-51.485,-9.027
25.52,-54.854,-9.416
25.55,-57.907,-9.863
25.58,-60.995,-10.264
25.62,-64.189,-10.677
25.65,-67.418,-11.181
25.68,-70.717,-11.616
25.71,-73.875,-11.994
25.75,-76.929,-12.441
25.78,-80.122,-12.956
25.81,-83.632,-13.46
25.84,-87.317,-13.896
25.88,-90.686,-14.411
25.91,-93.599,-14.892
25.94,-96.161,-15.041
25.97,-99.319,-15.476
26.01,-102.969,-15.832
26.04,-106.549,-16.152
26.07,-109.883,-16.645
26.1,-113.077,-17.011
26.14,-116.27,-17.424
26.17,-119.745,-17.79
26.2,-122.833,-18.02
26.23,-125.465,-18.306
26.27,-128.168,-18.627
26.3,-131.046,-19.028
26.33,-134.274,-19.6
26.36,-137.503,-20.265
26.4,-140.977,-20.861
26.43,-144.312,-21.216
26.46,-146.979,-21.445
26.5,-149.19,-21.754
26.53,-151.997,-22.235
26.56,-155.437,-22.602
26.59,-158.56,-23.049
26.63,-161.403,-23.633
26.66,-164.456,-24.114
26.69,-167.439,-24.446
26.72,-170.352,-24.755
26.76,-173.16,-25.065
26.79,-175.371,-25.397
26.82,-177.792,-25.809
26.85,-180.775,-26.325
26.89,-183.723,-26.806
26.92,-186.356,-27.184
26.95,-188.672,-27.402
26.98,-190.813,-27.654
27.02,-192.953,-27.906
27.05,-195.2,-28.043
27.08,-197.305,-28.192
27.11,-199.341,-28.536
27.15,-201.447,-28.822
27.18,-203.236,-28.983
27.21,-204.57,-29.189
27.24,-206.395,-29.406
27.28,-208.606,-29.464
27.31,-210.396,-29.647
27.34,-211.8,-30.002
27.37,-213.449,-30.403
27.41,-215.379,-30.85
27.44,-217.661,-31.262
27.47,-219.907,-31.537
27.5,-221.732,-31.778
27.54,-223.17,-31.984
27.57,-224.995,-32.236
27.6,-227.347,-32.488
27.63,-229.417,-32.728
27.67,-231.172,-33.026
27.7,-232.681,-33.404
27.73,-234.331,-33.679
27.76,-236.226,-33.782
27.8,-237.981,-33.943
27.83,-240.051,-34.229
27.86,-242.052,-34.607
27.89,-243.806,-34.905
27.93,-244.157,-35.466
27.96,-244.684,-36.406
27.99,-246.579,-36.704
28.02,-248.79,-36.875
28.06,-250.65,-37.242
28.09,-252.194,-37.505
28.12,-253.563,-37.792
28.16,-255.669,-38.17
28.19,-258.055,-38.445
28.22,-259.494,-38.571
28.25,-260.301,-38.697
28.29,-261.249,-38.617
28.32,-262.337,-38.559
28.35,-264.162,-38.8
28.38,-265.671,-38.937
28.42,-266.127,-39.132
28.45,-266.829,-39.464
28.48,-268.584,-39.602
28.51,-269.952,-39.625
28.55,-270.935,-39.865
28.58,-272.023,-40.175
28.61,-273.357,-40.346
28.64,-274.655,-40.415
28.68,-275.392,-40.747
28.71,-276.585,-41.16
28.74,-278.094,-41.034
28.77,-278.796,-40.942
28.81,-279.323,-41.022
28.84,-280.13,-40.908
28.87,-280.902,-40.438
28.9,-280.446,-40.518
28.94,-279.007,-41.183
28.97,-278.831,-41.881
29.0,-280.165,-42.271
29.03,-280.797,-42.191
29.07,-280.586,-42.649
29.1,-281.183,-43.05
29.13,-282.095,-42.912
29.16,-282.481,-42.901
29.2,-283.043,-43.199
29.23,-283.85,-43.336
29.26,-284.412,-43.302
29.29,-284.727,-43.313
29.33,-284.622,-43.187
29.36,-284.131,-42.89
29.39,-283.85,-42.569
29.42,-284.166,-42.386
29.46,-284.552,-42.294
29.49,-284.236,-42.237
29.52,-283.324,-42.076
29.55,-282.306,-41.744
29.59,-281.218,-41.274
29.62,-280.025,-40.828
29.65,-278.621,-40.484
29.68,-277.182,-40.209
29.72,-275.848,-40.22
29.75,-274.971,-40.266
29.78,-274.409,-40.014
29.82,-273.181,-39.705
29.85,-271.216,-39.464
29.88,-269.531,-39.121
29.91,-267.461,-38.811
29.95,-265.109,-39.018
29.98,-263.951,-39.315
30.01,-263.741,-39.304
30.04,-263.214,-39.235
30.08,-262.126,-39.189
30.11,-260.406,-38.811
30.14,-258.16,-38.365
30.17,-256.195,-38.113
30.21,-255.388,-37.838
30.24,-254.475,-37.471
30.27,-252.51,-37.311
30.3,-250.475,-37.265
30.34,-249.001,-36.944
30.37,-247.597,-36.314
30.4,-245.667,-35.856
30.43,-243.315,-35.684
30.47,-241.28,-35.455
30.5,-239.56,-35.134
30.53,-238.016,-34.928
30.56,-236.507,-34.882
30.6,-234.962,-34.813
30.63,-233.067,-34.55
30.66,-231.067,-34.332
30.69,-230.084,-34.367
30.73,-229.242,-34.057
30.76,-227.347,-33.599
30.79,-225.241,-33.29
30.82,-223.802,-32.935
30.86,-222.293,-32.373
30.89,-219.836,-31.801
30.92,-216.748,-31.445
30.95,-213.905,-31.205
30.99,-211.87,-30.896
31.02,-210.466,-30.518
31.05,-208.746,-30.288
31.08,-206.535,-30.185
31.12,-204.079,-29.876
31.15,-201.903,-29.464
31.18,-200.218,-29.086
31.21,-198.639,-28.742
31.25,-196.603,-28.398
31.28,-194.463,-28.238
31.31,-192.708,-28.032
31.35,-191.304,-27.745
31.38,-189.619,-27.253
31.41,-186.987,-26.772
31.44,-184.004,-26.382
31.48,-181.512,-25.89
31.51,-179.617,-25.317
31.54,-177.792,-24.927
31.57,-175.301,-24.538
31.61,-172.458,-24.057
31.64,-169.545,-23.53
31.67,-166.948,-23.163
31.7,-164.456,-22.487
31.74,-161.227,-22.029
31.77,-158.279,-21.651
31.8,-156.033,-21.307
31.83,-154.279,-20.975
31.87,-151.646,-20.311
31.9,-147.926,-19.818
31.93,-144.557,-19.28
31.96,-141.82,-18.604
32.0,-139.047,-17.951
32.03,-135.643,-17.447
32.06,-131.853,-17.0
32.09,-128.799,-16.645
32.13,-126.132,-16.198
32.16,-123.43,-15.74
32.19,-120.341,-15.236
32.22,-116.832,-14.686
32.26,-113.393,-14.136
32.29,-110.48,-13.644
32.32,-107.848,-13.162
32.35,-104.9,-12.693
32.39,-101.46,-12.235
32.42,-98.021,-11.788
32.45,-94.547,-11.204
32.48,-91.142,-10.539
32.52,-87.598,-9.909
32.55,-83.913,-9.359
32.58,-80.298,-8.775
32.61,-76.648,-8.237
32.65,-72.928,-7.836
32.68,-69.524,-7.435
32.71,-65.944,-6.931
32.74,-62.645,-6.53
32.78,-59.486,-6.197
32.81,-56.398,-5.831
32.84,-53.415,-5.292
32.87,-50.221,-4.708
32.91,-46.606,-4.193
32.94,-42.711,-3.666
32.97,-38.71,-3.104
33.01,-34.99,-2.623
33.04,-31.445,-2.28
33.07,-27.831,-2.051
33.1,-24.251,-1.936
33.14,-21.057,-1.81
33.17,-18.144,-1.65
33.2,-15.302,-1.398
33.23,-11.757,-0.985
33.27,-7.756,-0.642
33.3,-2.913,-0.504
33.33,0.0,-0.183
33.36,0.456,0.802
33.4,0.667,1.97
33.43,2.773,2.921
33.46,7.335,3.815
33.49,12.564,5.098
33.53,17.828,6.163
33.56,22.566,6.713
33.59,26.813,7.057
33.62,31.094,7.538
33.66,35.727,7.87
33.69,39.868,7.996
33.72,43.097,8.179
33.75,45.94,8.569
33.79,49.168,8.798
33.82,52.257,8.993
33.85,55.064,9.394
33.88,58.328,10.047
33.92,62.469,10.436
33.95,66.014,10.642
33.98,68.787,10.997
34.01,71.594,11.41
34.05,74.753,11.719
34.08,77.911,11.994
34.11,81.0,12.418
34.14,84.229,12.853
34.18,87.563,13.357
34.21,90.826,13.907
34.24,94.266,14.262
34.27,97.179,14.48
34.31,99.635,14.904
34.34,102.197,15.305
34.37,105.286,15.786
34.4,108.304,16.118
34.44,111.252,16.702
34.47,114.586,17.206
34.5,117.92,17.71
34.53,121.254,18.146
34.57,124.588,18.73
34.6,128.694,19.6
34.63,132.941,19.99
34.67,136.275,20.379
34.7,139.153,20.906
34.73,142.381,21.353
34.76,145.821,21.525
34.8,148.698,21.662
34.83,150.909,22.018
34.86,153.226,22.327
34.89,155.893,22.716
34.93,159.157,23.152
34.96,162.526,23.587
34.99,165.439,23.954
35.02,168.036,24.297
35.06,170.598,24.595
35.09,173.195,24.916
35.12,176.038,25.225
35.15,178.88,25.718
35.19,181.583,26.279
35.22,184.285,26.714
35.25,186.671,27.012
35.28,188.812,27.367
35.32,191.093,27.688
35.35,193.515,27.814
35.38,195.866,27.86
35.41,197.762,28.078
35.45,199.622,28.352
35.48,201.411,28.593
35.51,203.342,28.776
35.54,205.132,28.994
35.58,206.641,29.12
35.61,207.974,29.269
35.64,209.659,29.555
35.67,212.256,30.048
35.71,215.485,30.54
35.74,218.222,31.159
35.77,220.363,31.652
35.8,222.153,31.927
35.84,223.978,32.064
35.87,225.732,32.213
35.9,227.171,32.419
35.93,227.873,32.74
35.97,228.54,33.221
36.0,229.979,33.53
36.03,232.085,33.966
36.06,234.682,34.458
36.1,236.717,34.653
36.13,237.384,34.905
36.16,238.612,35.432
36.19,240.332,35.249
36.23,241.42,35.317
36.26,242.824,35.776
36.29,244.403,35.902
36.33,245.561,36.062
36.36,246.684,36.303
36.39,248.158,36.394
36.42,249.387,36.406
36.46,250.439,36.715
36.49,251.878,37.139
36.52,254.054,37.448
36.55,256.055,37.815
36.59,258.16,38.239
36.62,260.231,38.376
36.65,261.53,38.582
36.68,262.582,38.88
36.72,264.056,39.052
36.75,266.162,39.006
36.78,267.461,38.88
36.81,268.373,39.212
36.85,269.882,39.487
36.88,271.426,39.545
36.91,272.269,39.877
36.94,271.953,40.621
36.98,271.777,41.274
37.01,273.181,41.538
37.04,274.76,41.4
37.07,275.392,41.572
37.11,276.024,42.076
37.14,277.322,42.305
37.17,278.586,42.237
37.2,279.182,42.225
37.24,279.358,42.466
37.27,280.06,42.512
37.3,280.656,42.225
37.33,281.429,42.512
37.37,282.236,42.741
37.4,282.762,42.683
37.43,282.903,42.912
37.46,283.604,43.027
37.5,284.271,42.683
37.53,284.341,42.626
37.56,284.587,42.775
37.59,284.903,42.706
37.63,285.043,42.546
37.66,284.763,42.466
37.69,284.552,42.386
37.72,284.377,42.111
37.76,283.78,41.893
37.79,283.359,41.881
37.82,283.359,41.778
37.85,283.464,41.538
37.89,282.236,41.355
37.92,279.533,41.481
37.95,277.673,41.423
37.99,277.042,41.08
38.02,276.55,40.873
38.05,275.427,40.954
38.08,273.813,40.942
38.12,272.444,40.805
38.15,271.461,40.702
38.18,270.619,40.518
38.21,269.321,40.243
38.25,267.32,39.957
38.28,265.495,39.648
38.31,264.442,39.464
38.34,263.881,39.235
38.38,262.653,38.983
38.41,260.091,38.559
38.44,257.002,37.735
38.47,254.16,36.795
38.51,252.054,36.348
38.54,250.896,36.2
38.57,249.422,36.142
38.6,247.737,36.314
38.64,246.86,36.692
38.67,246.614,36.967
38.7,246.017,37.093
38.73,245.0,37.276
38.77,244.508,37.483
38.8,244.824,37.425
38.83,244.508,37.242
38.86,243.175,37.082
38.9,241.525,36.83
38.93,240.613,36.44
38.96,239.806,35.936
38.99,237.84,35.203
39.03,234.541,34.241
39.06,231.242,33.599
39.09,229.066,33.141
39.12,227.101,32.557
39.16,224.188,32.064
39.19,220.995,31.892
39.22,218.362,31.594
39.25,216.362,31.262
39.29,214.537,31.102
39.32,212.572,31.01
39.35,210.712,30.781
39.38,208.746,30.609
39.42,206.992,30.495
39.45,205.482,30.22
39.48,203.658,29.681
39.51,201.376,29.166
39.55,199.095,28.799
39.58,196.884,28.513
39.61,195.2,28.112
39.65,193.62,27.803
39.68,191.866,27.642
39.71,189.97,27.287
39.74,187.408,26.795
39.78,184.531,26.222
39.81,181.969,25.718
39.84,179.688,25.237
39.87,177.336,24.813
39.91,174.809,24.423
39.94,171.967,24.034
39.97,169.089,23.495
40.0,166.211,23.037
40.04,163.579,22.579
40.07,160.666,22.04
40.1,157.683,21.468
40.13,155.542,21.41
40.17,154.033,20.975
40.2,151.436,20.15
40.23,147.716,19.715
40.26,144.522,19.555
40.3,142.697,19.177
40.33,140.486,18.398
40.36,137.643,18.1
40.39,134.415,17.642
40.43,131.151,17.275
40.46,128.062,16.874
40.49,125.044,16.267
40.52,121.851,15.637
40.56,118.306,15.064
40.59,114.481,14.308
40.62,110.655,13.666
40.65,107.497,13.357
40.69,104.865,12.945
40.72,101.846,12.315
40.75,98.337,11.719
40.78,94.582,11.1
40.82,90.335,10.436
40.85,86.053,9.657
40.88,81.596,9.05
40.91,77.771,8.775
40.95,74.963,8.408
40.98,72.296,7.87
41.01,69.208,7.469
41.04,65.909,7.125
41.08,62.61,6.667
41.11,59.381,6.197
41.14,56.433,5.728
41.17,53.239,5.384
41.21,50.011,5.075
41.24,46.817,4.72
41.27,43.729,4.342
41.31,40.465,3.906
41.34,37.061,3.437
41.37,33.376,2.944
41.4,29.585,2.555
41.44,26.041,2.188
41.47,22.426,1.787
41.5,18.636,1.455
41.53,14.459,1.111
41.57,10.037,0.882
41.6,5.756,0.699
41.63,1.579,0.756
41.66,-0.035,0.389
41.7,-0.351,-0.687
41.73,-0.491,-1.97
41.76,-3.018,-3.345
41.79,-8.669,-4.433
41.83,-14.073,-5.315
41.86,-18.285,-6.197
41.89,-22.672,-6.793
41.92,-27.48,-7.045
41.96,-32.112,-7.24
41.99,-36.078,-7.458
42.02,-39.236,-7.71
42.05,-42.184,-7.996
42.09,-45.343,-8.248
42.12,-48.607,-8.511
42.15,-51.73,-8.809
42.18,-54.678,-9.153
42.22,-57.486,-9.623
42.25,-60.645,-10.104
42.28,-64.049,-10.482
42.31,-67.558,-10.894
42.35,-70.927,-11.272
42.38,-73.77,-11.662
42.41,-76.508,-12.166
42.44,-79.631,-12.704
42.48,-83.351,-13.208
42.51,-87.036,-13.701
42.54,-90.16,-14.262
42.57,-93.178,-14.72
42.61,-96.266,-15.156
42.64,-99.319,-15.58
42.67,-102.548,-16.038
42.7,-106.023,-16.496
42.74,-109.673,-16.92
42.77,-113.042,-17.332
42.8,-116.235,-17.859
42.83,-119.183,-18.123
42.87,-122.096,-18.501
42.9,-125.15,-18.661
42.93,-127.887,-19.142
42.97,-130.73,-19.704
43.0,-134.099,-20.494
43.03,-138.626,-21.078
43.06,-142.943,-21.33
43.1,-146.452,-21.697
43.13,-148.979,-21.662
43.16,-150.874,-21.972
43.19,-153.506,-22.487
43.23,-156.876,-22.819
43.26,-160.385,-23.129
43.29,-163.474,-23.53
43.32,-166.246,-23.828
43.36,-168.703,-24.034
43.39,-170.844,-24.286
43.42,-173.37,-24.698
43.45,-176.283,-25.065
43.49,-179.091,-25.397
43.52,-181.723,-25.901
43.55,-184.355,-26.394
43.58,-186.917,-26.669
43.62,-188.988,-26.898
43.65,-191.093,-27.218
43.68,-193.375,-27.436
43.71,-195.34,-27.516
43.75,-197.025,-27.631
43.78,-199.06,-27.997
43.81,-201.482,-28.238
43.84,-203.447,-28.33
43.88,-204.745,-28.41
43.91,-205.693,-28.65
43.94,-206.851,-29.051
43.97,-208.36,-29.532
44.01,-210.22,-30.002
44.04,-212.396,-30.563
44.07,-214.888,-31.045
44.1,-217.204,-31.377
44.14,-219.205,-31.606
44.17,-221.17,-31.858
44.2,-222.96,-32.076
44.23,-224.855,-32.282
44.27,-226.575,-32.557
44.3,-228.224,-32.877
44.33,-229.944,-33.244
44.36,-232.365,-33.679
44.4,-234.506,-33.702
44.43,-235.77,-33.84
44.46,-237.033,-33.989
44.49,-238.472,-34.183
44.53,-240.753,-34.722
44.56,-243.315,-35.18
44.59,-245.28,-35.592
44.63,-247.0,-35.97
44.66,-249.141,-36.188
44.69,-250.931,-36.222
44.72,-251.949,-36.36
44.76,-253.107,-36.612
44.79,-254.861,-36.589
44.82,-256.265,-36.6
44.85,-257.599,-36.852
44.89,-258.897,-37.093
44.92,-260.266,-37.242
44.95,-260.582,-37.471
44.98,-259.845,-38.078
45.02,-259.915,-38.846
45.05,-261.951,-39.441
45.08,-264.723,-40.026
45.11,-266.232,-40.427
45.15,-266.934,-40.873
45.18,-268.408,-41.16
45.21,-270.338,-41.034
45.24,-271.742,-41.114
45.28,-272.865,-41.412
45.31,-274.023,-41.549
45.34,-275.287,-41.641
45.37,-276.585,-41.79
45.41,-277.708,-41.847
45.44,-278.621,-41.755
45.47,-279.182,-41.561
45.5,-279.428,-41.469
45.54,-279.674,-41.286
45.57,-279.604,-41.091
45.6,-279.604,-41.435
45.63,-280.867,-41.778
45.67,-281.323,-41.503
45.7,-281.007,-41.744
45.73,-281.99,-42.053
45.76,-283.008,-41.847
45.8,-282.832,-41.95
45.83,-283.253,-42.271
45.86,-284.587,-42.237
45.89,-285.394,-42.088
45.93,-284.657,-42.534
45.96,-283.148,-43.291
45.99,-282.903,-43.313
46.02,-282.938,-42.855
46.06,-282.306,-42.695
46.09,-281.253,-42.775
46.12,-280.937,-42.741
46.15,-281.007,-42.718
46.19,-281.253,-42.764
46.22,-281.113,-42.592
46.25,-279.533,-42.248
46.29,-277.954,-41.95
46.32,-277.182,-41.549
46.35,-276.796,-41.24
46.38,-276.234,-41.103
46.42,-274.69,-41.091
46.45,-273.146,-40.954
46.48,-272.444,-40.553
46.51,-271.391,-40.037
46.55,-269.391,-39.705
46.58,-267.145,-39.35
46.61,-265.215,-39.144
46.64,-264.302,-39.132
46.68,-263.951,-39.086
46.71,-262.933,-38.949
46.74,-261.459,-38.869
46.77,-260.231,-38.445
46.81,-258.476,-37.975
46.84,-256.686,-37.677
46.87,-255.142,-37.448
46.9,-253.773,-37.185
46.94,-252.194,-36.967
46.97,-250.65,-36.887
47.0,-248.965,-36.784
47.03,-246.895,-36.497
47.07,-244.93,-36.177
47.1,-243.491,-35.936
47.13,-242.122,-35.65
47.16,-240.086,-35.478
47.2,-237.946,-35.352
47.23,-237.244,-35.34
47.26,-237.138,-35.191
47.29,-235.454,-34.768
47.33,-232.225,-34.367
47.36,-229.944,-34.046
47.39,-228.821,-33.656
47.42,-227.452,-33.129
47.46,-225.066,-32.66
47.49,-222.539,-32.316
47.52,-220.258,-31.789
47.55,-217.941,-31.331
47.59,-215.871,-31.033
47.62,-213.87,-30.781
47.65,-211.87,-30.586
47.68,-210.045,-30.426
47.72,-208.466,-30.288
47.75,-207.132,-30.231
47.78,-205.447,-30.025
47.81,-203.236,-29.658
47.85,-201.131,-29.269
47.88,-198.99,-28.902
47.91,-196.884,-28.547
47.95,-194.778,-28.261
47.98,-192.989,-27.917
48.01,-191.374,-27.551
48.04,-189.198,-27.207
48.08,-186.601,-26.852
48.11,-184.039,-26.439
48.14,-181.723,-25.947
48.17,-179.582,-25.385
48.21,-177.196,-25.065
48.24,-175.02,-24.687
48.27,-172.704,-24.091
48.3,-169.756,-23.564
48.34,-166.492,-23.049
48.37,-163.579,-22.567
48.4,-160.876,-21.937
48.43,-158.244,-21.548
48.47,-155.682,-21.216
48.5,-152.84,-20.906
48.53,-150.208,-20.631
48.56,-147.61,-20.093
48.6,-144.557,-19.452
48.63,-141.434,-19.051
48.66,-139.153,-18.833
48.69,-137.082,-18.283
48.73,-134.029,-17.699
48.76,-130.344,-17.103
48.79,-126.974,-16.714
48.82,-124.342,-16.187
48.86,-121.465,-15.58
48.89,-118.13,-15.075
48.92,-114.481,-14.571
48.95,-110.866,-14.056
48.99,-107.848,-13.495
49.02,-105.04,-12.91
49.05,-101.706,-12.429
49.08,-97.986,-11.937
49.12,-94.02,-11.295
49.15,-90.054,-10.562
49.18,-86.194,-9.829
49.21,-82.368,-9.29
49.25,-78.578,-8.752
49.28,-74.893,-8.237
49.31,-71.419,-7.847
49.34,-68.436,-7.538
49.38,-65.347,-7.171
49.41,-62.119,-6.679
49.44,-58.504,-6.255
49.47,-55.064,-5.911
49.51,-52.081,-5.43
49.54,-49.028,-4.914
49.57,-45.834,-4.513
49.61,-42.36,-4.113
49.64,-38.991,-3.62
49.67,-35.692,-3.162
49.7,-32.112,-2.933
49.74,-28.813,-2.704
49.77,-25.549,-2.406
49.8,-22.321,-2.108
49.83,-18.987,-1.867
49.87,-15.547,-1.569
49.9,-11.722,-1.191
49.93,-7.756,-0.836
49.96,-3.088,-0.664
50.0,-0.035,-0.321
50.03,0.456,0.745
50.06,0.667,1.97
50.09,3.088,3.242
50.13,8.633,4.422
50.16,14.424,5.418
50.19,18.951,6.175
50.22,23.058,6.759
50.26,27.515,7.068
50.29,31.902,7.297
50.32,35.902,7.584
50.35,39.377,7.824
50.39,42.43,7.973
50.42,45.518,8.225
50.45,48.502,8.557
50.48,51.379,8.867
50.52,54.222,9.233
50.55,57.065,9.634
50.58,60.188,10.115
50.61,63.979,10.871
50.65,67.699,11.158
50.68,70.612,11.364
50.71,73.665,12.005
50.74,76.964,12.464
50.78,80.263,12.842
50.81,83.632,13.414
50.84,87.036,14.01
50.87,90.475,14.342
50.91,93.248,14.297
50.94,94.792,14.159
50.97,96.687,14.423
51.0,100.583,15.202
51.04,105.426,15.797
51.07,109.251,16.141
51.1,112.024,16.737
51.13,115.288,17.424
51.17,119.078,17.882
51.2,122.728,18.203
51.23,125.992,18.65
51.27,129.361,19.257
51.3,133.081,19.944
51.33,137.012,20.414
51.36,140.346,20.838
51.4,143.469,21.216
51.43,145.891,21.227
51.46,148.242,21.697
51.49,151.085,21.811
51.53,153.296,21.811
51.56,155.472,22.155
51.59,158.35,22.625
51.62,161.473,23.106
51.66,164.175,23.564
51.69,166.597,24.102
51.72,169.37,24.538
51.75,172.318,24.813
51.79,175.195,25.042
51.82,177.863,25.454
51.85,180.6,25.993
51.88,183.513,26.474
51.92,186.11,26.921
51.95,188.321,27.344
51.98,190.462,27.631
52.01,192.743,27.791
52.05,194.989,27.997
52.08,197.305,28.249
52.11,199.446,28.524
52.14,201.306,28.799
52.18,203.026,29.051
52.21,204.816,29.326
52.24,206.5,29.338
52.27,207.448,29.154
52.31,209.203,29.613
52.34,212.326,30.426
52.37,215.66,30.919
52.4,217.906,31.319
52.44,219.661,31.927
52.47,221.626,32.179
52.5,223.416,31.927
52.53,224.925,31.835
52.57,226.364,32.11
52.6,227.838,32.362
52.63,229.172,32.396
52.66,230.716,32.694
52.7,232.225,32.832
52.73,232.787,32.832
52.76,233.418,33.221
52.8,235.243,33.519
52.83,237.489,33.668
52.86,239.349,34.069
52.89,240.858,34.676
52.93,242.438,35.18
52.96,243.42,35.753
52.99,244.789,36.612
53.02,246.614,37.047
53.06,248.158,37.265
53.09,249.913,37.746
53.12,252.019,38.307
53.15,254.44,38.685
53.19,256.721,39.018
53.22,258.582,39.396
53.25,260.126,39.716
53.28,261.67,39.705
53.32,262.898,39.613
53.35,264.372,39.671
53.38,265.987,39.567
53.41,266.583,39.556
53.45,267.004,39.98
53.48,268.478,40.232
53.51,270.233,40.117
53.54,271.181,40.209
53.58,272.023,40.598
53.61,273.322,40.667
53.64,274.48,40.598
53.67,275.252,40.828
53.71,276.585,41.08
53.74,277.744,41.011
53.77,278.2,41.24
53.8,278.831,41.423
53.84,279.288,41.423
53.87,279.849,41.297
53.9,279.744,41.423
53.93,279.042,41.985
53.97,279.358,42.58
54.0,280.516,42.706
54.03,281.042,42.867
54.06,281.499,43.199
54.1,282.516,43.6
54.13,283.569,43.737
54.16,283.955,43.371
54.19,283.78,43.394
54.23,285.254,44.092
54.26,286.482,43.554
54.29,285.394,43.336
54.32,284.763,43.371
54.36,284.798,43.004
54.39,284.552,42.408
54.42,283.464,41.985
54.46,282.341,42.019
54.49,282.552,42.191
54.52,283.148,41.973
54.55,282.236,41.778
54.59,280.797,41.664
54.62,279.498,41.24
54.65,278.656,40.942
54.68,277.814,40.45
54.72,276.164,40.278
54.75,274.585,40.232
54.78,273.532,40.026
54.81,272.514,39.716
54.85,270.97,39.43
54.88,268.794,39.189
54.91,266.478,39.109
54.94,264.828,39.144
54.98,264.162,39.109
55.01,263.53,39.086
55.04,262.126,39.178
55.07,260.301,39.167
55.11,258.722,38.926
55.14,257.915,38.788
55.17,257.108,38.284
55.2,254.967,37.78
55.24,252.615,37.861
55.27,252.019,38.124
55.3,252.861,38.044
55.33,252.44,37.62
55.37,250.053,37.276
55.4,247.316,37.013
55.43,246.017,36.646
55.46,245.175,36.085
55.5,243.42,35.684
55.53,240.227,35.146
55.56,236.436,34.733
55.59,234.576,34.722
55.63,234.366,34.355
55.66,233.138,33.805
55.69,230.19,33.737
55.72,227.663,33.748
55.76,226.224,33.393
55.79,225.276,33.015
55.82,224.048,32.9
55.85,222.433,32.534
55.89,219.836,31.869
55.92,216.783,31.491
55.95,214.853,31.262
55.98,213.449,30.941
56.02,211.449,30.747
56.05,209.097,30.701
56.08,207.202,30.518
56.12,205.693,30.162
56.15,204.114,29.693
56.18,201.833,29.189
56.21,198.955,28.845
56.25,196.463,28.605
56.28,194.989,28.375
56.31,193.796,28.123
56.34,191.971,27.826
56.38,189.409,27.413
56.41,186.566,27.024
56.44,184.285,26.588
56.47,182.6,26.016
56.51,180.53,25.466
56.54,177.863,25.156
56.57,175.23,24.836
56.6,172.774,24.343
56.64,170.317,23.702
56.67,167.264,23.175
56.7,164.175,22.682
56.73,161.087,22.029
56.77,158.139,21.536
56.8,155.682,21.239
56.83,153.436,20.792
56.86,150.699,20.23
56.9,147.224,19.704
56.93,143.82,19.326
56.96,141.328,18.89
56.99,138.837,18.34
57.03,136.029,18.042
57.06,133.572,17.722
57.09,130.484,16.943
57.12,127.361,16.668
57.16,125.15,16.542
57.19,123.254,16.003
57.22,119.78,15.098
57.25,114.621,14.297
57.29,110.234,14.067
57.32,108.058,13.712
57.35,105.952,12.865
57.38,102.162,12.154
57.42,97.67,11.662
57.45,93.353,11.009
57.48,89.563,10.413
57.51,86.369,9.898
57.55,83.176,9.405
57.58,79.596,8.901
57.61,75.7,8.454
57.64,72.156,8.088
57.68,69.173,7.721
57.71,66.295,7.263
57.74,63.347,6.805
57.78,60.364,6.358
57.81,57.17,5.9
57.84,53.906,5.464
57.87,50.572,5.029
57.91,46.992,4.617
57.94,43.694,4.09
57.97,40.254,3.482
58.0,36.674,3.036
58.04,33.165,2.704
58.07,29.796,2.131
58.1,25.62,1.638
58.13,21.584,1.535
58.17,18.144,1.455
58.2,14.705,1.168
58.23,10.739,0.836
58.26,6.528,0.664
58.3,2.071,0.561
58.33,0.07,0.218
58.36,-0.281,-0.664
58.39,-0.526,-1.867
58.43,-3.053,-3.265
58.46,-8.458,-4.17
58.49,-13.301,-4.914
58.52,-17.021,-5.865
58.56,-21.268,-6.587
58.59,-26.321,-6.931
58.62,-30.814,-7.286
58.65,-34.99,-7.675
58.69,-38.464,-7.732
58.72,-41.202,-7.87
58.75,-44.29,-8.328
58.78,-47.87,-8.649
58.82,-50.713,-8.867
58.85,-53.239,-9.325
58.88,-56.223,-9.829
58.91,-59.627,-10.241
58.95,-63.242,-10.654
58.98,-66.997,-11.043
59.01,-70.612,-11.33
59.04,-73.84,-11.65
59.08,-76.823,-12.04
59.11,-79.842,-12.578
59.14,-83.211,-13.14
59.17,-87.036,-13.655
59.21,-90.616,-14.125
59.24,-93.985,-14.56
59.27,-97.038,-14.938
59.3,-99.951,-15.328
59.34,-103.355,-15.706
59.37,-106.865,-16.198
59.4,-110.234,-16.668
59.44,-113.393,-17.183
59.47,-116.586,-17.733
59.5,-119.815,-18.168
59.53,-122.623,-18.65
59.57,-125.465,-19.234
59.6,-129.115,-19.807
59.63,-133.397,-20.425
59.66,-137.608,-20.815
59.7,-140.977,-21.147
59.73,-143.996,-21.685
59.76,-147.014,-21.903
59.79,-149.471,-22.063
59.83,-151.787,-22.487
59.86,-154.208,-22.693
59.89,-156.525,-23.014
59.92,-159.683,-23.553
59.96,-164.0,-24.16
59.99,-167.159,-24.034
60.02,-168.492,-24.091
60.05,-169.861,-24.584
60.09,-172.774,-25.168
60.12,-175.967,-25.168
60.15,-177.757,-25.328
60.18,-179.863,-26.061
60.22,-183.583,-26.772
60.25,-187.093,-26.955
60.28,-189.198,-27.253
60.31,-191.304,-27.711
60.35,-194.182,-28.135
60.38,-196.568,-28.009
60.41,-197.34,-27.883
60.44,-198.463,-28.352
60.48,-201.306,-28.925
60.51,-204.184,-28.983
60.54,-205.482,-29.086
60.57,-206.43,-29.487
60.61,-208.852,-29.796
60.64,-211.028,-29.498
60.67,-211.449,-29.361
60.7,-212.466,-29.888
60.74,-214.923,-30.518
60.77,-217.801,-30.873
60.8,-219.556,-31.216
60.83,-220.959,-31.824
60.87,-222.96,-32.144
60.9,-225.031,-32.328
60.93,-226.469,-32.843
60.96,-227.979,-33.553
61.0,-229.839,-33.714
61.03,-231.839,-34.046
61.06,-234.015,-34.561
61.1,-235.84,-34.664
61.13,-236.717,-34.756
61.16,-238.086,-35.157
61.19,-240.402,-35.592
61.23,-242.789,-35.799
61.26,-244.614,-36.051
61.29,-246.263,-36.417
61.32,-247.772,-36.646
61.36,-249.106,-36.784
61.39,-250.615,-36.933
61.42,-252.405,-37.093
61.45,-254.054,-37.299
61.49,-255.634,-37.551
61.52,-257.213,-37.803
61.55,-258.792,-38.09
61.58,-260.056,-38.33
61.62,-261.284,-38.605
61.65,-262.933,-38.697
61.68,-264.653,-38.731
61.71,-265.706,-38.857
61.75,-266.548,-39.063
61.78,-267.952,-39.132
61.81,-269.707,-39.144
61.84,-271.181,-39.201
61.88,-272.093,-39.522
61.91,-272.725,-39.9
61.94,-272.69,-40.381
61.97,-272.549,-41.034
62.01,-273.286,-41.561
62.04,-274.48,-41.801
62.07,-275.427,-42.007
62.1,-276.164,-42.282
62.14,-277.112,-42.431
62.17,-277.919,-42.477
62.2,-278.726,-42.466
62.23,-279.849,-42.34
62.27,-280.867,-42.5
62.3,-281.534,-42.844
62.33,-282.166,-43.176
62.36,-283.359,-43.016
62.4,-284.061,-42.867
62.43,-284.306,-42.683
62.46,-283.815,-42.317
62.49,-283.99,-42.798
62.53,-285.745,-42.798
62.56,-285.886,-42.374
62.59,-284.903,-42.821
62.62,-285.184,-42.752
62.66,-285.851,-42.34
62.69,-285.535,-41.904
62.72,-283.675,-41.412
62.76,-282.516,-41.435
62.79,-283.253,-41.549
62.82,-284.131,-41.366
62.85,-282.903,-41.16
62.89,-280.446,-41.148
62.92,-279.182,-40.85
62.95,-278.796,-40.346
62.98,-278.024,-39.98
63.02,-276.971,-39.854
63.05,-275.883,-39.797
63.08,-274.725,-39.728
63.11,-272.374,-39.877
63.15,-270.058,-40.094
63.18,-268.724,-39.854
63.21,-267.461,-39.567
63.24,-266.092,-39.522
63.28,-264.969,-39.602
63.31,-264.091,-39.671
63.34,-263.425,-39.693
63.37,-262.617,-39.659
63.41,-261.705,-39.464
63.44,-259.985,-39.063
63.47,-257.985,-38.64
63.5,-256.546,-38.262
63.54,-255.669,-38.01
63.57,-254.932,-37.815
63.6,-253.528,-37.643
63.63,-251.878,-37.54
63.67,-250.826,-37.253
63.7,-249.422,-36.532
63.73,-246.86,-36.028
63.76,-244.508,-35.81
63.8,-242.859,-35.466
63.83,-241.245,-35.088
63.86,-239.455,-34.733
63.89,-237.279,-34.481
63.93,-235.384,-34.183
63.96,-233.208,-33.725
63.99,-230.505,-33.496
64.02,-227.979,-33.519
64.06,-226.469,-33.496
64.09,-225.452,-33.381
64.12,-224.329,-33.347
64.15,-223.381,-33.313
64.19,-222.258,-33.038
64.22,-220.117,-32.534
64.25,-217.801,-32.11
64.28,-215.836,-31.766
64.32,-214.116,-31.423
64.35,-212.396,-31.136
64.38,-210.747,-30.815
64.42,-208.676,-30.586
64.45,-206.325,-30.323
64.48,-204.044,-29.75
64.51,-201.692,-29.2
64.55,-199.586,-28.788
64.58,-197.411,-28.41
64.61,-194.989,-28.181
64.64,-193.059,-28.009
64.68,-191.585,-27.665
64.71,-190.146,-27.138
64.74,-187.373,-26.565
64.77,-183.864,-26.164
64.81,-181.197,-25.66
64.84,-178.986,-25.168
64.87,-176.88,-24.87
64.9,-174.809,-24.526
64.94,-172.774,-23.954
64.97,-170.212,-23.346
65.0,-167.194,-22.808
65.03,-163.789,-22.315
65.07,-160.42,-21.788
65.1,-157.367,-21.25
65.13,-154.665,-20.975
65.16,-152.559,-20.597
65.2,-149.786,-19.898
65.23,-146.277,-19.417
65.26,-143.083,-19.051
65.29,-140.17,-18.283
65.33,-137.503,-18.054
65.36,-135.818,-18.146
65.39,-134.239,-17.836
65.42,-131.502,-17.286
65.46,-127.711,-16.519
65.49,-123.921,-16.015
65.52,-120.938,-15.419
65.55,-117.709,-14.732
65.59,-113.989,-14.056
65.62,-110.129,-13.506
65.65,-106.865,-13.082
65.68,-103.917,-12.567
65.72,-100.548,-11.971
65.75,-97.038,-11.49
65.78,-93.423,-10.894
65.81,-89.738,-10.333
65.85,-86.089,-9.817
65.88,-82.755,-9.371
65.91,-79.456,-8.878
65.94,-76.192,-8.385
65.98,-72.682,-8.007
66.01,-69.278,-7.629
66.04,-66.049,-7.102
66.08,-62.891,-6.644
66.11,-59.908,-6.278
66.14,-56.889,-5.888
66.17,-53.345,-5.43
66.21,-49.765,-5.029
66.24,-46.501,-4.605
66.27,-43.307,-4.158
66.3,-39.798,-3.689
66.34,-36.078,-3.276
66.37,-32.603,-2.772
66.4,-28.638,-2.348
66.43,-24.847,-2.096
66.47,-21.198,-1.81
66.5,-17.372,-1.615
66.53,-13.828,-1.386
66.56,-10.037,-1.008
66.6,-5.826,-0.745
66.63,-1.579,-0.71
66.66,0.246,-0.183
66.69,0.526,1.065
66.73,1.263,2.612
66.76,5.159,3.746
66.79,10.423,4.468
66.82,14.775,5.464
66.86,18.987,6.278
66.89,22.917,6.53
66.92,26.813,6.747
66.95,31.024,7.068
66.99,34.99,7.171
67.02,37.938,7.206
67.05,40.43,7.48
67.08,43.448,7.893
67.12,46.957,8.248
67.15,50.607,8.718
67.18,54.047,9.279
67.21,57.591,9.714
67.25,61.066,10.069
67.28,64.505,10.585
67.31,68.12,11.089
67.34,71.594,11.478
67.38,74.823,11.845
67.41,77.525,12.246
67.44,80.403,12.67
67.47,83.456,13.036
67.51,86.229,13.254
67.54,88.931,13.609
67.57,91.985,14.113
67.6,95.354,14.617
67.64,98.758,15.041
67.67,101.846,15.511
67.7,105.11,16.129
67.74,108.69,16.782
67.77,112.34,17.355
67.8,116.095,17.928
67.83,119.71,18.386
67.87,123.009,18.718
67.9,126.097,19.154
67.93,129.501,19.692
67.96,133.853,19.956
68.0,137.924,20.093
68.03,141.048,20.425
68.06,144.031,20.906
68.09,146.417,20.861
68.13,148.383,21.021
68.16,151.015,21.525
68.19,154.068,21.766
68.22,156.805,22.166
68.26,159.508,22.579
68.29,162.421,23.175
68.32,166.351,24.194
68.35,169.861,23.988
68.39,170.984,23.816
68.42,172.668,24.584
68.45,176.213,25.122
68.48,179.688,25.431
68.52,182.285,25.958
68.55,185.022,26.531
68.58,187.865,26.691
68.61,190.181,26.714
68.65,192.076,26.898
68.68,193.831,27.001
68.71,195.305,27.127
68.74,196.849,27.47
68.78,199.06,27.883
68.81,201.236,27.986
68.84,202.64,28.215
68.87,204.254,28.616
68.91,206.044,28.65
68.94,206.921,28.776
68.97,207.834,29.464
69.0,210.361,30.185
69.04,213.695,30.689
69.07,216.467,31.285
69.1,218.784,31.892
69.13,220.889,32.076
69.17,222.363,32.236
69.2,224.223,32.706
69.23,226.118,32.545
69.26,226.996,32.454
69.3,228.189,32.877
69.33,230.646,33.255
69.36,233.067,33.45
69.4,234.822,33.633
69.43,235.735,33.679
69.46,236.507,33.817
69.49,238.051,34.195
69.53,240.508,34.573
69.56,242.999,34.871
69.59,244.614,35.317
69.62,245.982,35.879
69.66,248.123,36.188
69.69,250.124,36.108
69.72,251.071,36.2
69.75,252.159,36.555
69.79,254.089,36.818
69.82,256.09,37.082
69.85,257.774,37.494
69.88,259.283,37.861
69.92,260.933,37.964
69.95,261.249,38.055
69.98,260.442,38.594
70.01,261.179,39.109
70.05,263.179,39.407
70.08,265.109,39.888
70.11,266.162,40.346
70.14,266.899,40.736
70.18,268.513,40.976
70.21,270.444,40.816
70.24,271.742,40.896
70.27,272.971,41.194
70.31,274.445,41.343
70.34,275.743,41.469
70.37,276.901,41.744
70.4,278.235,41.767
70.44,278.972,41.778
70.47,279.709,41.698
70.5,280.165,41.538
70.53,280.235,41.4
70.57,280.235,41.389
70.6,280.797,41.481
70.63,281.393,41.561
70.66,281.744,41.561
70.7,281.955,41.629
70.73,282.271,41.652
70.76,283.078,41.881
70.79,284.166,41.733
70.83,283.815,41.366
70.86,282.867,41.572
70.89,284.201,42.328
70.92,285.289,42.294
70.96,283.253,42.557
70.99,281.183,43.05
71.02,282.201,43.565
71.06,283.885,43.119
71.09,282.587,42.729
71.12,281.148,43.245
71.15,282.411,43.531
71.19,283.71,42.901
71.22,282.236,42.569
71.25,280.341,42.615
71.28,280.095,42.397
71.32,280.13,41.503
71.35,278.094,40.816
71.38,275.989,41.08
71.41,275.638,40.999
71.45,274.725,40.278
71.48,272.971,40.358
71.51,272.023,40.381
71.54,270.233,39.716
71.58,267.355,39.419
71.61,265.671,39.304
71.64,265.425,39.086
71.67,264.864,38.846
71.71,263.249,38.834
71.74,261.319,38.651
71.77,259.95,38.25
71.8,258.968,37.872
71.84,257.669,37.574
71.87,256.195,37.425
71.9,254.826,37.276
71.93,253.282,37.082
71.97,251.387,37.047
72.0,249.738,37.024
72.03,247.772,36.6
72.06,245.28,36.165
72.1,243.806,36.337
72.13,243.561,36.222
72.16,242.192,35.718
72.19,239.174,35.352
72.23,236.998,35.489
72.26,237.524,35.879
72.29,238.718,35.764
72.32,237.349,35.512
72.36,234.752,35.547
72.39,233.243,35.421
72.42,232.787,34.882
72.45,231.523,34.355
72.49,229.102,33.92
72.52,226.399,33.336
72.55,224.048,32.683
72.58,222.188,32.133
72.62,219.836,31.423
72.65,216.257,30.426
72.68,212.572,30.071
72.72,211.238,30.151
72.75,210.817,29.796
72.78,208.43,29.074
72.81,204.956,29.143
72.85,203.938,29.716
72.88,204.008,29.326
72.91,202.289,29.005
72.94,199.657,29.143
72.98,197.411,28.834
73.01,194.849,28.112
73.04,192.252,27.585
73.07,189.83,27.104
73.11,187.022,26.52
73.14,184.145,25.981
73.17,181.477,25.523
73.2,179.337,25.099
73.24,177.266,24.629
73.27,174.353,23.896
73.3,170.071,23.071
73.33,165.79,22.705
73.37,163.052,22.361
73.4,160.947,21.594
73.43,157.893,20.964
73.46,154.384,20.838
73.5,151.611,20.609
73.53,148.874,19.91
73.56,145.259,19.165
73.59,141.644,18.867
73.63,139.082,18.638
73.66,137.117,18.168
73.69,134.45,17.813
73.72,131.712,17.699
73.76,129.431,17.47
73.79,126.659,16.725
73.82,122.939,15.9
73.85,119.254,15.465
73.89,116.376,15.041
73.92,113.708,14.354
73.95,110.55,13.77
73.98,107.356,13.449
74.02,104.724,12.933
74.05,101.355,12.097
74.08,96.968,11.307
74.11,92.406,10.699
74.15,88.545,10.081
74.18,84.966,9.416
74.21,81.281,8.832
74.25,77.701,8.569
74.28,74.507,8.282
74.31,71.313,7.778
74.34,67.734,7.228
74.38,64.084,6.862
74.41,60.75,6.507
74.44,57.591,6.003
74.47,54.362,5.59
74.51,51.555,5.407
74.54,49.168,5.098
74.57,46.115,4.491
74.6,41.904,3.769
74.64,37.692,3.322
74.67,34.042,2.852
74.7,30.603,2.325
74.73,26.848,2.005
74.77,23.163,1.89
74.8,19.513,1.65
74.83,15.863,1.283
74.86,11.511,0.916
74.9,7.23,0.779
74.93,3.018,0.813
74.96,0.281,0.584
74.99,-0.351,-0.424
75.03,-0.491,-1.707
75.06,-2.071,-2.841
75.09,-6.458,-3.746
75.12,-11.371,-4.708
75.16,-15.688,-5.499
75.19,-19.408,-5.991
75.22,-23.619,-6.472
75.25,-28.743,-7.228
75.29,-32.849,-6.759
75.32,-34.183,-6.369
75.35,-36.429,-7.377
75.38,-40.254,-7.469
75.42,-42.781,-7.183
75.45,-44.922,-7.824
75.48,-48.221,-8.569
75.51,-52.046,-9.096
75.55,-55.731,-9.554
75.58,-58.995,-10.092
75.61,-62.259,-10.505
75.64,-65.733,-10.963
75.68,-69.594,-11.352
75.71,-73.068,-11.753
75.74,-75.841,-12.154
75.77,-78.754,-12.635
75.81,-82.263,-13.323
75.84,-86.159,-13.93
75.87,-89.809,-14.319
75.91,-92.897,-14.709
75.94,-96.091,-15.133
75.97,-99.706,-15.454
76.0,-103.32,-15.763
76.04,-106.865,-16.106
76.07,-110.059,-16.507
76.1,-113.112,-17.08
76.13,-116.621,-17.561
76.17,-120.131,-17.745
76.2,-123.149,-17.974
76.23,-125.641,-18.329
76.26,-127.817,-18.799
76.3,-130.519,-19.314
76.33,-134.029,-19.864
76.36,-137.749,-20.448
76.39,-141.048,-20.964
76.43,-143.89,-21.388
76.46,-146.873,-21.903
76.49,-150.383,-22.396
76.52,-153.893,-22.659
76.56,-156.595,-22.877
76.59,-159.016,-23.312
76.62,-161.894,-23.805
76.65,-165.158,-24.114
76.69,-167.966,-24.32
76.72,-170.142,-24.652
76.75,-172.598,-25.007
76.78,-175.266,-25.202
76.82,-177.547,-25.626
76.85,-180.495,-26.268
76.88,-183.934,-26.634
76.91,-186.566,-26.863
76.95,-188.391,-27.127
76.98,-190.532,-27.31
77.01,-192.953,-27.333
77.04,-195.2,-27.447
77.08,-197.165,-27.665
77.11,-199.095,-28.02
77.14,-201.482,-28.238
77.17,-203.447,-28.341
77.21,-204.43,-28.524
77.24,-205.553,-28.788
77.27,-207.097,-28.937
77.3,-209.027,-29.2
77.34,-210.957,-29.635
77.37,-212.923,-30.174
77.4,-215.344,-30.621
77.43,-217.661,-30.941
77.47,-219.275,-31.262
77.5,-220.854,-31.514
77.53,-222.258,-31.606
77.57,-223.978,-31.938
77.6,-226.575,-32.316
77.63,-229.242,-32.545
77.66,-231.067,-32.832
77.7,-232.822,-33.267
77.73,-235.138,-33.507
77.76,-237.419,-33.645
77.79,-239.069,-33.771
77.83,-240.718,-34.138
77.86,-243.034,-34.55
77.89,-245.105,-34.768
77.92,-246.158,-35.1
77.96,-246.368,-35.764
77.99,-247.421,-36.463
78.02,-249.387,-36.692
78.05,-251.212,-36.887
78.09,-252.896,-37.345
78.12,-254.44,-37.666
78.15,-255.914,-37.757
78.18,-257.388,-37.941
78.22,-259.003,-38.17
78.25,-260.056,-38.239
78.28,-260.582,-38.307
78.31,-261.6,-38.433
78.35,-263.354,-38.559
78.38,-264.934,-38.731
78.41,-265.601,-39.155
78.44,-266.724,-39.441
78.48,-267.987,-39.487
78.51,-268.9,-39.865
78.54,-270.444,-40.117
78.57,-271.918,-40.083
78.61,-273.181,-40.175
78.64,-274.374,-40.346
78.67,-275.673,-40.507
78.7,-276.936,-40.656
78.74,-278.2,-40.713
78.77,-279.042,-40.656
78.8,-279.358,-40.679
78.83,-279.639,-40.736
78.87,-280.13,-40.427
78.9,-279.253,-40.404
78.93,-277.498,-41.297
78.96,-277.498,-42.145
79.0,-278.796,-42.386
79.03,-279.849,-42.454
79.06,-280.2,-42.66
79.09,-280.692,-42.832
79.13,-281.148,-42.809
79.16,-281.85,-42.924
79.19,-282.867,-43.176
79.23,-283.78,-43.382
79.26,-284.377,-43.6
79.29,-285.078,-43.795
79.32,-285.535,-43.669
79.36,-285.57,-43.439
79.39,-285.078,-43.027
79.42,-284.271,-42.764
79.45,-284.201,-42.649
79.49,-284.061,-42.466
79.52,-283.253,-42.271
79.55,-282.271,-41.985
79.58,-281.007,-41.515
79.62,-279.674,-41.057
79.65,-278.235,-40.724
79.68,-277.042,-40.587
79.71,-276.41,-40.621
79.75,-275.813,-40.61
79.78,-275.006,-40.427
79.81,-273.672,-40.152
79.84,-272.198,-39.705
79.88,-270.654,-39.132
79.91,-268.022,-38.937
79.94,-265.741,-39.201
79.97,-265.25,-39.327
80.01,-264.934,-39.247
80.04,-263.425,-39.407
80.07,-261.81,-39.464
80.1,-260.266,-39.041
80.14,-258.546,-38.617
80.17,-257.458,-38.399
80.2,-256.897,-38.124
80.23,-255.634,-37.861
80.27,-253.633,-37.803
80.3,-251.878,-37.712
80.33,-250.861,-37.345
80.36,-249.422,-36.749
80.4,-247.0,-36.417
80.43,-244.93,-36.245
80.46,-243.701,-35.993
80.49,-242.332,-35.718
80.53,-240.367,-35.673
80.56,-238.437,-35.478
80.59,-236.577,-35.169
80.62,-234.576,-34.561
80.66,-232.716,-34.218
80.69,-231.242,-33.954
80.72,-229.628,-33.588
80.75,-227.663,-33.267
80.79,-225.732,-33.072
80.82,-223.907,-32.637
80.85,-221.837,-32.179
80.89,-219.626,-31.824
80.92,-217.239,-31.445
80.95,-214.993,-31.09
80.98,-212.993,-30.861
81.02,-211.098,-30.758
81.05,-209.343,-30.621
81.08,-207.448,-30.472
81.11,-205.447,-30.277
81.15,-203.271,-29.75
81.18,-200.885,-29.212
81.21,-198.709,-28.914
81.24,-197.025,-28.559
81.28,-195.48,-28.181
81.31,-193.69,-27.906
81.34,-191.55,-27.642
81.37,-189.374,-27.287
81.41,-187.198,-26.68
81.44,-184.706,-26.164
81.47,-182.109,-25.729
81.5,-179.547,-25.259
81.54,-177.126,-24.985
81.57,-175.125,-24.595
81.6,-172.774,-24.057
81.63,-169.791,-23.541
81.67,-166.457,-23.129
81.7,-163.509,-22.682
81.73,-161.017,-22.121
81.76,-158.42,-21.502
81.8,-155.963,-21.307
81.83,-153.647,-20.918
81.86,-150.488,-20.093
81.89,-146.768,-19.681
81.93,-143.82,-19.268
81.96,-141.89,-18.592
81.99,-139.398,-17.939
82.02,-135.994,-17.47
82.06,-132.274,-16.989
82.09,-129.361,-16.633
82.12,-127.115,-16.175
82.15,-124.448,-15.751
82.19,-121.324,-15.282
82.22,-117.955,-14.709
82.25,-114.761,-14.125
82.28,-111.743,-13.689
82.32,-109.076,-13.277
82.35,-105.917,-12.773
82.38,-102.338,-12.223
82.41,-98.512,-11.662
82.45,-94.652,-10.963
82.48,-90.616,-10.241
82.51,-86.615,-9.565
82.55,-82.755,-9.016
82.58,-79.21,-8.523
82.61,-75.911,-7.996
82.64,-72.612,-7.492
82.68,-69.278,-7.137
82.71,-65.874,-6.713
82.74,-62.469,-6.301
82.77,-59.311,-6.003
82.81,-56.468,-5.693
82.84,-53.59,-5.247
82.87,-50.327,-4.834
82.9,-47.273,-4.502
82.94,-44.325,-4.055
82.97,-41.096,-3.46
83.0,-37.166,-2.933
83.03,-32.884,-2.612
83.07,-28.989,-2.28
83.1,-25.444,-1.844
83.13,-21.724,-1.501
83.16,-18.144,-1.226
83.2,-14.319,-0.928
83.23,-10.318,-0.596
83.26,-5.44,-0.389
83.29,-1.088,-0.401
83.33,0.316,0.183
83.36,0.491,1.34
83.39,1.334,2.451
83.42,4.948,3.356
83.46,9.827,4.284
83.49,14.424,5.292
83.52,18.53,5.991
83.55,22.707,6.415
83.59,26.953,6.724
83.62,31.059,7.102
83.65,34.92,7.515
83.68,38.324,7.526
83.72,40.675,7.595
83.75,43.378,8.179
83.78,47.203,8.603
83.81,51.064,8.729
83.85,54.222,9.05
83.88,57.205,9.554
83.91,60.118,10.024
83.94,63.347,10.447
83.98,66.927,10.883
84.01,70.331,11.352
84.04,73.7,11.742
84.07,77.069,12.063
84.11,80.298,12.498
84.14,83.632,12.933
84.17,86.755,13.254
84.21,89.458,13.747
84.24,92.511,14.285
84.27,95.845,14.823
84.3,99.565,15.328
84.34,103.285,15.763
84.37,106.479,16.244
84.4,109.743,16.84
84.43,113.287,17.309
84.47,117.078,17.779
84.5,120.938,18.042
84.53,123.921,18.295
84.56,125.957,18.615
84.6,128.764,19.326
84.63,132.309,19.589
84.66,135.538,19.978
84.69,138.345,20.654
84.73,141.75,21.479
84.76,146.066,22.04
84.79,149.927,22.361
84.82,152.98,22.648
84.86,155.472,22.877
84.89,157.753,23.129
84.92,160.245,23.369
84.95,163.298,23.747
84.99,166.316,24.034
85.02,169.089,24.343
85.05,171.44,24.561
85.08,173.125,24.813
85.12,174.985,25.156
85.15,177.477,25.523
85.18,180.354,25.901
85.21,183.302,26.371
85.25,186.075,26.749
85.28,188.461,27.092
85.31,190.532,27.31
85.34,192.357,27.528
85.38,194.322,27.757
85.41,196.779,28.043
85.44,199.516,28.364
85.47,201.833,28.696
85.51,203.658,29.051
85.54,205.377,29.326
85.57,206.851,29.395
85.6,208.466,29.487
85.64,210.466,29.658
85.67,212.747,30.025
85.7,214.993,30.437
85.73,216.959,30.793
85.77,218.889,31.136
85.8,220.819,31.388
85.83,221.767,31.285
85.87,222.258,31.423
85.9,224.504,32.19
85.93,227.066,32.499
85.96,227.663,32.763
86.0,227.908,33.519
86.03,229.488,34.034
86.06,232.436,34.447
86.09,234.927,34.619
86.13,236.472,35.088
86.16,237.91,35.34
86.19,239.49,35.432
86.22,241.841,35.936
86.26,244.438,36.222
86.29,246.053,36.486
86.32,247.351,36.864
86.35,249.843,37.253
86.39,252.861,37.483
86.42,254.826,37.735
86.45,255.914,38.067
86.48,257.318,38.33
86.52,259.459,38.514
86.55,261.53,38.594
86.58,262.653,38.514
86.61,262.653,38.548
86.65,263.319,38.548
86.68,264.723,38.456
86.71,266.022,38.502
86.74,266.899,38.662
86.78,267.566,38.972
86.81,269.075,39.212
86.84,270.619,39.144
86.87,271.532,39.361
86.91,271.707,39.579
86.94,271.005,40.072
86.97,271.251,40.77
87.0,272.655,41.08
87.04,273.251,41.091
87.07,273.918,41.847
87.1,275.848,42.237
87.13,277.463,42.248
87.17,278.13,42.408
87.2,278.691,42.374
87.23,279.674,42.202
87.26,280.551,42.271
87.3,281.464,42.42
87.33,281.815,42.191
87.36,282.271,42.477
87.39,283.289,42.534
87.43,283.99,42.317
87.46,283.885,42.34
87.49,283.64,42.386
87.53,283.955,42.408
87.56,284.482,42.305
87.59,284.447,42.328
87.62,284.341,42.328
87.66,284.131,42.145
87.69,284.131,41.996
87.72,284.201,41.801
87.75,283.745,41.687
87.79,283.218,41.813
87.82,282.973,41.859
87.85,282.867,41.675
87.88,282.446,41.24
87.92,280.516,40.931
87.95,277.498,41.045
87.98,275.919,40.988
88.01,275.638,40.679
88.05,274.901,40.919
88.08,273.813,41.297
88.11,272.163,41.286
88.14,270.9,41.022
88.18,269.987,40.747
88.21,269.426,40.346
88.24,267.601,40.014
88.27,265.46,39.991
88.31,264.758,39.968
88.34,265.074,39.682
88.37,264.442,39.476
88.4,262.582,39.35
88.44,260.582,38.823
88.47,258.932,38.124
88.5,257.388,37.666
88.53,255.704,37.437
88.57,254.124,37.127
88.6,252.686,36.795
88.63,250.685,36.852
88.66,249.106,36.875
88.7,247.667,36.52
88.73,245.842,36.257
88.76,243.947,36.371
88.79,243.14,36.348
88.83,242.894,36.177
88.86,241.876,36.177
88.89,240.578,35.959
88.92,238.542,35.363
88.96,235.594,34.607
88.99,232.716,34.206
89.02,231.207,33.931
89.05,229.733,33.244
89.09,226.996,32.625
89.12,223.978,32.476
89.15,222.398,32.454
89.19,221.275,32.339
89.22,219.275,31.904
89.25,216.608,31.606
89.28,214.748,31.675
89.32,213.905,31.56
89.35,212.677,31.193
89.38,210.291,30.896
89.41,207.799,30.644
89.45,205.658,30.117
89.48,203.061,29.212
89.51,199.586,28.398
89.54,196.042,27.791
89.58,192.918,27.092
89.61,189.9,26.714
89.64,187.689,26.726
89.67,186.531,26.737
89.71,185.619,26.703
89.74,184.32,26.554
89.77,182.39,26.497
89.8,180.424,26.268
89.84,178.775,25.901
89.87,177.231,25.58
89.9,175.371,25.168
89.93,172.809,24.744
89.97,170.598,24.206
90.0,168.808,23.507
90.03,166.351,22.934
90.06,163.123,22.189
90.1,159.332,21.296
90.13,155.928,20.883
90.16,153.156,20.265
90.19,150.523,19.852
90.23,147.54,19.417
90.26,144.136,19.051
90.29,140.907,18.684
90.32,138.205,18.283
90.36,135.818,17.836
90.39,132.73,17.092
90.42,129.361,16.817
90.45,126.588,16.473
90.49,123.886,15.969
90.52,120.973,15.499
90.55,118.06,15.121
90.58,115.112,14.503
90.62,111.497,13.827
90.65,107.742,13.518
90.68,104.865,13.071
90.71,101.987,12.326
90.75,98.196,11.673
90.78,94.02,11.055
90.81,89.668,10.379
90.85,85.808,9.817
90.88,82.544,9.29
90.91,79.245,8.741
90.94,75.244,8.363
90.98,71.77,8.179
91.01,69.418,7.847
91.04,66.927,7.332
91.07,63.733,6.839
91.11,60.294,6.427
91.14,56.889,5.934
91.17,53.52,5.396
91.2,50.011,4.983
91.24,47.028,4.617
91.27,44.044,4.113
91.3,40.43,3.643
91.33,36.674,3.276
91.37,33.095,2.887
91.4,29.726,2.497
91.43,26.041,2.142
91.46,22.391,1.879
91.5,18.776,1.661
91.53,15.161,1.409
91.56,11.336,1.134
91.59,7.51,0.848
91.63,2.983,0.756
91.66,0.246,0.481
91.69,-0.386,-0.584
91.72,-0.386,-1.799
91.76,-1.86,-2.841
91.79,-6.422,-3.998
91.82,-12.354,-5.247
91.85,-17.723,-6.232
91.89,-22.18,-6.885
91.92,-26.848,-7.228
91.95,-31.305,-7.309
91.98,-35.271,-7.366
92.02,-38.324,-7.515
92.05,-41.272,-7.79
92.08,-44.466,-7.996
92.11,-47.343,-8.282
92.15,-50.327,-8.775
92.18,-53.871,-9.279
92.21,-57.661,-9.737
92.24,-61.662,-10.321
92.28,-65.488,-10.952
92.31,-68.997,-11.307
92.34,-71.875,-11.65
92.37,-74.893,-12.189
92.41,-78.473,-12.544
92.44,-82.228,-12.956
92.47,-85.773,-13.403
92.51,-88.931,-13.609
92.54,-91.704,-13.861
92.57,-94.16,-14.285
92.6,-96.547,-14.697
92.64,-99.425,-15.11
92.67,-102.759,-15.614
92.7,-106.023,-16.152
92.73,-109.251,-16.656
92.77,-112.34,-17.206
92.8,-115.849,-17.825
92.83,-119.604,-18.065
92.86,-122.693,-18.295
92.9,-125.15,-18.535
92.93,-127.957,-19.142
92.96,-132.028,-19.658
92.99,-136.38,-20.276
93.03,-140.381,-20.918
93.06,-142.662,-20.906
93.09,-144.276,-21.239
93.12,-146.733,-21.41
93.16,-150.067,-21.914
93.19,-153.857,-22.43
93.22,-156.805,-22.751
93.25,-158.981,-23.209
93.29,-161.649,-23.656
93.32,-165.404,-24.08
93.35,-168.878,-24.366
93.38,-171.37,-24.618
93.42,-173.37,-25.019
93.45,-175.932,-25.374
93.48,-178.6,-25.752
93.51,-181.512,-26.29
93.55,-184.671,-26.714
93.58,-187.198,-27.115
93.61,-189.444,-27.402
93.64,-191.62,-27.528
93.68,-193.866,-27.631
93.71,-195.866,-27.803
93.74,-197.481,-28.009
93.77,-199.306,-28.352
93.81,-201.552,-28.582
93.84,-203.342,-28.673
93.87,-204.816,-28.834
93.9,-206.009,-29.063
93.94,-207.167,-29.338
93.97,-208.711,-29.681
94.0,-210.712,-30.002
94.04,-212.677,-30.414
94.07,-214.467,-30.976
94.1,-216.362,-31.526
94.13,-218.433,-31.927
94.17,-220.503,-32.202
94.2,-222.433,-32.511
94.23,-224.188,-32.728
94.26,-225.803,-32.866
94.3,-227.768,-33.084
94.33,-230.049,-33.496
94.36,-232.506,-33.84
94.39,-234.647,-34.286
94.43,-236.858,-34.584
94.46,-238.963,-34.779
94.49,-240.262,-34.596
94.52,-240.858,-34.47
94.56,-242.017,-34.733
94.59,-244.263,-35.18
94.62,-246.79,-35.695
94.65,-248.509,-35.867
94.69,-249.352,-35.948
94.72,-250.475,-36.131
94.75,-252.089,-36.36
94.78,-253.738,-36.543
94.82,-255.353,-36.784
94.85,-257.072,-37.07
94.88,-258.687,-37.437
94.91,-260.442,-37.7
94.95,-261.214,-37.906
94.98,-260.687,-38.433
95.01,-260.968,-39.063
95.04,-262.793,-39.419
95.08,-264.969,-39.762
95.11,-266.232,-40.14
95.14,-266.969,-40.553
95.17,-268.198,-40.85
95.21,-270.163,-40.839
95.24,-271.812,-40.828
95.27,-272.655,-41.251
95.3,-274.164,-41.458
95.34,-275.392,-41.515
95.37,-276.375,-41.836
95.4,-277.428,-42.019
95.43,-278.2,-42.007
95.47,-279.112,-41.847
95.5,-279.744,-41.526
95.53,-279.814,-41.4
95.56,-279.884,-41.446
95.6,-280.656,-41.675
95.63,-281.99,-41.641
95.66,-281.885,-41.423
95.7,-281.288,-41.962
95.73,-282.446,-42.363
95.76,-283.78,-41.939
95.79,-283.289,-41.824
95.83,-283.534,-42.214
95.86,-284.552,-42.248
95.89,-285.043,-42.237
95.92,-284.552,-42.5
95.96,-283.464,-42.901
95.99,-282.867,-42.958
96.02,-282.446,-42.901
96.05,-282.306,-42.878
96.09,-282.376,-42.901
96.12,-282.201,-42.947
96.15,-282.095,-42.993
96.18,-282.025,-42.844
96.22,-281.429,-42.58
96.25,-280.376,-42.099
96.28,-279.077,-41.595
96.31,-277.638,-41.206
96.35,-276.34,-41.022
96.38,-275.462,-40.908
96.41,-274.339,-40.805
96.44,-273.181,-40.702
96.48,-272.128,-40.495
96.51,-270.865,-40.186
96.54,-269.637,-39.797
96.57,-268.057,-39.43
96.61,-266.548,-39.235
96.64,-265.565,-39.167
96.67,-264.723,-39.018
96.7,-263.53,-38.823
96.74,-262.056,-38.605
96.77,-260.301,-38.17
96.8,-258.301,-37.712
96.83,-256.511,-37.391
96.87,-255.353,-37.093
96.9,-254.019,-36.841
96.93,-252.44,-36.623
96.96,-250.159,-36.612
97.0,-247.842,-36.612
97.03,-246.017,-36.268
97.06,-244.543,-35.913
97.09,-242.929,-35.856
97.13,-241.104,-35.799
97.16,-239.384,-35.524
97.19,-237.805,-35.249
97.22,-237.314,-35.375
97.26,-236.823,-35.191
97.29,-234.612,-34.55
97.32,-231.418,-34.126
97.36,-229.207,-33.908
97.39,-227.979,-33.588
97.42,-226.505,-33.233
97.45,-224.609,-33.038
97.49,-223.17,-32.843
97.52,-221.837,-32.282
97.55,-219.696,-31.675
97.58,-216.924,-31.319
97.62,-214.537,-31.125
97.65,-212.747,-30.827
97.68,-211.098,-30.632
97.71,-209.483,-30.495
97.75,-207.799,-30.22
97.78,-205.728,-29.727
97.81,-203.166,-29.223
97.84,-200.499,-28.822
97.88,-198.218,-28.375
97.91,-196.463,-27.952
97.94,-194.743,-27.745
97.97,-192.638,-27.436
98.01,-190.532,-27.184
98.04,-188.461,-26.966
98.07,-185.97,-26.428
98.1,-183.197,-25.981
98.14,-181.126,-25.718
98.17,-179.091,-25.133
98.2,-176.389,-24.721
98.23,-174.037,-24.618
98.27,-172.037,-24.171
98.3,-169.65,-23.553
98.33,-166.913,-22.968
98.36,-164.105,-22.464
98.4,-161.087,-21.788
98.43,-157.964,-21.365
98.46,-155.402,-20.895
98.49,-153.085,-20.609
98.53,-150.945,-20.368
98.56,-148.242,-19.852
98.59,-144.978,-19.257
98.62,-141.504,-18.821
98.66,-138.977,-18.558
98.69,-136.836,-17.905
98.72,-133.783,-17.344
98.75,-130.133,-16.828
98.79,-126.518,-16.301
98.82,-123.395,-15.786
98.85,-120.552,-15.35
98.88,-117.464,-14.801
98.92,-113.989,-14.285
98.95,-110.796,-13.77
98.98,-108.023,-13.346
99.02,-105.391,-12.761
99.05,-101.846,-12.051
99.08,-97.495,-11.49
99.11,-93.248,-10.94
99.15,-89.423,-10.253
99.18,-85.492,-9.554
99.21,-81.526,-8.993
99.24,-77.841,-8.557
99.28,-74.577,-8.122
99.31,-71.243,-7.767
99.34,-68.155,-7.458
99.37,-65.242,-7.022
99.41,-62.259,-6.495
99.44,-58.855,-6.129
99.47,-55.661,-5.819
99.5,-52.678,-5.396
99.54,-49.59,-4.949
99.57,-46.185,-4.571
99.6,-42.816,-4.204
99.63,-39.272,-3.723
99.67,-35.657,-3.253
99.7,-32.217,-2.898
99.73,-29.059,-2.6
99.76,-26.041,-2.257
99.8,-22.566,-1.925
99.83,-19.057,-1.707
99.86,-16.495,-2.073
99.89,-14.705,-2.096
99.93,-11.581,-1.294
99.96,-7.124,-0.699
99.99,-2.176,-0.55
100.02,0.351,0.057
100.06,0.562,1.718
100.09,2.562,3.196
100.12,7.159,3.941
100.15,12.003,4.88
100.19,16.67,6.094
100.22,21.478,6.553
100.25,26.041,6.759
100.28,30.603,7.309
100.32,35.341,7.664
100.35,39.201,7.732
100.38,42.22,7.916
100.41,45.343,8.317
100.45,48.817,8.649
100.48,52.151,8.935
100.51,55.135,9.371
100.54,58.047,9.829
100.58,61.346,10.241
100.61,64.716,10.677
100.64,67.909,11.043
100.68,70.612,11.387
100.71,73.174,11.788
100.74,76.157,12.177
100.77,79.315,12.67
100.81,82.755,13.22
100.84,86.124,13.712
100.87,89.282,14.262
100.9,92.722,14.778
100.94,96.722,15.144
100.97,100.829,15.442
101.0,104.303,15.74
101.03,107.076,16.129
101.07,110.094,16.622
101.1,113.708,16.954
101.13,117.183,17.355
101.16,120.341,17.722
101.2,123.044,17.985
101.23,125.641,18.421
101.26,128.975,19.062
101.29,132.906,19.566
101.33,136.696,20.185
101.36,140.17,20.872
101.39,143.469,21.296
101.42,146.031,21.376
101.46,148.453,21.834
101.49,151.752,22.258
101.52,154.559,22.247
101.55,156.349,22.407
101.59,158.279,22.888
101.62,161.508,23.358
101.65,164.737,23.633
101.68,167.264,24.125
101.72,169.58,24.549
101.75,172.072,24.755
101.78,174.599,25.019
101.81,177.196,25.5
101.85,180.003,26.05
101.88,183.022,26.508
101.91,185.408,26.943
101.94,187.935,27.425
101.98,190.883,27.619
102.01,193.585,27.745
102.04,195.726,27.94
102.07,197.516,28.238
102.11,199.271,28.433
102.14,201.376,28.662
102.17,203.658,29.017
102.2,205.763,29.292
102.24,207.097,29.292
102.27,208.009,29.326
102.3,209.975,29.865
102.34,212.747,30.128
102.37,214.713,30.208
102.4,216.046,30.701
102.43,217.976,31.193
102.47,220.573,31.342
102.5,222.644,31.274
102.53,223.837,31.457
102.56,224.785,31.801
102.6,226.083,32.121
102.63,227.943,32.442
102.66,230.26,32.866
102.69,232.33,33.061
102.73,233.839,33.324
102.76,235.138,33.507
102.79,237.419,33.759
102.82,239.665,33.691
102.86,240.823,33.794
102.89,242.368,34.332
102.92,244.649,34.733
102.95,247.176,35.249
102.99,249.667,35.707
103.02,251.212,35.615
103.05,251.598,35.638
103.08,252.335,36.074
103.12,252.966,36.532
103.15,253.352,37.07
103.18,254.791,37.769
103.21,257.002,38.227
103.25,258.546,38.571
103.28,259.81,38.972
103.31,261.249,39.384
103.34,263.039,39.59
103.38,264.969,39.705
103.41,266.443,39.693
103.44,267.25,39.785
103.47,268.443,39.98
103.51,270.233,40.049
103.54,271.497,40.129
103.57,272.409,40.472
103.6,273.532,40.724
103.64,274.69,40.885
103.67,275.989,41.034
103.7,277.322,41.194
103.73,278.41,41.274
103.77,279.358,41.206
103.8,279.744,41.206
103.83,280.411,41.08
103.86,280.621,40.805
103.9,280.762,40.988
103.93,280.902,41.297
103.96,280.551,41.95
104.0,280.235,42.351
104.03,280.411,42.741
104.06,280.832,42.672
104.09,280.832,42.706
104.13,281.253,43.016
104.16,281.955,43.061
104.19,282.446,43.199
104.22,283.569,43.68
104.26,284.482,43.508
104.29,284.131,43.313
104.32,284.096,43.279
104.35,285.078,43.302
104.39,285.114,42.798
104.42,283.148,42.466
104.45,282.13,42.683
104.48,283.85,42.981
104.52,284.692,42.248
104.55,281.709,41.698
104.58,278.761,41.71
104.61,279.288,41.561
104.65,280.516,40.564
104.68,278.481,40.106
104.71,275.708,40.564
104.74,275.462,40.736
104.78,275.708,39.945
104.81,273.392,39.476
104.84,270.83,39.476
104.87,269.987,39.178
104.91,268.689,38.605
104.94,266.057,38.548
104.97,264.127,38.96
105.0,263.635,39.212
105.04,263.249,39.063
105.07,261.424,38.834
105.1,258.968,38.64
105.13,257.037,38.25
105.17,256.02,37.883
105.2,255.107,37.826
105.23,254.019,37.826
105.26,252.51,37.597
105.3,250.931,37.494
105.33,249.667,37.517
105.36,248.369,37.013
105.39,246.404,36.509
105.43,244.789,36.429
105.46,244.122,36.474
105.49,243.561,36.222
105.52,241.525,35.89
105.56,239.7,35.81
105.59,238.683,35.34
105.62,236.647,34.447
105.66,233.067,33.874
105.69,230.119,33.805
105.72,228.856,33.645
105.75,227.838,33.313
105.79,226.118,33.084
105.82,223.872,32.843
105.85,221.381,32.476
105.88,219.135,32.076
105.92,217.38,31.812
105.95,216.116,31.491
105.98,214.502,31.148
106.01,212.326,30.93
106.05,210.15,30.621
106.08,208.08,30.254
106.11,206.044,29.83
106.14,203.693,29.28
106.18,201.096,28.685
106.21,198.323,28.249
106.24,196.112,27.94
106.27,194.533,27.722
106.31,193.234,27.528
106.34,191.585,27.367
106.37,189.374,27.115
106.4,186.777,26.749
106.44,184.25,26.405
106.47,182.179,25.935
106.5,180.179,25.305
106.53,177.827,24.801
106.57,175.16,24.343
106.6,172.388,23.77
106.63,169.58,23.129
106.66,166.878,22.556
106.7,164.0,22.075
106.73,160.771,21.582
106.76,157.578,21.181
106.79,155.261,20.918
106.83,153.226,20.517
106.86,150.453,19.978
106.89,147.189,19.337
106.92,143.925,19.005
106.96,141.399,18.787
106.99,139.328,18.432
107.02,137.363,18.226
107.05,135.081,17.745
107.09,131.432,16.92
107.12,127.571,16.645
107.15,125.009,16.21
107.18,122.658,15.614
107.22,119.359,14.789
107.25,114.867,13.85
107.28,110.515,13.392
107.32,107.462,12.991
107.35,104.584,12.429
107.38,100.899,11.822
107.41,96.758,11.41
107.45,93.213,10.974
107.48,90.23,10.493
107.51,87.177,9.852
107.54,83.386,9.268
107.58,79.491,9.004
107.61,76.086,8.569
107.64,72.647,7.847
107.67,69.067,7.4
107.71,65.979,7.206
107.74,63.522,6.793
107.77,60.89,6.278
107.8,57.802,5.865
107.84,54.573,5.384
107.87,51.239,4.949
107.9,47.835,4.685
107.93,44.641,4.204
107.97,41.132,3.563
108.0,37.025,2.967
108.03,32.919,2.715
108.06,29.41,2.36
108.1,26.076,1.821
108.13,22.215,1.409
108.16,18.32,1.18
108.19,14.424,0.859
108.23,10.072,0.584
108.26,5.475,0.504
108.29,1.334,0.55
108.32,-0.14,0.023
108.36,-0.316,-1.123
108.39,-1.193,-2.463
108.42,-5.229,-3.689
108.45,-10.88,-4.594
108.49,-15.407,-5.373
108.52,-19.127,-6.186
108.55,-23.268,-6.679
108.58,-27.831,-6.908
108.62,-31.761,-7.091
108.65,-35.06,-7.4
108.68,-37.938,-7.549
108.71,-40.64,-7.767
108.75,-43.939,-8.248
108.78,-47.449,-8.603
108.81,-50.572,-8.775
108.84,-53.345,-9.13
108.88,-56.328,-9.611
108.91,-59.978,-9.909
108.94,-63.698,-10.195
108.98,-67.137,-10.803
109.01,-70.436,-11.261
109.04,-73.454,-11.616
109.07,-76.543,-12.086
109.11,-80.087,-12.693
109.14,-84.088,-13.117
109.17,-87.703,-13.575
109.2,-90.932,-14.113
109.24,-94.125,-14.571
109.27,-97.319,-14.938
109.3,-100.407,-15.305
109.33,-103.391,-15.763
109.37,-106.76,-16.301
109.4,-110.234,-16.679
109.43,-113.568,-17.092
109.46,-116.902,-17.584
109.5,-120.096,-17.905
109.53,-122.798,-18.283
109.56,-125.711,-18.787
109.59,-129.115,-19.383
109.63,-133.116,-20.116
109.66,-137.222,-20.689
109.69,-140.416,-21.147
109.72,-143.013,-21.514
109.76,-145.645,-21.697
109.79,-148.593,-21.892
109.82,-151.752,-22.155
109.85,-154.173,-22.373
109.89,-156.244,-22.659
109.92,-158.771,-23.106
109.95,-162.07,-23.598
109.98,-164.877,-23.919
110.02,-166.878,-24.343
110.05,-168.983,-24.79
110.08,-171.756,-25.099
110.11,-174.879,-25.42
110.15,-177.898,-25.97
110.18,-181.161,-26.588
110.21,-184.741,-26.84
110.24,-187.198,-26.943
110.28,-188.567,-27.287
110.31,-190.392,-27.539
110.34,-192.497,-27.619
110.37,-194.568,-27.871
110.41,-196.674,-28.341
110.44,-199.13,-28.696
110.47,-201.657,-28.902
110.5,-203.447,-29.109
110.54,-204.64,-29.372
110.57,-205.939,-29.487
110.6,-207.413,-29.613
110.64,-209.238,-29.865
110.67,-211.449,-30.243
110.7,-213.589,-30.655
110.73,-215.625,-31.033
110.77,-217.696,-31.308
110.8,-219.556,-31.652
110.83,-221.486,-31.938
110.86,-223.381,-32.167
110.9,-224.855,-32.522
110.93,-226.083,-33.072
110.96,-228.049,-33.656
110.99,-230.54,-33.954
111.03,-233.313,-34.504
111.06,-235.313,-34.802
111.09,-235.945,-34.825
111.12,-236.647,-34.985
111.16,-238.647,-35.26
111.19,-241.034,-35.386
111.22,-242.368,-35.741
111.25,-243.491,-36.314
111.29,-245.631,-36.83
111.32,-248.193,-36.967
111.35,-249.878,-36.979
111.38,-250.72,-37.127
111.42,-251.457,-37.379
111.45,-253.177,-37.631
111.48,-255.844,-37.803
111.51,-258.266,-38.09
111.55,-260.161,-38.468
111.58,-261.249,-38.502
111.61,-261.6,-38.445
111.64,-262.196,-38.548
111.68,-263.916,-38.674
111.71,-265.601,-38.754
111.74,-266.338,-38.96
111.77,-267.004,-39.43
111.81,-268.549,-39.671
111.84,-270.198,-39.602
111.87,-271.356,-39.693
111.9,-271.567,-40.175
111.94,-271.075,-40.965
111.97,-271.497,-41.664
112.0,-273.251,-41.95
112.03,-274.585,-42.007
112.07,-275.146,-42.546
112.1,-276.234,-42.947
112.13,-277.568,-42.809
112.16,-278.34,-42.672
112.2,-278.761,-42.741
112.23,-279.428,-42.809
112.26,-280.621,-43.016
112.3,-281.744,-43.073
112.33,-282.13,-43.268
112.36,-282.622,-43.405
112.39,-283.113,-43.245
112.43,-283.043,-43.084
112.46,-283.183,-43.027
112.49,-284.131,-42.947
112.52,-285.008,-43.016
112.56,-285.464,-43.245
112.59,-285.886,-43.531
112.62,-286.412,-43.313
112.65,-286.693,-43.016
112.69,-285.851,-42.454
112.72,-284.096,-41.962
112.75,-282.903,-41.801
112.78,-282.727,-41.584
112.82,-282.727,-41.412
112.85,-281.604,-41.24
112.88,-279.639,-41.011
112.91,-277.287,-40.839
112.95,-275.778,-40.931
112.98,-275.427,-40.908
113.01,-274.936,-40.919
113.04,-274.094,-41.171
113.08,-273.251,-41.355
113.11,-272.585,-41.24
113.14,-272.058,-41.011
113.17,-271.005,-40.702
113.21,-269.321,-40.346
113.24,-267.706,-39.957
113.27,-266.689,-39.728
113.3,-266.373,-39.613
113.34,-265.601,-39.35
113.37,-263.811,-39.189
113.4,-261.916,-39.132
113.43,-260.687,-38.8
113.47,-259.319,-38.273
113.5,-257.564,-37.987
113.53,-256.125,-37.78
113.56,-254.686,-37.551
113.6,-253.107,-37.345
113.63,-251.984,-37.402
113.66,-250.861,-37.242
113.69,-248.79,-36.784
113.73,-246.298,-36.44
113.76,-244.017,-35.97
113.79,-242.438,-35.821
113.82,-241.315,-35.478
113.86,-239.279,-34.974
113.89,-236.998,-34.745
113.92,-234.857,-34.344
113.96,-232.26,-33.84
113.99,-229.944,-33.622
114.02,-228.435,-33.542
114.05,-227.312,-33.324
114.09,-225.662,-33.129
114.12,-223.697,-33.221
114.15,-222.223,-33.107
114.18,-220.889,-32.694
114.22,-219.205,-32.282
114.25,-216.888,-32.064
114.28,-214.958,-31.755
114.31,-213.239,-31.342
114.35,-211.449,-31.079
114.38,-209.694,-30.85
114.41,-208.009,-30.506
114.44,-205.974,-30.162
114.48,-203.552,-29.635
114.51,-200.92,-29.086
114.54,-198.639,-28.742
114.57,-197.2,-28.364
114.61,-195.656,-28.055
114.64,-193.48,-27.871
114.67,-191.269,-27.608
114.7,-189.128,-27.218
114.74,-186.742,-26.726
114.77,-184.215,-26.29
114.8,-181.758,-25.752
114.83,-179.337,-25.248
114.87,-176.985,-24.973
114.9,-174.774,-24.675
114.93,-172.563,-24.171
114.96,-169.861,-23.61
115.0,-166.878,-23.106
115.03,-163.789,-22.613
115.06,-160.947,-22.063
115.09,-158.139,-21.582
115.13,-155.788,-21.307
115.16,-153.331,-20.872
115.19,-150.172,-20.15
115.22,-146.628,-19.669
115.26,-143.645,-19.337
115.29,-140.977,-18.673
115.32,-138.205,-18.272
115.35,-135.854,-18.157
115.39,-133.678,-17.756
115.42,-130.905,-17.275
115.45,-127.361,-16.599
115.49,-124.377,-16.519
115.52,-122.658,-16.106
115.55,-119.71,-15.041
115.58,-114.656,-14.113
115.62,-109.286,-13.701
115.65,-105.988,-13.357
115.68,-104.092,-12.784
115.71,-101.671,-12.292
115.75,-98.618,-11.948
115.78,-95.108,-11.33
115.81,-91.142,-10.654
115.84,-86.896,-9.966
115.88,-82.614,-9.313
115.91,-78.824,-8.924
115.94,-75.385,-8.546
115.97,-72.121,-8.065
116.01,-69.067,-7.549
116.04,-65.768,-7.08
116.07,-62.575,-6.575
116.1,-59.521,-6.094
116.14,-56.258,-5.739
116.17,-53.064,-5.418
116.2,-49.905,-4.995
116.23,-46.712,-4.605
116.27,-43.694,-4.33
116.3,-40.851,-3.872
116.33,-37.306,-3.311
116.36,-33.27,-2.807
116.4,-29.375,-2.417
116.43,-25.97,-2.188
116.46,-22.707,-2.028
116.49,-19.548,-1.707
116.53,-15.477,-1.214
116.56,-10.985,-0.733
116.59,-5.721,-0.332
116.62,-0.912,-0.183
