Trigger_Date,2023/06/22
Trigger_Time,T 13:12:21.374 PDT
Samples_Per_Cycle,512
Microseconds_Per_Sample,32.561
Time (ms),Voltage (V),Current (A)
-16.67,0.456,0.756
-16.64,0.632,1.89
-16.61,2.702,2.978
-16.57,7.405,3.929
-16.54,12.459,4.846
-16.51,16.319,5.659
-16.48,19.934,6.301
-16.44,24.426,6.701
-16.41,29.129,6.954
-16.38,33.235,7.125
-16.35,36.429,7.446
-16.31,39.552,7.732
-16.28,42.711,7.973
-16.25,46.08,8.294
-16.22,49.414,8.626
-16.18,52.678,8.878
-16.15,55.766,9.29
-16.12,58.925,9.84
-16.09,62.189,10.23
-16.05,65.628,10.528
-16.02,68.822,10.929
-15.99,71.875,11.421
-15.95,74.998,11.845
-15.92,78.262,12.349
-15.89,81.667,13.002
-15.86,85.316,13.689
-15.82,89.037,14.216
-15.79,92.511,14.64
-15.76,95.705,14.927
-15.73,98.758,15.247
-15.69,101.741,15.488
-15.66,104.654,15.854
-15.63,107.532,16.187
-15.6,110.55,16.714
-15.56,113.884,17.367
-15.53,117.358,17.882
-15.5,120.868,18.34
-15.47,123.956,18.764
-15.43,127.29,19.268
-15.4,131.186,19.612
-15.37,134.871,19.978
-15.34,138.029,20.425
-15.3,141.013,20.849
-15.27,144.066,21.17
-15.24,146.944,21.365
-15.21,149.611,21.628
-15.17,152.383,21.972
-15.14,155.226,22.247
-15.11,157.964,22.556
-15.08,160.666,22.991
-15.04,163.158,23.472
-15.01,165.509,23.896
-14.98,168.282,24.217
-14.95,171.089,24.481
-14.91,173.792,24.698
-14.88,176.108,25.076
-14.85,178.389,25.672
-14.82,181.232,26.21
-14.78,184.18,26.646
-14.75,186.987,27.069
-14.72,189.584,27.379
-14.68,191.83,27.562
-14.65,193.761,27.78
-14.62,195.972,28.123
-14.59,198.639,28.364
-14.55,200.955,28.582
-14.52,202.745,28.857
-14.49,204.605,29.143
-14.46,206.606,29.189
-14.42,207.834,29.269
-14.39,208.922,29.59
-14.36,210.712,29.91
-14.33,213.028,30.254
-14.29,215.063,30.735
-14.26,216.818,31.239
-14.23,218.784,31.64
-14.2,220.784,31.892
-14.16,222.293,32.202
-14.13,224.013,32.637
-14.1,226.364,33.026
-14.07,228.786,33.301
-14.03,230.681,33.611
-14.0,232.506,33.92
-13.97,234.717,34.241
-13.94,237.103,34.229
-13.9,238.542,34.046
-13.87,239.7,34.561
-13.84,241.806,34.848
-13.81,243.982,34.756
-13.77,245.386,34.985
-13.74,247.211,35.592
-13.71,249.422,35.856
-13.68,250.861,35.959
-13.64,252.019,36.177
-13.61,253.703,36.394
-13.58,255.458,36.635
-13.55,256.862,36.956
-13.51,258.09,37.311
-13.48,259.915,37.551
-13.45,261.74,37.586
-13.42,262.828,37.609
-13.38,263.284,37.574
-13.35,263.495,37.574
-13.32,263.53,38.101
-13.28,264.758,38.811
-13.25,265.987,39.178
-13.22,266.618,39.556
-13.19,267.812,40.117
-13.15,269.707,40.266
-13.12,270.83,40.358
-13.09,271.953,40.736
-13.06,273.813,41.125
-13.02,275.778,41.194
-12.99,277.077,41.481
-12.96,278.13,41.813
-12.93,279.463,42.007
-12.89,280.902,41.813
-12.86,281.464,41.492
-12.83,281.042,41.251
-12.8,281.113,41.389
-12.76,282.095,41.251
-12.73,282.867,41.022
-12.7,283.008,41.137
-12.67,283.253,41.366
-12.63,283.569,41.286
-12.6,283.078,41.148
-12.57,283.113,41.607
-12.54,284.131,41.584
-12.5,284.377,41.515
-12.47,284.622,41.985
-12.44,285.324,42.111
-12.41,284.341,42.317
-12.37,282.727,42.706
-12.34,282.306,42.718
-12.31,282.306,42.5
-12.28,281.779,42.557
-12.24,281.604,42.947
-12.21,282.236,43.107
-12.18,282.727,43.027
-12.15,282.341,42.993
-12.11,281.429,42.786
-12.08,280.656,42.34
-12.05,280.095,41.813
-12.01,279.112,41.4
-11.98,277.708,41.206
-11.95,276.41,41.137
-11.92,275.392,40.908
-11.88,274.304,40.507
-11.85,272.409,40.163
-11.82,270.198,39.888
-11.79,268.198,39.545
-11.75,266.899,39.201
-11.72,266.478,39.075
-11.69,266.092,38.926
-11.66,264.864,38.72
-11.62,263.179,38.559
-11.59,261.74,38.319
-11.56,260.371,37.975
-11.53,258.687,37.7
-11.49,257.002,37.574
-11.46,255.739,37.391
-11.43,254.195,37.231
-11.4,252.405,37.173
-11.36,250.79,37.047
-11.33,249.141,36.738
-11.3,247.211,36.406
-11.27,245.421,36.119
-11.23,244.228,35.844
-11.2,242.754,35.489
-11.17,240.753,35.272
-11.14,238.753,35.111
-11.1,237.033,34.871
-11.07,235.278,34.561
-11.04,233.383,34.172
-11.01,231.628,33.931
-10.97,230.19,33.737
-10.94,228.329,33.507
-10.91,226.048,33.324
-10.88,224.153,33.175
-10.84,223.03,32.969
-10.81,221.767,32.465
-10.78,219.556,32.007
-10.75,217.45,31.743
-10.71,216.046,31.319
-10.68,214.572,30.804
-10.65,212.361,30.598
-10.61,210.115,30.38
-10.58,208.08,30.071
-10.55,205.904,29.567
-10.52,203.236,29.212
-10.48,201.271,29.005
-10.45,199.025,28.352
-10.42,196.779,28.272
-10.39,195.2,27.997
-10.35,193.234,27.619
-10.32,191.269,27.379
-10.29,189.058,26.886
-10.26,186.566,26.382
-10.22,184.215,26.016
-10.19,181.548,25.282
-10.16,178.915,25.065
-10.13,177.301,25.065
-10.09,175.792,24.538
-10.06,172.809,23.576
-10.03,168.843,23.117
-10.0,166.035,22.877
-9.96,163.789,22.258
-9.93,160.455,21.376
-9.9,156.911,21.204
-9.87,154.735,21.158
-9.83,153.085,20.631
-9.8,150.172,19.83
-9.77,146.663,19.474
-9.74,143.75,19.096
-9.7,141.293,18.604
-9.67,138.696,18.123
-9.64,135.889,17.664
-9.61,132.87,17.206
-9.57,129.677,16.817
-9.54,126.553,16.427
-9.51,123.676,15.946
-9.48,120.728,15.373
-9.44,117.534,14.778
-9.41,114.13,14.125
-9.38,111.041,13.598
-9.34,108.163,13.151
-9.31,105.005,12.624
-9.28,101.25,11.994
-9.25,96.968,11.375
-9.21,92.757,10.78
-9.18,89.177,10.15
-9.15,85.667,9.371
-9.12,81.982,8.775
-9.08,78.297,8.294
-9.05,74.367,7.79
-9.02,70.647,7.32
-8.99,67.348,6.919
-8.95,64.224,6.541
-8.92,60.995,6.209
-8.89,57.697,5.968
-8.86,54.538,5.67
-8.82,51.59,5.235
-8.79,48.993,4.8
-8.76,46.01,4.365
-8.73,42.676,3.918
-8.69,39.166,3.356
-8.66,35.411,2.818
-8.63,31.621,2.303
-8.6,27.69,1.867
-8.56,23.724,1.466
-8.53,19.653,1.157
-8.5,15.617,0.882
-8.47,11.09,0.733
-8.43,7.054,0.642
-8.4,2.773,0.584
-8.37,0.281,0.378
-8.34,-0.246,-0.412
-8.3,-0.386,-1.501
-8.27,-1.79,-2.635
-8.24,-6.247,-3.643
-8.21,-11.406,-4.594
-8.17,-15.793,-5.464
-8.14,-19.513,-6.152
-8.11,-24.005,-6.61
-8.08,-28.778,-6.896
-8.04,-32.814,-7.148
-8.01,-35.938,-7.412
-7.98,-38.78,-7.606
-7.94,-41.833,-7.893
-7.91,-45.378,-8.271
-7.88,-49.028,-8.534
-7.85,-52.257,-8.798
-7.81,-55.135,-9.29
-7.78,-58.398,-9.84
-7.75,-61.768,-10.218
-7.72,-64.856,-10.711
-7.68,-68.19,-11.433
-7.65,-72.05,-11.845
-7.62,-75.49,-12.246
-7.59,-78.438,-12.601
-7.55,-81.316,-12.956
-7.52,-84.579,-13.563
-7.49,-88.615,-14.01
-7.46,-92.3,-14.297
-7.42,-95.319,-14.663
-7.39,-98.372,-15.075
-7.36,-101.425,-15.431
-7.33,-104.514,-15.969
-7.29,-107.953,-16.507
-7.26,-111.427,-17.011
-7.23,-114.937,-17.538
-7.2,-118.411,-18.008
-7.16,-121.921,-18.386
-7.13,-125.36,-18.821
-7.1,-128.448,-19.268
-7.07,-131.256,-19.669
-7.03,-134.555,-20.208
-7.0,-138.521,-20.883
-6.97,-141.785,-21.032
-6.94,-143.855,-21.284
-6.9,-146.066,-21.605
-6.87,-149.014,-21.926
-6.84,-152.348,-22.178
-6.81,-155.261,-22.396
-6.77,-157.542,-22.854
-6.74,-159.789,-23.427
-6.71,-162.877,-23.885
-6.67,-166.176,-24.206
-6.64,-169.054,-24.572
-6.61,-171.475,-24.916
-6.58,-173.827,-25.259
-6.54,-176.424,-25.672
-6.51,-179.617,-26.164
-6.48,-182.811,-26.657
-6.45,-185.548,-27.173
-6.41,-188.216,-27.47
-6.38,-190.848,-27.516
-6.35,-193.094,-27.688
-6.32,-194.814,-27.952
-6.28,-196.217,-28.146
-6.25,-198.042,-28.387
-6.22,-200.394,-28.857
-6.19,-203.271,-29.235
-6.15,-205.518,-29.338
-6.12,-207.202,-29.762
-6.09,-209.624,-30.231
-6.06,-212.572,-30.426
-6.02,-214.853,-30.712
-5.99,-216.783,-31.182
-5.96,-218.748,-31.503
-5.93,-220.679,-31.824
-5.89,-223.241,-32.202
-5.86,-225.803,-32.557
-5.83,-227.803,-33.049
-5.8,-230.19,-33.519
-5.76,-233.138,-33.748
-5.73,-235.77,-33.874
-5.7,-237.63,-34.046
-5.67,-238.963,-34.241
-5.63,-240.472,-34.493
-5.6,-242.683,-34.71
-5.57,-244.543,-34.596
-5.54,-245.07,-34.481
-5.5,-245.456,-34.859
-5.47,-246.965,-35.191
-5.44,-248.088,-35.272
-5.41,-247.491,-35.524
-5.37,-247.597,-36.165
-5.34,-249.667,-36.612
-5.31,-251.808,-36.784
-5.27,-252.896,-37.231
-5.24,-254.405,-37.883
-5.21,-256.616,-38.136
-5.18,-258.09,-38.296
-5.14,-259.599,-38.72
-5.11,-261.354,-38.995
-5.08,-262.933,-38.995
-5.05,-263.741,-39.121
-5.01,-264.828,-39.51
-4.98,-266.618,-39.728
-4.95,-268.198,-39.636
-4.92,-269.601,-39.728
-4.88,-271.146,-40.026
-4.85,-272.725,-40.301
-4.82,-273.813,-40.507
-4.79,-274.866,-40.61
-4.75,-275.848,-40.644
-4.72,-276.901,-40.747
-4.69,-278.165,-40.828
-4.66,-279.498,-40.988
-4.62,-280.586,-41.194
-4.59,-280.937,-41.297
-4.56,-281.113,-41.274
-4.53,-281.429,-41.011
-4.49,-281.604,-40.919
-4.46,-282.13,-40.873
-4.43,-282.622,-40.954
-4.4,-283.394,-41.355
-4.36,-284.517,-41.481
-4.33,-284.868,-41.355
-4.3,-284.903,-41.377
-4.27,-283.85,-41.503
-4.23,-282.025,-41.927
-4.2,-281.604,-42.363
-4.17,-283.113,-42.901
-4.14,-284.868,-43.336
-4.1,-285.008,-43.554
-4.07,-284.482,-43.795
-4.04,-284.868,-43.462
-4.0,-285.184,-42.981
-3.97,-284.657,-42.615
-3.94,-283.499,-42.615
-3.91,-283.394,-42.729
-3.87,-284.271,-42.626
-3.84,-284.236,-42.363
-3.81,-282.657,-42.168
-3.78,-280.902,-41.778
-3.74,-280.13,-41.481
-3.71,-277.533,-39.235
-3.68,-265.881,-34.057
-3.65,-251.001,-31.537
-3.61,-246.825,-32.408
-3.58,-251.106,-32.167
-3.55,-250.159,-31.411
-3.52,-243.21,-33.003
-3.48,-240.086,-35.249
-3.45,-243.175,-36.348
-3.42,-247.562,-37.735
-3.39,-250.826,-39.968
-3.35,-253.001,-41.549
-3.32,-255.107,-42.248
-3.29,-258.371,-42.592
-3.26,-261.459,-42.408
-3.22,-261.951,-41.721
-3.19,-260.512,-40.999
-3.16,-259.634,-40.255
-3.13,-259.529,-39.315
-3.09,-258.652,-38.399
-3.06,-256.265,-37.792
-3.03,-253.633,-37.437
-3.0,-251.703,-36.807
-2.96,-249.457,-36.131
-2.93,-247.281,-35.856
-2.9,-245.842,-35.684
-2.87,-244.263,-35.432
-2.83,-241.982,-35.191
-2.8,-239.595,-35.18
-2.77,-238.261,-35.134
-2.74,-237.419,-34.768
-2.7,-235.629,-34.355
-2.67,-233.383,-34.241
-2.64,-231.804,-34.138
-2.6,-230.821,-33.828
-2.57,-228.961,-33.45
-2.54,-226.961,-33.381
-2.51,-226.118,-33.244
-2.47,-225.066,-32.568
-2.44,-222.083,-31.972
-2.41,-218.748,-31.858
-2.38,-216.818,-31.663
-2.34,-215.204,-31.182
-2.31,-213.098,-30.77
-2.28,-210.957,-30.563
-2.25,-209.062,-30.105
-2.21,-206.641,-29.487
-2.18,-203.903,-29.063
-2.15,-201.376,-28.776
-2.12,-199.411,-28.456
-2.08,-197.481,-28.215
-2.05,-195.586,-27.986
-2.02,-193.796,-27.722
-1.99,-192.111,-27.356
-1.95,-189.865,-26.817
-1.92,-186.952,-26.348
-1.89,-184.109,-25.947
-1.86,-181.653,-25.534
-1.82,-179.547,-25.202
-1.79,-177.547,-24.881
-1.76,-175.125,-24.423
-1.73,-172.318,-23.942
-1.69,-169.51,-23.381
-1.66,-166.702,-22.819
-1.63,-163.86,-22.201
-1.6,-160.947,-21.514
-1.56,-157.858,-21.113
-1.53,-155.402,-20.78
-1.5,-152.84,-20.242
-1.47,-149.4,-19.852
-1.43,-145.821,-19.452
-1.4,-142.522,-18.879
-1.37,-139.468,-18.317
-1.33,-136.626,-17.916
-1.3,-133.748,-17.573
-1.27,-131.186,-17.183
-1.24,-128.554,-16.782
-1.2,-125.887,-16.416
-1.17,-123.184,-15.969
-1.14,-120.236,-15.419
-1.11,-116.832,-14.881
-1.07,-113.428,-14.514
-1.04,-110.725,-14.125
-1.01,-108.269,-13.563
-0.98,-105.18,-12.968
-0.94,-101.46,-12.498
-0.91,-97.635,-11.902
-0.88,-93.669,-11.181
-0.85,-89.703,-10.573
-0.81,-86.334,-10.012
-0.78,-82.93,-9.394
-0.75,-79.034,-8.912
-0.72,-75.174,-8.5
-0.68,-71.84,-8.042
-0.65,-68.822,-7.469
-0.62,-65.558,-6.896
-0.59,-62.013,-6.323
-0.55,-58.504,-5.9
-0.52,-55.205,-5.533
-0.49,-51.59,-5.132
-0.46,-47.87,-4.823
-0.42,-44.957,-4.571
-0.39,-42.255,-4.032
-0.36,-38.85,-3.391
-0.33,-34.814,-2.99
-0.29,-31.024,-2.555
-0.26,-27.234,-2.051
-0.23,-23.338,-1.65
-0.2,-19.302,-1.272
-0.16,-15.091,-1.031
-0.13,-10.88,-0.974
-0.1,-7.124,-0.825
-0.07,-2.773,-0.722
-0.03,-0.07,-0.493
0.0,0.421,0.367
0.03,0.597,1.546
0.07,1.965,2.83
0.1,6.493,3.826
0.13,11.511,4.639
0.16,15.582,5.464
0.2,19.057,6.186
0.23,23.022,6.484
0.26,27.234,6.805
0.29,31.586,7.206
0.33,35.165,7.251
0.36,37.798,7.446
0.39,40.71,8.007
0.42,44.817,8.397
0.46,48.537,8.592
0.49,51.309,8.947
0.52,53.941,9.508
0.55,57.135,9.966
0.59,60.68,10.482
0.62,64.365,10.848
0.65,67.944,11.284
0.68,71.664,11.753
0.72,75.349,12.177
0.75,78.894,12.372
0.78,82.298,12.853
0.81,86.194,13.518
0.85,90.019,13.873
0.88,93.037,14.033
0.91,95.494,14.377
0.94,98.302,14.869
0.98,101.39,15.293
1.01,104.654,15.728
1.04,108.269,16.347
1.07,112.305,17.08
1.11,116.165,17.504
1.14,119.183,17.848
1.17,121.851,18.134
1.2,124.693,18.432
1.24,127.571,18.776
1.27,130.519,19.154
1.3,133.432,19.555
1.33,136.45,20.185
1.37,139.819,20.723
1.4,143.329,21.101
1.43,146.066,21.319
1.47,148.277,21.582
1.5,150.804,21.949
1.53,153.928,22.292
1.56,156.911,22.648
1.6,159.789,23.129
1.63,162.631,23.587
1.66,165.404,23.919
1.69,167.966,24.274
1.73,170.563,24.641
1.76,173.265,24.893
1.79,175.687,25.259
1.82,178.424,25.798
1.86,181.583,26.29
1.89,184.566,26.646
1.92,187.268,27.012
1.95,189.619,27.333
1.99,191.795,27.562
2.02,193.971,27.734
2.05,196.323,27.986
2.08,198.744,28.284
2.12,201.025,28.547
2.15,202.85,28.788
2.18,204.675,29.109
2.21,206.57,29.269
2.25,208.044,29.361
2.28,209.308,29.716
2.31,211.554,30.094
2.34,214.256,30.346
2.38,216.502,30.632
2.41,218.433,30.953
2.44,220.047,31.457
2.47,222.012,31.801
2.51,223.907,31.869
2.54,225.803,32.133
2.57,227.979,32.522
2.6,229.909,32.855
2.64,230.962,33.278
2.67,231.909,33.863
2.7,233.804,34.367
2.74,236.191,34.561
2.77,237.805,34.653
2.8,239.139,34.939
2.83,240.929,35.249
2.87,242.683,35.535
2.9,244.333,35.959
2.93,246.333,36.268
2.96,248.334,36.383
3.0,249.913,36.543
3.03,251.176,36.738
3.06,252.861,36.864
3.09,254.756,36.967
3.13,256.195,37.116
3.16,257.178,37.425
3.19,258.441,37.712
3.22,260.336,37.964
3.26,262.056,38.067
3.29,262.933,38.147
3.32,263.776,38.445
3.35,265.215,38.811
3.39,266.794,38.914
3.42,267.706,39.018
3.45,268.724,39.315
3.48,270.163,39.613
3.52,271.672,39.728
3.55,272.83,39.842
3.58,273.111,40.369
3.61,273.006,41.263
3.65,274.199,41.733
3.68,275.778,41.744
3.71,276.971,41.916
3.74,277.884,42.294
3.78,279.112,42.374
3.81,280.025,42.294
3.84,280.516,42.317
3.87,281.007,42.374
3.91,281.744,42.328
3.94,282.552,42.328
3.97,283.078,42.34
4.0,283.499,42.34
4.04,283.92,42.225
4.07,283.92,41.927
4.1,283.955,42.202
4.14,284.096,42.317
4.17,284.306,42.443
4.2,285.078,42.523
4.23,285.5,42.477
4.27,285.429,42.523
4.3,285.289,42.42
4.33,285.149,42.099
4.36,284.517,41.744
4.4,283.569,41.538
4.43,283.359,41.607
4.46,283.85,41.675
4.49,283.815,41.595
4.53,282.797,41.572
4.56,281.674,41.389
4.59,280.762,40.999
4.62,279.218,40.77
4.66,277.287,40.759
4.69,275.954,40.862
4.72,275.533,40.931
4.75,274.585,40.954
4.79,272.83,40.988
4.82,271.146,40.805
4.85,270.093,40.404
4.88,269.04,40.003
4.92,267.39,39.808
4.95,265.987,39.762
4.98,265.495,39.625
5.01,265.039,39.304
5.05,263.53,39.132
5.08,261.74,38.949
5.11,260.301,38.514
5.14,258.441,38.227
5.18,257.108,38.078
5.21,255.879,37.883
5.24,254.475,37.62
5.27,253.107,37.334
5.31,251.633,37.082
5.34,249.948,36.772
5.37,247.737,36.303
5.41,245.386,36.005
5.44,243.561,35.925
5.47,242.473,35.673
5.5,241.104,35.214
5.54,239.244,35.054
5.57,237.665,34.848
5.6,235.84,34.458
5.63,233.769,34.183
5.67,231.172,33.966
5.7,229.277,34.08
5.73,228.856,34.012
5.76,228.224,33.611
5.8,225.732,33.164
5.83,223.206,33.107
5.86,222.223,32.763
5.89,221.1,32.064
5.93,218.784,31.652
5.96,215.941,31.606
5.99,214.081,31.388
6.02,212.747,30.919
6.06,211.063,30.678
6.09,208.781,30.506
6.12,206.079,30.002
6.15,203.622,29.452
6.19,201.552,29.074
6.22,199.832,28.627
6.25,197.832,28.204
6.28,195.515,27.952
6.32,193.48,27.722
6.35,191.515,27.321
6.38,189.268,26.726
6.41,186.671,26.13
6.45,183.969,25.683
6.48,181.372,25.237
6.51,178.81,24.847
6.54,176.74,24.595
6.58,174.739,24.297
6.61,171.861,23.839
6.64,168.211,23.392
6.67,165.053,23.037
6.71,162.947,22.499
6.74,160.455,21.903
6.77,157.367,21.525
6.81,154.454,21.193
6.84,151.787,20.883
6.87,149.435,20.276
6.9,146.628,19.681
6.94,143.434,19.257
6.97,140.205,18.787
7.0,137.222,18.398
7.03,134.555,17.859
7.07,131.993,17.561
7.1,129.396,17.16
7.13,126.518,16.691
7.16,123.325,16.164
7.2,119.955,15.66
7.23,116.762,15.133
7.26,113.884,14.549
7.29,111.111,14.09
7.33,108.304,13.609
7.36,104.97,12.991
7.39,100.934,12.395
7.42,96.933,11.799
7.46,93.108,11.146
7.49,89.282,10.493
7.52,85.387,9.84
7.55,81.245,9.394
7.59,77.876,9.038
7.62,75.069,8.443
7.65,71.664,7.859
7.68,68.05,7.469
7.72,64.61,6.942
7.75,61.206,6.392
7.78,57.802,5.945
7.81,54.608,5.613
7.85,51.59,5.212
7.88,48.291,4.857
7.91,45.062,4.387
7.94,41.763,3.792
7.98,38.043,3.276
8.01,34.183,2.875
8.04,30.322,2.463
8.08,26.532,2.096
8.11,22.882,1.856
8.14,19.302,1.638
8.17,15.898,1.363
8.21,12.318,1.203
8.24,8.739,1.111
8.27,4.633,0.825
8.3,0.877,0.561
8.34,-0.281,-0.172
8.37,-0.386,-1.42
8.4,-1.334,-2.715
8.43,-5.37,-3.746
8.47,-10.634,-4.662
8.5,-15.196,-5.556
8.53,-18.881,-6.175
8.56,-22.917,-6.587
8.6,-27.76,-6.931
8.63,-32.603,-7.251
8.66,-36.218,-7.274
8.69,-38.605,-7.412
8.73,-41.237,-7.732
8.76,-44.571,-8.053
8.79,-47.87,-8.385
8.82,-51.099,-8.867
8.86,-54.433,-9.336
8.89,-57.697,-9.772
8.92,-61.171,-10.207
8.95,-64.786,-10.699
8.99,-68.33,-11.169
9.02,-71.875,-11.559
9.05,-75.42,-11.994
9.08,-78.824,-12.521
9.12,-82.368,-13.071
9.15,-85.738,-13.632
9.18,-89.001,-14.136
9.21,-92.511,-14.606
9.25,-96.021,-15.075
9.28,-99.214,-15.499
9.31,-102.338,-15.877
9.34,-105.637,-16.278
9.38,-109.006,-16.725
9.41,-112.129,-17.206
9.44,-115.147,-17.699
9.48,-118.481,-18.123
9.51,-121.78,-18.409
9.54,-124.448,-18.833
9.57,-127.045,-19.291
9.61,-130.484,-19.635
9.64,-134.45,-19.944
9.67,-138.626,-20.528
9.7,-142.136,-20.941
9.74,-144.241,-21.158
9.77,-145.961,-21.307
9.8,-148.418,-21.525
9.83,-152.664,-22.224
9.87,-156.735,-22.419
9.9,-158.841,-22.613
9.93,-160.49,-23.163
9.96,-163.509,-23.713
10.0,-167.018,-23.976
10.03,-169.756,-24.332
10.06,-171.826,-24.733
10.09,-173.897,-25.088
10.13,-176.248,-25.397
10.16,-179.196,-25.912
10.19,-182.6,-26.394
10.22,-185.583,-26.76
10.26,-187.794,-27.127
10.29,-189.935,-27.505
10.32,-192.427,-27.631
10.35,-194.954,-27.803
10.39,-197.235,-28.146
10.42,-200.043,-29.017
10.45,-204.149,-29.819
10.48,-207.553,-29.796
10.52,-208.781,-29.819
10.55,-209.518,-30.117
10.58,-210.887,-30.277
10.61,-212.466,-30.22
10.65,-213.66,-30.38
10.68,-214.923,-30.735
10.71,-216.537,-30.987
10.75,-218.082,-31.193
10.78,-219.661,-31.56
10.81,-221.486,-31.904
10.84,-223.241,-32.076
10.88,-224.75,-32.144
10.91,-225.838,-32.385
10.94,-227.312,-32.557
10.97,-228.926,-32.66
11.01,-230.365,-32.912
11.04,-231.699,-33.072
11.07,-232.927,-33.313
11.1,-234.576,-33.725
11.14,-236.086,-34.183
11.17,-237.454,-34.252
11.2,-239.209,-34.71
11.23,-241.982,-35.226
11.27,-245.105,-35.856
11.3,-247.632,-36.44
11.33,-249.632,-36.761
11.36,-251.457,-36.807
11.4,-253.528,-36.807
11.43,-255.318,-36.784
11.46,-256.16,-36.795
11.49,-256.862,-37.07
11.53,-258.301,-37.047
11.56,-259.424,-37.013
11.59,-259.634,-37.803
11.62,-259.95,-38.456
11.66,-260.898,-38.8
11.69,-262.372,-39.224
11.72,-264.513,-39.785
11.75,-266.443,-39.957
11.79,-267.18,-40.117
11.82,-268.163,-40.576
11.85,-269.987,-40.724
11.88,-271.883,-40.805
11.92,-273.006,-40.988
11.95,-273.778,-41.217
11.98,-275.041,-41.458
12.01,-276.691,-41.595
12.05,-277.673,-41.675
12.08,-278.024,-41.904
12.11,-279.323,-42.168
12.15,-281.358,-41.87
12.18,-281.99,-41.595
12.21,-281.464,-41.446
12.24,-281.674,-41.561
12.28,-282.903,-41.515
12.31,-283.78,-41.481
12.34,-283.71,-41.664
12.37,-283.675,-42.019
12.41,-284.482,-42.111
12.44,-285.078,-41.904
12.47,-284.798,-41.847
12.5,-284.552,-42.019
12.54,-285.464,-42.065
12.57,-286.131,-41.721
12.6,-284.306,-42.099
12.63,-282.587,-42.775
12.67,-282.973,-42.729
12.7,-283.499,-42.397
12.73,-283.008,-42.363
12.76,-281.885,-42.534
12.8,-281.218,-42.638
12.83,-281.253,-42.649
12.86,-280.972,-42.386
12.89,-279.182,-41.698
12.93,-275.989,-40.919
12.96,-273.286,-40.415
12.99,-272.409,-40.026
13.02,-272.093,-39.842
13.06,-271.321,-40.026
13.09,-269.952,-40.369
13.12,-269.18,-40.702
13.15,-269.601,-40.85
13.19,-270.163,-40.908
13.22,-269.882,-40.988
13.25,-269.18,-41.045
13.28,-269.075,-41.045
13.32,-269.426,-40.954
13.35,-269.145,-40.782
13.38,-267.882,-40.576
13.42,-266.583,-40.094
13.45,-264.934,-39.361
13.48,-263.074,-38.674
13.51,-261.214,-38.055
13.55,-259.248,-37.586
13.58,-256.546,-37.265
13.61,-253.984,-37.047
13.64,-252.019,-36.784
13.68,-250.299,-36.532
13.71,-247.948,-36.154
13.74,-245.667,-36.039
13.77,-244.157,-35.959
13.81,-242.613,-35.547
13.84,-240.578,-35.283
13.87,-238.367,-34.985
13.9,-236.542,-34.71
13.94,-234.927,-34.424
13.97,-233.208,-34.046
14.0,-231.313,-33.656
14.03,-229.066,-33.576
14.07,-227.417,-33.519
14.1,-226.189,-33.141
14.13,-224.609,-32.9
14.16,-222.855,-32.774
14.2,-221.03,-32.431
14.23,-218.959,-31.972
14.26,-216.783,-31.675
14.29,-215.028,-31.354
14.33,-213.274,-30.884
14.36,-211.378,-30.483
14.39,-209.448,-30.197
14.42,-207.588,-29.819
14.46,-205.272,-29.349
14.49,-202.64,-29.063
14.52,-200.71,-28.742
14.55,-198.955,-28.307
14.59,-196.744,-28.078
14.62,-194.147,-28.009
14.65,-191.725,-27.837
14.68,-189.725,-27.539
14.72,-187.794,-27.092
14.75,-185.478,-26.691
14.78,-183.022,-26.279
14.82,-180.53,-25.729
14.85,-178.389,-25.351
14.88,-176.494,-25.111
14.91,-174.283,-24.629
14.95,-171.265,-24.068
14.98,-167.931,-23.61
15.01,-165.193,-23.106
15.04,-162.245,-22.384
15.08,-159.613,-22.132
15.11,-157.542,-21.731
15.14,-155.331,-21.491
15.17,-152.734,-20.883
15.21,-149.12,-20.116
15.24,-145.645,-19.852
15.27,-142.697,-19.463
15.3,-140.662,-19.383
15.34,-139.012,-18.913
15.37,-136.45,-18.295
15.4,-133.362,-17.836
15.43,-130.414,-17.424
15.47,-127.711,-16.863
15.5,-124.728,-16.21
15.53,-121.184,-15.648
15.56,-117.323,-14.984
15.6,-113.673,-14.377
15.63,-110.48,-13.93
15.66,-107.497,-13.529
15.69,-104.478,-12.945
15.73,-101.355,-12.269
15.76,-97.986,-11.593
15.79,-94.231,-10.848
15.82,-90.089,-10.069
15.86,-85.878,-9.451
15.89,-82.053,-8.89
15.92,-78.403,-8.385
15.95,-74.683,-7.904
15.99,-71.103,-7.446
16.02,-67.804,-6.988
16.05,-64.68,-6.587
16.09,-61.662,-6.266
16.12,-58.784,-5.888
16.15,-55.661,-5.464
16.18,-52.292,-5.063
16.22,-48.817,-4.651
16.25,-45.554,-4.181
16.28,-42.044,-3.597
16.31,-38.113,-3.082
16.35,-34.218,-2.577
16.38,-30.147,-2.062
16.41,-25.865,-1.673
16.44,-21.794,-1.306
16.48,-17.828,-0.916
16.51,-13.336,-0.699
16.54,-8.669,-0.699
16.57,-4.703,-0.699
16.61,-1.158,-0.836
16.64,0.105,-0.55
16.67,0.456,0.378
16.7,0.456,1.432
16.74,2.036,2.681
16.77,6.808,3.803
16.8,12.283,4.662
16.83,16.249,5.418
16.87,19.688,6.14
16.9,23.865,6.564
16.93,28.357,6.839
16.96,32.323,7.251
17.0,36.078,7.595
17.03,39.517,7.744
17.06,42.746,8.019
17.09,46.045,8.374
17.13,49.203,8.729
17.16,52.116,9.038
17.19,55.24,9.577
17.22,58.925,10.115
17.26,62.645,10.47
17.29,65.839,10.86
17.32,68.681,11.307
17.35,71.805,11.788
17.39,75.314,12.189
17.42,78.894,12.555
17.45,82.123,13.014
17.49,85.141,13.609
17.52,88.229,14.159
17.55,91.528,14.686
17.58,95.284,15.041
17.62,98.969,15.385
17.65,102.303,15.683
17.68,105.672,15.969
17.71,108.795,16.129
17.75,111.533,16.507
17.78,114.796,17.069
17.81,118.341,17.493
17.84,121.535,18.02
17.88,124.483,18.478
17.91,127.466,19.016
17.94,130.905,19.52
17.97,134.415,20.047
18.01,137.924,20.574
18.04,141.364,21.009
18.07,144.347,21.25
18.1,147.189,21.514
18.14,149.962,21.777
18.17,152.419,21.731
18.2,153.998,22.006
18.23,156.104,22.648
18.27,159.227,23.232
18.3,162.491,23.564
18.33,165.053,24.034
18.36,167.545,24.538
18.4,170.212,24.79
18.43,172.914,24.996
18.46,175.406,25.466
18.49,178.284,26.027
18.53,181.512,26.531
18.56,184.39,26.966
18.59,186.882,27.47
18.62,189.198,27.837
18.66,191.585,28.032
18.69,193.761,28.204
18.72,195.726,28.524
18.76,197.937,28.902
18.79,200.569,29.212
18.82,202.71,29.487
18.85,204.465,29.807
18.89,206.255,29.899
18.92,208.185,29.853
18.95,210.08,29.968
18.98,211.729,30.346
19.02,213.484,30.77
19.05,215.309,31.079
19.08,217.415,31.445
19.11,219.766,31.846
19.15,221.556,32.041
19.18,222.504,32.133
19.21,223.802,32.545
19.24,226.189,32.981
19.28,228.891,33.233
19.31,230.681,33.496
19.34,232.19,33.92
19.37,234.506,34.183
19.41,236.998,34.16
19.44,238.191,34.172
19.47,239.279,34.848
19.5,241.49,35.111
19.54,243.42,35.111
19.57,243.771,35.455
19.6,244.298,36.383
19.63,246.93,36.979
19.67,249.738,37.036
19.7,250.896,37.219
19.73,251.703,37.723
19.76,253.633,38.01
19.8,255.704,38.067
19.83,257.353,38.33
19.86,258.827,38.685
19.89,260.406,38.914
19.93,261.775,38.96
19.96,263.004,38.949
19.99,264.197,39.041
20.02,265.215,39.315
20.06,266.267,39.625
20.09,267.601,39.671
20.12,268.689,39.693
20.16,269.987,40.014
20.19,271.637,40.129
20.22,272.69,40.186
20.25,273.567,40.53
20.29,274.901,40.702
20.32,276.199,40.656
20.35,277.217,40.919
20.38,278.621,41.183
20.42,279.955,41.045
20.45,280.481,40.999
20.48,280.902,41.091
20.51,281.569,40.793
20.55,280.692,40.805
20.58,279.463,41.412
20.61,280.06,42.042
20.64,281.464,42.088
20.68,281.674,42.099
20.71,281.148,42.58
20.74,281.99,42.878
20.77,283.675,42.775
20.81,284.026,42.626
20.84,283.99,43.245
20.87,285.324,43.52
20.9,285.851,43.061
20.94,285.008,43.176
20.97,284.973,43.233
21.0,285.289,42.764
21.03,284.692,42.202
21.07,283.429,42.076
21.1,282.832,42.202
21.13,283.148,42.145
21.16,283.429,42.019
21.2,282.832,41.962
21.23,281.674,41.79
21.26,280.902,41.355
21.29,280.095,40.965
21.33,278.867,40.759
21.36,277.919,40.621
21.39,277.287,40.45
21.43,276.164,40.255
21.46,274.585,40.083
21.49,273.006,39.739
21.52,271.461,39.315
21.56,269.847,38.903
21.59,267.39,38.708
21.62,264.899,38.869
21.65,263.776,39.018
21.69,263.425,38.892
21.72,262.547,38.823
21.75,260.933,38.834
21.78,259.354,38.662
21.82,257.985,38.41
21.85,257.072,38.17
21.88,256.055,37.929
21.91,254.475,37.7
21.95,252.194,37.563
21.98,250.334,37.425
22.01,248.755,37.105
22.04,246.965,36.795
22.08,245.175,36.589
22.11,243.947,36.406
22.14,242.859,36.016
22.17,241.209,35.684
22.21,239.349,35.478
22.24,237.349,35.054
22.27,235.349,34.687
22.3,233.734,34.355
22.34,231.944,34.08
22.37,229.909,33.748
22.4,227.628,33.553
22.43,225.943,33.473
22.47,224.609,33.21
22.5,223.206,33.049
22.53,221.977,32.889
22.56,220.468,32.431
22.6,218.222,31.995
22.63,216.011,31.824
22.66,214.432,31.549
22.69,213.028,31.102
22.73,211.414,30.735
22.76,209.343,30.392
22.79,206.746,29.865
22.83,203.552,29.372
22.86,200.885,29.04
22.89,198.885,28.639
22.92,196.989,28.307
22.96,194.954,28.089
22.99,193.024,27.848
23.02,191.234,27.47
23.05,189.128,26.932
23.09,186.461,26.405
23.12,183.548,26.004
23.15,181.302,25.534
23.18,179.301,25.076
23.22,177.161,24.824
23.25,174.844,24.481
23.28,172.247,23.896
23.31,169.194,23.323
23.35,166.316,22.854
23.38,163.509,22.292
23.41,160.455,21.743
23.44,157.542,21.365
23.48,155.261,21.009
23.51,153.085,20.517
23.54,149.997,19.898
23.57,146.101,19.417
23.61,143.048,19.039
23.64,140.942,18.455
23.67,138.696,17.962
23.7,135.573,17.332
23.74,132.169,17.08
23.77,129.15,16.737
23.8,126.202,16.255
23.83,123.465,15.843
23.87,120.798,15.385
23.9,117.709,14.812
23.93,114.375,14.239
23.96,111.111,13.815
24.0,108.409,13.357
24.03,105.286,12.716
24.06,101.46,12.051
24.09,97.284,11.444
24.13,93.283,10.848
24.16,89.703,10.161
24.19,85.948,9.462
24.23,81.912,9.016
24.26,78.297,8.683
24.29,74.858,8.225
24.32,71.419,7.687
24.36,68.05,7.251
24.39,64.68,6.77
24.42,61.311,6.255
24.45,57.977,5.808
24.49,54.678,5.441
24.52,51.379,5.132
24.55,47.765,4.892
24.58,44.606,4.513
24.62,41.693,3.975
24.65,38.499,3.54
24.68,34.85,3.127
24.71,30.989,2.715
24.75,27.234,2.325
24.78,23.865,1.993
24.81,20.285,1.695
24.84,16.635,1.386
24.88,12.494,1.077
24.91,8.423,0.733
24.94,3.439,0.47
24.97,0.211,0.149
25.01,-0.281,-0.813
25.04,-0.456,-1.902
25.07,-2.316,-2.99
25.1,-6.844,-3.883
25.14,-11.722,-4.788
25.17,-15.898,-5.682
25.2,-19.794,-6.404
25.23,-24.251,-6.805
25.27,-28.954,-7.148
25.3,-33.13,-7.366
25.33,-36.183,-7.377
25.36,-38.57,-7.538
25.4,-41.167,-7.962
25.43,-44.431,-8.294
25.46,-47.729,-8.557
25.5,-50.783,-9.05
25.53,-54.012,-9.588
25.56,-57.591,-9.978
25.59,-61.031,-10.413
25.63,-64.54,-10.963
25.66,-67.804,-11.467
25.69,-71.524,-11.983
25.72,-75.63,-12.372
25.76,-79.526,-12.75
25.79,-83.035,-13.151
25.82,-86.334,-13.609
25.85,-89.774,-13.953
25.89,-93.143,-14.285
25.92,-96.407,-14.709
25.95,-99.425,-15.075
25.98,-102.267,-15.396
26.02,-105.215,-15.866
26.05,-108.655,-16.313
26.08,-112.129,-16.737
26.11,-115.288,-17.252
26.15,-118.236,-17.779
26.18,-121.5,-18.157
26.21,-124.939,-18.501
26.24,-128.168,-18.833
26.28,-131.01,-19.257
26.31,-134.134,-19.726
26.34,-137.854,-20.483
26.37,-141.995,-21.055
26.41,-145.294,-21.17
26.44,-147.4,-21.25
26.47,-149.26,-21.502
26.5,-152.103,-22.247
26.54,-155.717,-22.682
26.57,-158.595,-22.957
26.6,-160.982,-23.404
26.63,-163.895,-23.931
26.67,-167.018,-24.183
26.7,-169.44,-24.446
26.73,-171.651,-24.79
26.76,-173.897,-25.122
26.8,-176.494,-25.42
26.83,-179.477,-25.855
26.86,-182.495,-26.371
26.9,-185.443,-26.783
26.93,-187.865,-27.069
26.96,-190.181,-27.333
26.99,-192.322,-27.551
27.03,-194.392,-27.757
27.06,-196.428,-27.974
27.09,-198.709,-28.444
27.12,-201.622,-29.017
27.16,-204.465,-29.326
27.19,-206.149,-29.498
27.22,-207.448,-29.578
27.25,-209.238,-29.658
27.29,-211.098,-29.704
27.32,-212.782,-29.762
27.35,-214.046,-29.91
27.38,-215.309,-30.323
27.42,-217.204,-30.689
27.45,-219.45,-30.941
27.48,-221.486,-31.228
27.51,-223.276,-31.445
27.55,-224.504,-31.686
27.58,-225.768,-32.11
27.61,-227.277,-32.568
27.64,-228.645,-33.141
27.68,-230.576,-33.702
27.71,-232.611,-33.954
27.74,-234.471,-34.309
27.77,-236.261,-34.493
27.81,-238.437,-34.917
27.84,-240.683,-35.237
27.87,-242.332,-35.489
27.9,-243.736,-35.833
27.94,-245.772,-36.303
27.97,-248.053,-36.658
28.0,-249.948,-36.818
28.03,-251.457,-36.841
28.07,-252.896,-36.887
28.1,-254.265,-36.956
28.13,-255.809,-37.093
28.17,-257.564,-37.231
28.2,-258.757,-37.483
28.23,-259.634,-37.838
28.26,-261.179,-37.906
28.3,-262.547,-37.964
28.33,-263.425,-38.273
28.36,-264.688,-38.525
28.39,-266.302,-38.617
28.43,-267.461,-38.662
28.46,-268.513,-38.892
28.49,-269.707,-39.144
28.52,-271.216,-39.361
28.56,-272.725,-39.419
28.59,-272.865,-39.968
28.62,-272.339,-40.919
28.65,-273.357,-41.492
28.69,-275.006,-41.503
28.72,-276.024,-41.641
28.75,-276.831,-42.053
28.78,-278.024,-42.111
28.82,-279.007,-42.099
28.85,-279.709,-42.202
28.88,-280.376,-42.168
28.91,-280.937,-42.351
28.95,-281.99,-42.569
28.98,-282.727,-42.603
29.01,-283.113,-42.649
29.04,-283.604,-42.718
29.08,-284.517,-42.741
29.11,-284.692,-42.271
29.14,-283.99,-42.294
29.17,-284.657,-42.626
29.21,-285.921,-42.489
29.24,-285.5,-42.454
29.27,-284.938,-42.718
29.3,-285.254,-42.569
29.34,-285.289,-42.202
29.37,-284.447,-41.813
29.4,-283.675,-41.561
29.43,-283.499,-41.4
29.47,-283.675,-41.286
29.5,-283.253,-41.251
29.53,-281.92,-41.251
29.57,-280.025,-40.999
29.6,-277.568,-40.782
29.63,-275.743,-40.724
29.66,-275.041,-40.736
29.7,-274.936,-40.885
29.73,-274.76,-41.148
29.76,-274.094,-41.297
29.79,-273.041,-41.435
29.83,-272.339,-41.32
29.86,-271.742,-41.034
29.89,-271.146,-40.724
29.92,-270.058,-40.472
29.96,-268.654,-40.301
29.99,-267.671,-40.117
30.02,-267.075,-39.751
30.05,-265.776,-39.441
30.09,-263.846,-39.086
30.12,-261.565,-38.605
30.15,-259.564,-38.239
30.18,-258.546,-37.803
30.22,-257.213,-37.414
30.25,-254.791,-37.231
30.28,-252.299,-37.082
30.31,-250.545,-36.841
30.35,-248.93,-36.497
30.38,-246.614,-36.016
30.41,-244.122,-35.867
30.44,-243.069,-35.753
30.48,-242.192,-35.214
30.51,-240.121,-34.974
30.54,-237.84,-34.836
30.57,-235.98,-34.642
30.61,-234.471,-34.412
30.64,-232.541,-34.183
30.67,-230.435,-34.08
30.7,-228.891,-34.069
30.74,-227.838,-33.908
30.77,-226.434,-33.622
30.8,-224.399,-33.462
30.84,-222.644,-33.267
30.87,-220.995,-32.82
30.9,-219.45,-32.431
30.93,-217.59,-31.72
30.97,-215.169,-31.411
31.0,-213.484,-31.377
31.03,-212.291,-30.987
31.06,-210.606,-30.506
31.1,-208.325,-30.277
31.13,-205.904,-30.002
31.16,-203.412,-29.509
31.19,-201.271,-29.109
31.23,-199.411,-28.696
31.26,-197.235,-28.318
31.29,-194.778,-28.089
31.32,-192.848,-27.78
31.36,-191.234,-27.276
31.39,-188.918,-26.737
31.42,-186.11,-26.245
31.45,-183.478,-25.718
31.49,-181.021,-25.179
31.52,-178.529,-24.79
31.55,-176.283,-24.503
31.58,-173.827,-24.137
31.62,-171.054,-23.644
31.65,-168.317,-23.117
31.68,-165.649,-22.625
31.71,-163.158,-22.075
31.75,-160.631,-21.388
31.78,-157.507,-20.952
31.81,-154.805,-20.769
31.84,-152.243,-20.334
31.88,-149.471,-19.726
31.91,-146.382,-19.303
31.94,-143.294,-18.821
31.97,-140.591,-18.592
32.01,-137.994,-18.054
32.04,-134.941,-17.619
32.07,-132.379,-17.344
32.1,-129.922,-16.759
32.14,-126.869,-16.21
32.17,-123.5,-15.728
32.2,-120.271,-15.213
32.24,-116.867,-14.617
32.27,-113.428,-14.136
32.3,-110.48,-13.689
32.33,-107.812,-13.22
32.37,-104.619,-12.635
32.4,-100.969,-12.109
32.43,-96.898,-11.547
32.46,-92.967,-10.952
32.5,-89.317,-10.276
32.53,-85.773,-9.657
32.56,-82.228,-9.107
32.59,-78.754,-8.603
32.63,-75.139,-8.042
32.66,-71.664,-7.561
32.69,-68.225,-7.011
32.72,-64.505,-6.392
32.76,-60.68,-5.877
32.79,-57.065,-5.441
32.82,-53.696,-4.995
32.85,-50.327,-4.502
32.89,-46.712,-4.124
32.92,-43.343,-3.838
32.95,-39.833,-3.528
32.98,-36.569,-3.299
33.02,-33.797,-3.082
33.05,-30.989,-2.761
33.08,-27.795,-2.429
33.11,-24.496,-2.005
33.15,-20.706,-1.512
33.18,-16.495,-1.146
33.21,-12.213,-0.836
33.24,-7.861,-0.447
33.28,-2.702,-0.355
33.31,0.0,-0.149
33.34,0.456,0.871
33.37,0.807,2.073
33.41,3.264,3.024
33.44,7.826,3.918
33.47,12.564,4.88
33.51,16.389,5.602
33.54,19.969,6.129
33.57,24.075,6.53
33.6,28.568,6.885
33.64,32.954,7.171
33.67,36.639,7.469
33.7,39.728,7.664
33.73,42.851,7.801
33.77,46.08,8.133
33.8,48.958,8.259
33.83,51.344,8.477
33.86,54.082,9.004
33.9,57.346,9.382
33.93,60.645,9.726
33.96,63.733,10.264
33.99,66.927,10.86
34.03,70.331,11.375
34.06,73.84,12.017
34.09,77.666,12.613
34.12,81.526,13.14
34.16,85.352,13.632
34.19,88.931,14.113
34.22,92.511,14.606
34.25,95.845,15.041
34.29,99.249,15.408
34.32,102.689,15.751
34.35,106.058,16.141
34.38,109.322,16.702
34.42,112.691,17.229
34.45,116.06,17.687
34.48,119.113,18.157
34.51,122.202,18.535
34.55,125.114,18.821
34.58,128.484,19.28
34.61,132.169,19.623
34.64,135.643,19.933
34.68,138.24,20.208
34.71,140.907,20.918
34.74,144.347,21.239
34.77,146.803,21.113
34.81,148.663,21.548
34.84,151.155,22.052
34.87,154.279,22.522
34.91,157.332,22.819
34.94,160.385,23.404
34.97,163.684,23.839
35.0,166.386,24.011
35.04,168.633,24.297
35.07,170.949,24.641
35.1,173.335,24.881
35.13,175.827,25.202
35.17,178.67,25.695
35.2,181.898,26.187
35.23,184.741,26.554
35.26,186.847,27.058
35.3,189.058,27.413
35.33,191.479,27.574
35.36,193.761,27.78
35.39,196.147,28.066
35.43,198.534,28.318
35.46,200.534,28.559
35.49,202.254,28.868
35.52,204.114,29.166
35.56,205.763,29.395
35.59,207.272,29.578
35.62,208.711,29.876
35.65,210.326,30.357
35.69,212.537,30.873
35.72,215.028,31.228
35.75,217.064,31.64
35.78,218.994,32.202
35.82,221.416,32.488
35.85,223.276,32.465
35.88,224.785,32.751
35.91,226.855,33.084
35.95,229.137,33.301
35.98,230.891,33.542
36.01,232.751,33.863
36.04,235.103,34.103
36.08,236.858,34.206
36.11,237.805,34.241
36.14,239.244,34.825
36.18,241.56,35.134
36.21,243.21,35.249
36.24,244.263,35.501
36.27,246.193,35.97
36.31,249.036,36.337
36.34,251.071,36.337
36.37,251.633,36.383
36.4,252.37,36.681
36.44,254.686,36.864
36.47,256.967,36.841
36.5,257.95,37.105
36.53,258.582,37.574
36.57,259.319,37.952
36.6,259.634,38.353
36.63,259.915,38.846
36.66,261.143,39.361
36.7,263.495,39.762
36.73,265.706,40.129
36.76,266.934,40.369
36.79,267.671,40.713
36.83,269.215,40.942
36.86,270.9,40.873
36.89,271.883,41.057
36.92,273.181,41.355
36.96,274.901,41.309
36.99,275.848,41.4
37.02,276.761,41.95
37.05,278.551,42.088
37.09,280.165,41.744
37.12,280.656,41.629
37.15,280.762,41.996
37.18,281.604,41.813
37.22,282.201,41.251
37.25,282.095,41.183
37.28,282.201,41.561
37.31,283.183,41.549
37.35,283.604,41.4
37.38,283.359,41.572
37.41,283.78,41.927
37.44,285.114,41.744
37.48,284.763,41.274
37.51,284.341,41.755
37.54,285.078,42.225
37.58,284.236,42.603
37.61,282.762,42.912
37.64,282.516,43.05
37.67,283.008,42.97
37.71,283.008,42.832
37.74,282.306,42.775
37.77,281.955,42.89
37.8,282.797,42.935
37.84,283.394,42.798
37.87,282.657,42.683
37.9,281.288,42.523
37.93,280.551,42.099
37.97,280.025,41.618
38.0,279.393,41.274
38.03,278.305,41.045
38.06,276.901,40.965
38.1,275.603,40.805
38.13,274.69,40.461
38.16,273.427,40.014
38.19,271.532,39.602
38.23,269.286,39.189
38.26,267.461,38.823
38.29,266.057,38.697
38.32,264.969,38.72
38.36,263.846,38.628
38.39,262.267,38.525
38.42,260.898,38.388
38.45,260.056,38.044
38.49,258.687,37.746
38.52,257.108,37.631
38.55,255.598,37.551
38.58,253.879,37.425
38.62,252.264,37.345
38.65,250.79,37.288
38.68,249.457,36.933
38.71,247.562,36.509
38.75,245.737,36.188
38.78,244.122,35.913
38.81,242.368,35.627
38.85,240.367,35.363
38.88,238.402,35.203
38.91,236.577,34.939
38.94,235.033,34.699
38.98,233.524,34.344
39.01,231.944,34.023
39.04,230.295,33.748
39.07,228.751,33.519
39.11,227.066,33.313
39.14,225.171,33.003
39.17,223.557,32.797
39.2,222.469,32.534
39.24,221.1,31.95
39.27,218.678,31.48
39.3,216.292,31.216
39.33,214.502,30.884
39.37,212.747,30.46
39.4,210.712,30.197
39.43,208.571,29.945
39.46,206.255,29.452
39.5,203.728,28.925
39.53,201.447,28.524
39.56,199.095,28.204
39.59,196.709,27.894
39.63,194.568,27.688
39.66,192.743,27.459
39.69,190.918,27.127
39.72,188.602,26.703
39.76,186.11,26.268
39.79,183.829,25.844
39.82,181.477,25.443
39.85,179.126,25.065
39.89,176.775,24.813
39.92,174.704,24.423
39.95,172.493,23.85
39.98,169.264,23.289
40.02,166.071,22.797
40.05,163.193,22.212
40.08,160.315,21.617
40.11,157.367,21.227
40.15,154.524,20.929
40.18,151.857,20.586
40.21,149.225,20.082
40.25,146.382,19.578
40.28,143.715,19.177
40.31,141.188,18.673
40.34,138.872,18.34
40.38,136.38,17.79
40.41,133.432,17.264
40.44,130.273,16.759
40.47,127.115,16.301
40.51,124.132,15.786
40.54,120.868,15.236
40.57,117.639,14.652
40.6,114.516,13.999
40.64,111.462,13.449
40.67,108.409,12.968
40.7,105.005,12.395
40.73,101.039,11.742
40.77,96.863,11.135
40.8,92.862,10.562
40.83,89.142,9.989
40.86,85.527,9.359
40.9,81.772,8.89
40.93,78.227,8.557
40.96,74.963,8.099
40.99,71.594,7.561
41.03,68.155,7.137
41.06,64.926,6.644
41.09,61.522,6.129
41.12,57.767,5.739
41.16,54.362,5.43
41.19,51.344,5.086
41.22,48.361,4.754
41.25,45.343,4.296
41.29,42.079,3.757
41.32,38.675,3.253
41.35,34.92,2.761
41.38,31.059,2.348
41.42,27.094,2.005
41.45,23.409,1.673
41.48,19.618,1.409
41.52,15.968,1.237
41.55,12.073,0.974
41.58,8.002,0.515
41.61,3.088,0.355
41.65,0.211,0.172
41.68,-0.281,-0.733
41.71,-0.597,-1.913
41.74,-2.702,-2.864
41.78,-7.054,-3.654
41.81,-11.581,-4.605
41.84,-15.302,-5.499
41.87,-18.881,-6.117
41.91,-23.303,-6.495
41.94,-28.041,-6.828
41.97,-32.639,-7.148
42.0,-36.113,-7.194
42.04,-38.499,-7.332
42.07,-41.096,-7.767
42.1,-44.641,-8.088
42.13,-48.08,-8.34
42.17,-51.064,-8.832
42.2,-53.976,-9.428
42.23,-57.24,-9.955
42.26,-60.96,-10.425
42.3,-64.821,-10.929
42.33,-68.365,-11.375
42.36,-71.489,-11.856
42.39,-74.823,-12.406
42.43,-78.613,-12.887
42.46,-82.474,-13.311
42.49,-85.773,-13.827
42.52,-88.756,-14.4
42.56,-92.476,-14.789
42.59,-96.582,-14.972
42.62,-100.232,-15.224
42.65,-103.215,-15.511
42.69,-105.707,-15.889
42.72,-108.62,-16.313
42.75,-112.094,-16.725
42.78,-115.744,-17.16
42.82,-118.832,-17.573
42.85,-121.57,-17.997
42.88,-124.448,-18.398
42.92,-127.466,-18.81
42.95,-130.765,-19.314
42.98,-134.204,-19.795
43.01,-137.889,-20.483
43.05,-141.574,-21.021
43.08,-144.312,-21.216
43.11,-146.312,-21.399
43.14,-148.523,-21.674
43.18,-152.138,-22.396
43.21,-156.314,-22.762
43.24,-159.227,-22.911
43.27,-161.263,-23.312
43.31,-163.649,-23.908
43.34,-166.808,-24.171
43.37,-169.685,-24.343
43.4,-172.002,-24.652
43.44,-174.037,-24.985
43.47,-176.108,-25.328
43.5,-178.775,-25.844
43.53,-181.934,-26.428
43.57,-185.197,-26.852
43.6,-187.97,-27.127
43.63,-190.111,-27.447
43.66,-192.357,-27.665
43.7,-194.743,-27.722
43.73,-196.744,-27.871
43.76,-198.604,-28.261
43.79,-200.99,-28.673
43.83,-203.412,-28.925
43.86,-205.167,-29.2
43.89,-206.641,-29.441
43.92,-208.185,-29.578
43.96,-209.869,-29.704
43.99,-211.659,-29.933
44.02,-213.589,-30.254
44.05,-215.765,-30.563
44.09,-217.941,-30.77
44.12,-219.731,-31.01
44.15,-221.275,-31.262
44.18,-222.784,-31.48
44.22,-224.609,-31.697
44.25,-226.82,-32.018
44.28,-228.821,-32.339
44.32,-230.54,-32.671
44.35,-232.436,-33.061
44.38,-234.506,-33.267
44.41,-236.472,-33.416
44.45,-237.595,-33.416
44.48,-238.542,-33.817
44.51,-241.034,-34.344
44.54,-243.596,-34.458
44.58,-244.333,-34.962
44.61,-244.614,-35.547
44.64,-246.088,-35.959
44.67,-249.001,-36.394
44.71,-251.457,-36.658
44.74,-252.58,-36.887
44.77,-253.387,-37.265
44.8,-255.493,-37.563
44.84,-258.231,-37.677
44.87,-259.775,-37.666
44.9,-260.02,-37.838
44.93,-260.617,-38.032
44.97,-262.267,-37.941
45.0,-263.776,-37.895
45.03,-264.583,-38.227
45.06,-265.741,-38.628
45.1,-267.075,-38.72
45.13,-268.513,-38.651
45.16,-269.847,-38.754
45.19,-270.935,-39.052
45.23,-272.128,-39.35
45.26,-273.427,-39.43
45.29,-274.445,-39.51
45.32,-275.392,-39.762
45.36,-276.691,-40.003
45.39,-277.884,-40.163
45.42,-278.831,-40.278
45.45,-279.604,-40.324
45.49,-280.376,-40.301
45.52,-280.972,-40.22
45.55,-281.253,-40.152
45.59,-280.165,-40.736
45.62,-279.604,-41.71
45.65,-280.692,-42.042
45.68,-281.499,-41.939
45.72,-281.429,-42.248
45.75,-282.095,-42.821
45.78,-282.587,-42.534
45.81,-282.657,-42.546
45.85,-283.64,-42.901
45.88,-284.622,-42.981
45.91,-284.657,-43.05
45.94,-284.763,-43.291
45.98,-285.324,-43.107
46.01,-285.429,-42.672
46.04,-284.692,-42.26
46.07,-283.675,-41.985
46.11,-283.218,-41.893
46.14,-283.324,-41.836
46.17,-283.148,-41.79
46.2,-282.587,-41.71
46.24,-281.499,-41.469
46.27,-280.2,-41.068
46.3,-279.112,-40.736
46.33,-278.305,-40.495
46.37,-277.463,-40.461
46.4,-276.901,-40.45
46.43,-276.445,-40.518
46.46,-277.252,-41.32
46.5,-279.358,-41.767
46.53,-279.533,-41.538
46.56,-276.62,-41.744
46.59,-274.76,-42.122
46.63,-275.357,-41.721
46.66,-275.357,-41.171
46.69,-273.322,-40.999
46.72,-270.76,-40.633
46.76,-268.864,-39.797
46.79,-266.899,-39.155
46.82,-264.864,-38.674
46.85,-262.547,-38.055
46.89,-260.091,-37.551
46.92,-257.985,-37.265
46.95,-255.774,-36.933
46.99,-252.931,-36.589
47.02,-249.948,-36.165
47.05,-247.07,-35.707
47.08,-244.824,-35.375
47.12,-242.894,-35.18
47.15,-241.28,-35.111
47.18,-239.946,-35.123
47.21,-238.823,-35.008
47.25,-237.384,-34.928
47.28,-235.84,-34.825
47.31,-234.401,-34.596
47.34,-232.997,-34.367
47.38,-231.313,-33.897
47.41,-229.242,-33.576
47.44,-227.487,-33.29
47.47,-225.943,-32.877
47.51,-223.943,-32.362
47.54,-221.275,-32.018
47.57,-218.362,-31.869
47.6,-215.976,-31.743
47.64,-214.397,-31.514
47.67,-213.309,-31.216
47.7,-211.975,-30.85
47.73,-209.94,-30.609
47.77,-207.202,-30.288
47.8,-204.43,-29.796
47.83,-202.71,-29.383
47.86,-201.376,-29.028
47.9,-199.446,-28.719
47.93,-196.954,-28.456
47.96,-194.849,-28.284
47.99,-193.269,-27.963
48.03,-191.129,-27.379
48.06,-188.251,-26.783
48.09,-185.303,-26.405
48.12,-183.022,-25.947
48.16,-180.846,-25.397
48.19,-178.459,-25.053
48.22,-176.389,-24.927
48.26,-174.458,-24.377
48.29,-171.581,-23.633
48.32,-167.931,-23.071
48.35,-164.912,-22.682
48.39,-162.386,-22.155
48.42,-159.543,-21.468
48.45,-156.384,-21.078
48.48,-153.928,-21.032
48.52,-151.822,-20.54
48.55,-148.558,-19.841
48.58,-144.838,-19.394
48.61,-142.136,-19.119
48.65,-140.486,-18.673
48.68,-138.38,-18.134
48.71,-135.292,-17.699
48.74,-132.204,-17.309
48.78,-129.291,-16.668
48.81,-125.641,-15.969
48.84,-121.991,-15.488
48.87,-118.903,-15.098
48.91,-114.621,-13.609
48.94,-106.549,-11.226
48.97,-96.512,-9.714
49.0,-89.844,-9.52
49.04,-88.405,-10.058
49.07,-88.651,-9.966
49.1,-86.755,-9.829
49.13,-83.176,-9.921
49.17,-80.508,-10.081
49.2,-78.929,-9.886
49.23,-77.385,-9.451
49.26,-75.209,-9.061
49.3,-72.472,-8.672
49.33,-69.875,-8.397
49.36,-67.593,-8.042
49.39,-64.856,-7.503
49.43,-61.697,-7.022
49.46,-58.784,-6.621
49.49,-56.258,-6.14
49.52,-53.134,-5.499
49.56,-49.239,-4.949
49.59,-45.659,-4.548
49.62,-42.535,-3.906
49.66,-38.921,-3.219
49.69,-34.885,-2.83
49.72,-31.059,-2.451
49.75,-27.199,-2.085
49.79,-23.373,-1.844
49.82,-19.688,-1.627
49.85,-16.074,-1.443
49.88,-12.389,-1.18
49.92,-8.282,-0.894
49.95,-4.106,-0.825
49.98,-0.667,-0.825
50.01,0.316,-0.206
50.05,0.526,0.836
50.08,0.702,2.039
50.11,3.439,3.253
50.14,8.528,4.124
50.18,13.406,5.086
50.21,17.618,5.945
50.24,21.338,6.266
50.27,25.128,6.667
50.31,29.831,7.251
50.34,34.674,7.561
50.37,38.289,7.721
50.4,41.026,8.179
50.44,44.395,8.683
50.47,48.116,8.924
50.5,51.45,9.29
50.53,54.749,9.794
50.57,58.047,10.173
50.6,61.592,10.516
50.63,65.453,10.825
50.66,69.173,11.043
50.7,72.577,11.352
50.73,75.56,11.662
50.76,78.192,11.971
50.79,81.245,12.464
50.83,85.071,13.048
50.86,89.037,13.449
50.89,92.125,13.815
50.93,94.862,14.205
50.96,97.635,14.652
50.99,100.899,15.075
51.02,104.338,15.431
51.06,107.567,15.935
51.09,110.936,16.565
51.12,114.586,17.046
51.15,117.815,17.378
51.19,120.728,17.71
51.22,123.711,18.088
51.25,126.799,18.489
51.28,130.028,18.856
51.32,133.151,19.245
51.35,136.029,19.841
51.38,139.258,20.437
51.41,142.873,20.849
51.45,146.136,21.101
51.48,148.909,21.536
51.51,151.576,21.983
51.54,154.138,22.327
51.58,156.7,22.751
51.61,159.683,23.243
51.64,162.877,23.598
51.67,165.825,23.828
51.71,168.317,24.08
51.74,171.019,24.332
51.77,173.581,24.526
51.8,175.932,24.847
51.84,178.424,25.385
51.87,181.302,25.901
51.9,184.039,26.371
51.93,186.707,26.817
51.97,189.304,27.127
52.0,191.795,27.344
52.03,194.041,27.528
52.06,195.937,27.791
52.1,198.042,28.123
52.13,200.218,28.421
52.16,202.394,28.673
52.19,204.816,28.914
52.23,206.676,29.051
52.26,207.693,29.212
52.29,208.992,29.521
52.33,211.273,29.807
52.36,213.905,30.14
52.39,216.327,30.437
52.42,218.152,30.701
52.46,219.872,31.102
52.49,222.047,31.423
52.52,224.083,31.411
52.55,225.732,31.663
52.59,227.101,32.167
52.62,228.259,32.717
52.65,229.593,33.233
52.68,231.523,33.748
52.72,234.05,34.195
52.75,236.261,34.39
52.78,237.384,34.493
52.81,238.297,34.882
52.85,240.332,35.295
52.88,243.069,35.627
52.91,245.316,35.982
52.94,246.895,36.44
52.98,248.895,36.864
53.01,251.492,36.875
53.04,253.072,36.681
53.07,254.019,36.738
53.11,255.388,37.093
53.14,257.318,37.276
53.17,258.652,37.322
53.2,259.564,37.643
53.24,261.003,37.746
53.27,262.056,37.528
53.3,262.267,37.654
53.33,263.179,38.067
53.37,264.793,38.33
53.4,266.232,38.548
53.43,267.25,38.708
53.46,268.163,38.937
53.5,269.531,39.155
53.53,271.075,39.281
53.56,272.163,39.487
53.6,272.128,40.301
53.63,272.655,41.148
53.66,274.023,41.446
53.69,275.357,41.607
53.73,276.726,41.824
53.76,277.989,42.053
53.79,278.691,42.34
53.82,279.358,42.626
53.86,280.446,42.466
53.89,281.183,42.122
53.92,281.92,42.076
53.95,283.078,42.328
53.99,283.815,42.122
54.02,283.499,42.202
54.05,283.815,42.374
54.08,284.763,42.156
54.12,284.833,41.87
54.15,283.99,41.87
54.18,284.166,42.053
54.21,285.114,42.076
54.25,285.184,41.973
54.28,284.657,42.076
54.31,284.306,42.042
54.34,284.341,41.744
54.38,284.271,41.309
54.41,283.675,41.08
54.44,282.832,41.229
54.47,282.516,41.503
54.51,282.552,41.584
54.54,282.832,41.503
54.57,281.955,41.343
54.6,279.147,41.503
54.64,277.077,41.607
54.67,276.691,41.389
54.7,276.831,41.309
54.73,276.445,41.503
54.77,275.392,41.4
54.8,273.883,41.08
54.83,272.339,40.747
54.86,271.216,40.243
54.9,269.637,39.705
54.93,267.145,39.51
54.96,265.25,39.59
55.0,264.758,39.545
55.03,264.513,39.338
55.06,263.46,39.247
55.09,261.951,39.098
55.13,260.301,38.708
55.16,258.617,38.342
55.19,257.494,38.09
55.22,256.581,37.826
55.26,254.861,37.517
55.29,252.896,37.311
55.32,251.422,37.105
55.35,250.334,36.726
55.39,248.334,36.44
55.42,246.158,36.383
55.45,244.93,36.154
55.48,243.701,35.867
55.52,241.876,35.581
55.55,240.192,35.386
55.58,238.963,35.02
55.61,237.349,34.447
55.65,234.927,34.023
55.68,232.401,33.863
55.71,230.681,33.805
55.74,229.417,33.611
55.78,228.014,33.29
55.81,226.013,33.152
55.84,224.294,32.969
55.87,222.539,32.488
55.91,220.152,32.041
55.94,217.836,31.755
55.97,215.906,31.4
56.0,213.905,31.056
56.04,212.151,30.735
56.07,210.396,30.437
56.1,208.501,30.151
56.13,206.219,29.693
56.17,203.622,29.223
56.2,201.236,28.879
56.23,199.341,28.536
56.27,197.375,28.215
56.3,195.41,27.974
56.33,193.48,27.7
56.36,191.76,27.287
56.4,189.514,26.783
56.43,186.812,26.29
56.46,184.145,25.867
56.49,181.898,25.363
56.53,179.617,24.916
56.56,177.547,24.607
56.59,175.652,24.137
56.62,173.09,23.53
56.66,169.896,22.911
56.69,166.737,22.384
56.72,163.965,21.892
56.75,161.157,21.273
56.79,158.35,20.826
56.82,155.086,20.253
56.85,151.822,19.944
56.88,149.541,19.807
56.92,147.189,19.188
56.95,144.206,18.982
56.98,141.153,18.421
57.01,137.959,17.997
57.05,135.327,17.756
57.08,133.081,17.321
57.11,130.589,16.828
57.14,127.536,16.313
57.18,124.377,15.832
57.21,121.324,15.213
57.24,117.955,14.594
57.27,114.445,14.022
57.31,110.971,13.54
57.34,107.848,13.071
57.37,104.724,12.521
57.4,101.109,11.902
57.44,97.144,11.295
57.47,93.213,10.665
57.5,89.423,10.069
57.53,85.387,9.497
57.57,81.351,9.119
57.6,78.052,8.775
57.63,75.104,8.271
57.67,71.84,7.79
57.7,68.295,7.354
57.73,64.856,6.828
57.76,61.311,6.346
57.8,57.872,5.934
57.83,54.819,5.556
57.86,51.871,5.144
57.89,48.817,4.777
57.93,45.624,4.319
57.96,42.22,3.803
57.99,38.71,3.356
58.02,35.06,2.841
58.06,31.165,2.383
58.09,27.129,1.993
58.12,23.058,1.661
58.15,18.987,1.352
58.19,15.091,1.065
58.22,10.985,0.802
58.25,6.808,0.676
58.28,2.527,0.756
58.32,0.246,0.573
58.35,-0.246,-0.241
58.38,-0.386,-1.26
58.41,-1.299,-2.532
58.45,-5.51,-3.586
58.48,-10.564,-4.353
58.51,-14.775,-5.327
58.54,-18.214,-6.026
58.58,-22.215,-6.472
58.61,-26.883,-6.873
58.64,-31.656,-7.297
58.67,-35.692,-7.332
58.71,-38.57,-7.458
58.74,-41.728,-7.813
58.77,-45.308,-8.076
58.8,-48.607,-8.248
58.84,-51.414,-8.718
58.87,-54.398,-9.279
58.9,-57.907,-9.703
58.94,-61.452,-10.173
58.97,-64.821,-10.711
59.0,-68.155,-11.123
59.03,-71.419,-11.524
59.07,-74.718,-11.994
59.1,-77.982,-12.521
59.13,-81.526,-13.048
59.16,-85.352,-13.575
59.2,-89.142,-14.067
59.23,-92.827,-14.445
59.26,-96.231,-14.72
59.29,-99.144,-15.11
59.33,-102.092,-15.58
59.36,-105.251,-15.992
59.39,-108.269,-16.542
59.42,-111.427,-17.126
59.46,-115.077,-17.607
59.49,-118.517,-18.008
59.52,-121.359,-18.478
59.55,-124.237,-18.925
59.59,-127.922,-19.165
59.62,-131.853,-19.44
59.65,-135.643,-19.749
59.68,-138.766,-20.276
59.72,-141.75,-20.654
59.75,-144.627,-20.964
59.78,-147.365,-21.25
59.81,-150.172,-21.536
59.85,-153.085,-21.8
59.88,-155.437,-21.995
59.91,-157.437,-22.441
59.94,-159.999,-22.968
59.98,-163.052,-23.381
60.01,-166.0,-23.77
60.04,-168.597,-24.16
60.07,-171.124,-24.458
60.11,-173.511,-24.755
60.14,-176.318,-25.099
60.17,-179.512,-25.534
60.2,-182.671,-26.05
60.24,-185.373,-26.52
60.27,-187.724,-26.932
60.3,-190.181,-27.23
60.34,-192.953,-27.367
60.37,-195.235,-27.47
60.4,-196.779,-27.7
60.43,-198.358,-28.078
60.47,-200.955,-28.421
60.5,-203.798,-28.57
60.53,-205.763,-28.696
60.56,-206.29,-28.983
60.6,-206.606,-29.418
60.63,-208.08,-29.773
60.66,-210.22,-30.128
60.69,-212.537,-30.609
60.73,-214.748,-31.148
60.76,-217.029,-31.64
60.79,-219.275,-32.041
60.82,-221.205,-32.408
60.86,-223.17,-32.66
60.89,-225.276,-32.809
60.92,-227.452,-33.049
60.95,-229.382,-33.29
60.99,-231.348,-33.404
61.02,-232.997,-33.599
61.05,-234.822,-33.84
61.08,-236.507,-33.794
61.12,-237.63,-33.966
61.15,-238.823,-34.195
61.18,-240.367,-34.538
61.21,-242.613,-35.008
61.25,-244.965,-35.443
61.28,-246.474,-35.73
61.31,-247.702,-36.096
61.34,-249.773,-36.429
61.38,-251.949,-36.44
61.41,-253.212,-36.463
61.44,-254.124,-36.715
61.47,-255.634,-36.887
61.51,-257.108,-37.036
61.54,-258.301,-37.391
61.57,-258.792,-37.826
61.61,-258.371,-38.41
61.64,-259.319,-38.903
61.67,-261.951,-39.075
61.7,-264.056,-39.327
61.74,-265.074,-39.842
61.77,-266.057,-40.278
61.8,-267.32,-40.404
61.83,-268.619,-40.518
61.87,-269.952,-40.736
61.9,-271.286,-40.919
61.93,-272.549,-41.148
61.96,-273.988,-41.24
62.0,-275.252,-41.332
62.03,-276.656,-41.595
62.06,-278.375,-41.618
62.09,-279.533,-41.561
62.13,-280.27,-41.629
62.16,-281.042,-41.595
62.19,-281.464,-41.435
62.22,-281.604,-41.297
62.26,-281.955,-41.32
62.29,-282.797,-41.332
62.32,-283.218,-41.32
62.35,-283.324,-41.458
62.39,-283.569,-41.572
62.42,-284.447,-41.755
62.45,-284.798,-41.412
62.48,-284.166,-41.435
62.52,-284.482,-41.87
62.55,-285.886,-41.847
62.58,-285.429,-41.744
62.61,-282.832,-42.374
62.65,-281.393,-42.878
62.68,-282.236,-42.729
62.71,-282.727,-42.431
62.74,-281.815,-42.638
62.78,-280.867,-43.016
62.81,-281.253,-43.13
62.84,-282.376,-43.073
62.87,-282.481,-43.05
62.91,-281.288,-42.901
62.94,-279.99,-42.5
62.97,-279.182,-42.065
63.01,-278.902,-41.904
63.04,-279.288,-42.202
63.07,-279.744,-42.546
63.1,-279.323,-42.66
63.14,-278.094,-42.523
63.17,-276.796,-41.962
63.2,-275.357,-41.114
63.23,-273.357,-40.427
63.27,-271.181,-39.865
63.3,-269.11,-39.315
63.33,-267.355,-38.8
63.36,-265.601,-38.41
63.4,-263.776,-38.101
63.43,-261.565,-37.769
63.46,-259.073,-37.471
63.49,-257.283,-37.231
63.53,-255.984,-37.001
63.56,-254.054,-36.864
63.59,-251.668,-36.841
63.62,-249.457,-36.841
63.66,-248.299,-36.669
63.69,-247.07,-36.28
63.72,-244.965,-35.982
63.75,-242.613,-35.821
63.79,-240.894,-35.638
63.82,-239.665,-35.386
63.85,-238.683,-35.295
63.88,-237.63,-35.065
63.92,-236.015,-34.882
63.95,-234.19,-34.848
63.98,-232.787,-34.584
64.01,-231.418,-34.195
64.05,-229.593,-34.069
64.08,-228.119,-33.84
64.11,-226.434,-33.324
64.14,-224.399,-33.038
64.18,-222.82,-32.797
64.21,-220.959,-32.259
64.24,-218.292,-31.812
64.28,-215.836,-31.64
64.31,-214.502,-31.274
64.34,-213.274,-30.689
64.37,-211.063,-30.266
64.41,-208.29,-30.14
64.44,-206.36,-29.991
64.47,-204.816,-29.635
64.5,-203.096,-29.303
64.54,-201.06,-29.063
64.57,-198.779,-28.788
64.6,-196.603,-28.456
64.63,-194.778,-28.112
64.67,-193.059,-27.814
64.7,-191.269,-27.482
64.73,-188.988,-26.955
64.76,-186.25,-26.508
64.8,-183.443,-25.89
64.83,-181.091,-25.626
64.86,-179.301,-25.237
64.89,-177.055,-24.675
64.93,-173.756,-24.045
64.96,-170.668,-23.828
64.99,-168.633,-23.415
65.02,-166.772,-22.923
65.06,-163.649,-22.201
65.09,-159.613,-21.708
65.12,-156.735,-21.388
65.15,-155.191,-21.204
65.19,-153.787,-20.746
65.22,-150.699,-19.91
65.25,-146.523,-19.486
65.28,-142.943,-19.028
65.32,-140.521,-18.81
65.35,-138.626,-18.466
65.38,-135.889,-17.859
65.41,-132.344,-17.47
65.45,-129.256,-17.149
65.48,-126.869,-16.656
65.51,-124.413,-15.866
65.54,-120.973,-15.11
65.58,-116.832,-14.457
65.61,-112.831,-13.861
65.64,-109.392,-13.392
65.68,-106.198,-13.036
65.71,-103.145,-12.509
65.74,-99.706,-11.822
65.77,-95.88,-11.238
65.81,-92.055,-10.699
65.84,-88.194,-10.161
65.87,-84.895,-9.657
65.9,-82.193,-9.313
65.94,-79.561,-8.981
65.97,-76.367,-8.603
66.0,-72.893,-8.305
66.03,-69.839,-7.904
66.07,-67.137,-7.354
66.1,-63.873,-6.736
66.13,-59.872,-6.278
66.16,-56.293,-5.854
66.2,-53.204,-5.201
66.23,-49.87,-4.605
66.26,-46.361,-4.055
66.29,-42.5,-3.46
66.33,-38.359,-2.921
66.36,-34.218,-2.52
66.39,-30.217,-2.131
66.42,-26.392,-1.81
66.46,-22.777,-1.524
66.49,-18.987,-1.306
66.52,-15.126,-1.1
66.55,-11.16,-0.882
66.59,-7.51,-0.619
66.62,-2.948,-0.47
66.65,-0.14,-0.344
66.68,0.386,0.355
66.72,0.632,1.627
66.75,2.562,3.059
66.78,7.616,3.975
66.81,12.494,4.754
66.85,16.495,5.705
66.88,20.461,6.427
66.91,24.847,6.644
66.94,29.269,6.908
66.98,33.691,7.228
67.01,37.411,7.32
67.04,39.973,7.4
67.08,42.255,7.698
67.11,45.168,8.053
67.14,48.326,8.443
67.17,51.555,8.981
67.21,54.889,9.508
67.24,58.363,9.943
67.27,61.838,10.425
67.3,65.523,10.871
67.34,68.822,11.181
67.37,71.945,11.627
67.4,74.928,12.074
67.43,77.771,12.555
67.47,80.93,13.185
67.5,84.72,13.792
67.53,88.545,14.297
67.56,92.265,14.789
67.6,95.845,15.098
67.63,99.144,15.396
67.66,102.373,15.751
67.69,105.602,16.129
67.73,109.006,16.519
67.76,112.621,16.954
67.79,116.306,17.298
67.82,119.464,17.687
67.86,122.061,18.008
67.89,124.272,18.34
67.92,126.939,18.913
67.95,130.238,19.383
67.99,133.818,19.944
68.02,136.766,20.311
68.05,139.433,20.952
68.08,142.943,21.41
68.12,146.452,21.628
68.15,149.225,21.857
68.18,151.506,22.235
68.21,154.208,22.716
68.25,157.718,23.037
68.28,160.947,23.369
68.31,163.403,23.839
68.35,165.649,24.206
68.38,168.211,24.469
68.41,171.089,24.813
68.44,173.721,25.168
68.48,176.108,25.512
68.51,178.635,26.016
68.54,181.407,26.554
68.57,184.566,26.989
68.61,187.373,27.299
68.64,189.549,27.619
68.67,191.585,27.86
68.7,193.655,28.078
68.74,196.077,28.318
68.77,198.779,28.559
68.8,200.99,28.765
68.83,202.605,29.051
68.87,204.289,29.372
68.9,206.044,29.59
68.93,207.518,29.739
68.96,209.027,30.002
69.0,210.817,30.334
69.03,213.133,30.724
69.06,215.485,31.102
69.09,217.976,31.308
69.13,219.731,31.468
69.16,221.135,31.743
69.19,222.82,31.835
69.22,224.68,32.076
69.26,226.61,32.465
69.29,228.821,32.809
69.32,230.962,32.981
69.35,232.822,33.267
69.39,234.892,33.622
69.42,236.647,33.828
69.45,237.384,33.851
69.48,238.472,34.39
69.52,241.139,34.813
69.55,243.561,34.836
69.58,243.842,35.272
69.61,244.122,36.165
69.65,246.544,36.749
69.68,249.492,36.921
69.71,251.141,37.265
69.75,252.405,37.643
69.78,253.879,37.929
69.81,255.634,38.25
69.84,257.774,38.525
69.88,259.985,38.662
69.91,261.494,38.823
69.94,262.547,38.869
69.97,263.284,38.777
70.01,263.881,38.582
70.04,264.899,38.834
70.07,266.724,39.098
70.1,267.706,39.063
70.14,268.127,39.407
70.17,269.707,39.934
70.2,271.848,39.877
70.23,272.444,39.991
70.27,272.725,40.53
70.3,274.445,40.667
70.33,276.199,40.335
70.36,276.761,40.702
70.4,277.708,41.229
70.43,279.147,41.217
70.46,280.305,41.171
70.49,281.078,41.08
70.53,281.323,40.667
70.56,279.849,40.965
70.59,278.375,41.859
70.62,279.218,42.397
70.66,280.937,42.534
70.69,281.393,42.683
70.72,280.972,43.13
70.75,281.113,43.153
70.79,281.744,43.336
70.82,282.727,43.371
70.85,282.973,43.428
70.88,283.604,43.852
70.92,284.903,43.806
70.95,285.219,43.623
70.98,284.973,43.783
71.02,285.008,43.611
71.05,284.727,43.142
71.08,284.026,42.764
71.11,283.534,42.672
71.15,283.745,42.729
71.18,283.71,42.626
71.21,282.797,42.512
71.24,281.744,42.282
71.28,281.078,41.836
71.31,280.165,41.423
71.34,278.902,41.091
71.37,277.463,40.976
71.41,277.007,40.896
71.44,276.55,40.598
71.47,275.006,40.301
71.5,272.725,40.003
71.54,270.584,39.613
71.57,268.689,39.247
71.6,267.075,38.972
71.63,265.671,38.903
71.67,264.513,38.983
71.7,263.249,39.029
71.73,261.916,38.949
71.76,260.617,38.869
71.8,259.424,38.594
71.83,258.055,38.273
71.86,256.371,38.124
71.89,255.142,37.998
71.93,254.089,37.723
71.96,252.756,37.494
71.99,251.317,37.311
72.02,249.422,37.07
72.06,247.351,36.772
72.09,245.596,36.44
72.12,244.157,36.165
72.15,242.613,35.844
72.19,240.718,35.443
72.22,238.718,35.214
72.25,237.103,35.008
72.28,235.594,34.733
72.32,233.594,34.321
72.35,231.664,34.126
72.38,230.576,33.92
72.42,229.242,33.519
72.45,227.242,33.221
72.48,225.066,33.026
72.51,223.521,32.694
72.55,221.802,32.19
72.58,219.275,31.675
72.61,216.573,31.388
72.64,214.572,31.171
72.68,213.098,30.85
72.71,211.308,30.586
72.74,209.167,30.472
72.77,207.062,30.369
72.81,205.412,30.025
72.84,203.342,29.498
72.87,201.236,29.338
72.9,198.955,28.799
72.94,196.814,28.501
72.97,195.621,28.501
73.0,194.427,28.226
73.03,191.83,27.505
73.07,188.531,27.081
73.1,186.356,26.749
73.13,184.846,26.313
73.16,182.249,25.443
73.2,178.986,25.133
73.23,177.09,25.122
73.26,175.967,24.652
73.29,173.16,23.736
73.33,168.983,23.243
73.36,165.79,22.991
73.39,163.684,22.522
73.42,160.666,21.582
73.46,156.981,21.273
73.49,154.489,21.227
73.52,152.734,20.826
73.55,149.681,20.082
73.59,145.926,19.795
73.62,143.329,19.474
73.65,141.609,18.947
73.69,139.539,18.34
73.72,136.591,17.722
73.75,132.976,17.229
73.78,129.642,16.84
73.82,126.869,16.359
73.85,124.272,15.82
73.88,121.219,15.293
73.91,117.674,14.72
73.95,113.954,14.113
73.98,110.374,13.678
74.01,107.391,13.311
74.04,104.373,12.807
74.08,100.934,12.269
74.11,97.319,11.673
74.14,93.599,11.009
74.17,89.633,10.379
74.21,85.703,9.76
74.24,81.912,9.233
74.27,78.333,8.878
74.3,74.928,8.443
74.34,71.313,7.95
74.37,67.909,7.526
74.4,64.716,7.057
74.43,61.417,6.575
74.47,58.118,6.106
74.5,54.994,5.613
74.53,51.66,5.235
74.56,48.221,4.914
74.6,44.957,4.445
74.63,41.763,4.067
74.66,38.885,3.792
74.69,35.692,3.437
74.73,32.182,2.921
74.76,28.673,2.429
74.79,24.883,1.947
74.82,20.566,1.569
74.86,16.319,1.111
74.89,11.652,0.733
74.92,7.124,0.55
74.95,2.176,0.458
74.99,-0.035,0.011
75.02,-0.351,-0.997
75.05,-0.562,-2.062
75.09,-2.808,-3.036
75.12,-7.3,-3.861
75.15,-11.897,-4.788
75.18,-15.723,-5.602
75.22,-19.373,-6.117
75.25,-23.619,-6.438
75.28,-27.866,-6.805
75.31,-31.726,-7.194
75.35,-35.236,-7.48
75.38,-38.605,-7.79
75.41,-42.22,-8.214
75.44,-45.624,-8.5
75.48,-48.642,-8.912
75.51,-51.906,-9.416
75.54,-55.661,-9.932
75.57,-59.767,-10.264
75.61,-63.593,-10.573
75.64,-66.856,-10.803
75.67,-69.734,-11.123
75.7,-72.401,-11.421
75.74,-75.314,-11.822
75.77,-78.368,-12.063
75.8,-81.0,-12.441
75.83,-84.123,-13.071
75.87,-87.878,-13.678
75.9,-91.704,-14.216
75.93,-95.178,-14.709
75.96,-98.442,-15.156
76.0,-101.636,-15.385
76.03,-104.443,-15.648
76.06,-107.251,-16.003
76.09,-110.41,-16.553
76.13,-113.954,-17.046
76.16,-117.499,-17.516
76.19,-120.938,-18.065
76.22,-124.307,-18.547
76.26,-127.501,-18.913
76.29,-130.8,-19.417
76.32,-134.204,-19.944
76.36,-137.889,-20.609
76.39,-141.399,-20.952
76.42,-144.276,-21.227
76.45,-146.698,-21.433
76.49,-149.155,-21.823
76.52,-152.068,-22.315
76.55,-154.945,-22.613
76.58,-157.402,-23.014
76.62,-160.104,-23.53
76.65,-163.298,-23.885
76.68,-166.386,-24.137
76.71,-169.054,-24.446
76.75,-171.159,-24.733
76.78,-173.125,-25.111
76.81,-175.757,-25.5
76.84,-178.915,-26.038
76.88,-182.179,-26.657
76.91,-185.373,-27.104
76.94,-188.216,-27.344
76.97,-190.286,-27.585
77.01,-192.146,-27.826
77.04,-194.427,-27.894
77.07,-196.533,-28.009
77.1,-198.639,-28.261
77.14,-200.604,-28.593
77.17,-202.254,-28.914
77.2,-203.868,-29.246
77.23,-205.728,-29.509
77.27,-207.658,-29.773
77.3,-209.448,-30.082
77.33,-211.273,-30.38
77.36,-213.414,-30.644
77.4,-216.011,-30.964
77.43,-218.257,-31.262
77.46,-219.801,-31.56
77.49,-221.381,-31.778
77.53,-223.311,-31.858
77.56,-225.066,-32.007
77.59,-226.434,-32.396
77.62,-227.768,-32.866
77.66,-229.558,-33.267
77.69,-231.874,-33.748
77.72,-234.155,-34.069
77.76,-235.208,-34.229
77.79,-236.366,-34.642
77.82,-238.437,-34.802
77.85,-240.402,-35.043
77.89,-242.297,-35.615
77.92,-244.403,-36.039
77.95,-246.263,-36.314
77.98,-248.088,-36.715
78.02,-250.334,-36.979
78.05,-252.264,-36.921
78.08,-253.493,-36.967
78.11,-254.581,-37.105
78.15,-256.16,-37.208
78.18,-257.985,-37.391
78.21,-259.354,-37.402
78.24,-259.74,-37.483
78.28,-260.442,-37.723
78.31,-262.056,-37.757
78.34,-263.46,-37.757
78.37,-264.407,-38.067
78.41,-265.565,-38.525
78.44,-266.934,-38.708
78.47,-267.882,-38.846
78.5,-268.97,-39.235
78.54,-270.619,-39.35
78.57,-271.637,-39.441
78.6,-271.672,-40.186
78.63,-272.163,-40.885
78.67,-273.357,-41.148
78.7,-274.585,-41.435
78.73,-275.813,-41.79
78.76,-277.182,-42.03
78.8,-278.094,-42.191
78.83,-278.831,-42.386
78.86,-279.814,-42.328
78.89,-280.481,-42.111
78.93,-281.007,-42.202
78.96,-282.025,-42.351
78.99,-282.762,-42.294
79.03,-283.218,-42.363
79.06,-283.394,-42.615
79.09,-284.061,-43.05
79.12,-284.692,-42.638
79.16,-284.306,-42.466
79.19,-284.587,-42.809
79.22,-285.886,-42.718
79.25,-286.166,-42.34
79.29,-285.394,-42.477
79.32,-285.605,-42.408
79.35,-285.71,-41.962
79.38,-284.482,-41.607
79.42,-283.218,-41.492
79.45,-283.113,-41.412
79.48,-283.464,-41.366
79.51,-283.148,-41.423
79.55,-281.955,-41.481
79.58,-280.095,-41.435
79.61,-278.235,-41.423
79.64,-277.252,-41.366
79.68,-276.901,-41.297
79.71,-276.726,-41.538
79.74,-276.62,-41.904
79.77,-276.094,-42.03
79.81,-275.146,-41.881
79.84,-274.094,-41.492
79.87,-272.585,-40.908
79.9,-270.514,-40.381
79.94,-268.619,-39.888
79.97,-266.934,-39.499
80.0,-265.636,-39.247
80.03,-264.302,-38.995
80.07,-262.477,-38.823
80.1,-260.301,-38.731
80.13,-258.476,-38.594
80.16,-257.458,-38.353
80.2,-256.581,-38.124
80.23,-255.002,-37.941
80.26,-253.107,-37.746
80.29,-251.457,-37.517
80.33,-250.369,-37.253
80.36,-249.176,-36.864
80.39,-247.211,-36.211
80.43,-245.035,-35.948
80.46,-244.052,-36.039
80.49,-243.105,-35.615
80.52,-241.034,-35.226
80.56,-238.963,-35.123
80.59,-237.384,-35.031
80.62,-235.805,-34.745
80.65,-233.559,-34.424
80.69,-231.277,-34.229
80.72,-229.768,-33.966
80.75,-228.365,-33.553
80.78,-226.54,-33.141
80.82,-224.539,-32.912
80.85,-222.89,-32.66
80.88,-220.995,-32.282
80.91,-219.135,-31.915
80.95,-217.415,-31.606
80.98,-215.695,-31.297
81.01,-213.765,-30.93
81.04,-211.87,-30.54
81.08,-209.975,-30.231
81.11,-208.325,-29.876
81.14,-206.044,-29.372
81.17,-203.377,-29.017
81.21,-200.99,-28.387
81.24,-199.095,-28.192
81.27,-197.832,-28.02
81.3,-195.866,-27.585
81.34,-192.603,-27.092
81.37,-189.97,-27.058
81.4,-188.461,-26.726
81.43,-186.812,-26.245
81.47,-184.039,-25.603
81.5,-180.635,-25.179
81.53,-178.249,-25.065
81.56,-176.74,-24.664
81.6,-174.95,-24.137
81.63,-172.142,-23.667
81.66,-168.913,-23.209
81.7,-165.965,-22.659
81.73,-163.123,-22.155
81.76,-160.245,-21.525
81.79,-156.981,-20.975
81.83,-154.208,-20.792
81.86,-151.962,-20.334
81.89,-149.014,-19.646
81.92,-145.715,-19.211
81.96,-142.943,-18.993
81.99,-140.802,-18.592
82.02,-138.416,-18.123
82.05,-135.503,-17.653
82.09,-132.379,-17.298
82.12,-129.536,-16.931
82.15,-126.974,-16.485
82.18,-124.062,-15.946
82.22,-120.552,-15.442
82.25,-117.218,-14.858
82.28,-114.13,-14.297
82.31,-111.182,-13.85
82.35,-108.269,-13.403
82.38,-105.04,-12.83
82.41,-101.285,-12.235
82.44,-97.565,-11.593
82.48,-93.95,-10.917
82.51,-90.195,-10.253
82.54,-86.44,-9.668
82.57,-83.105,-9.119
82.61,-79.947,-8.557
82.64,-76.472,-8.053
82.67,-72.858,-7.629
82.7,-69.383,-7.114
82.74,-65.839,-6.53
82.77,-62.294,-5.991
82.8,-58.644,-5.522
82.83,-54.889,-5.086
82.87,-51.239,-4.651
82.9,-47.519,-4.216
82.93,-43.904,-3.861
82.96,-40.465,-3.471
83.0,-37.061,-3.036
83.03,-33.516,-2.681
83.06,-29.761,-2.303
83.1,-26.041,-2.016
83.13,-22.531,-1.741
83.16,-18.811,-1.455
83.19,-15.091,-1.168
83.23,-11.125,-0.894
83.26,-6.949,-0.687
83.29,-2.597,-0.653
83.32,0.0,-0.332
83.36,0.491,0.733
83.39,0.702,1.959
83.42,2.843,2.978
83.45,7.405,3.815
83.49,11.932,4.697
83.52,15.793,5.556
83.55,19.653,6.163
83.58,24.075,6.484
83.62,28.568,6.839
83.65,32.884,7.206
83.68,36.71,7.366
83.71,39.728,7.526
83.75,42.535,7.801
83.78,45.624,8.088
83.81,49.098,8.305
83.84,52.432,8.672
83.88,55.486,9.107
83.91,58.539,9.52
83.94,61.697,9.932
83.97,64.751,10.447
84.01,67.874,10.906
84.04,70.927,11.467
84.07,74.156,11.937
84.1,77.631,12.418
84.14,80.965,12.75
84.17,84.018,13.162
84.2,87.212,13.85
84.23,91.177,14.457
84.27,95.213,14.904
84.3,98.688,15.328
84.33,102.022,15.82
84.37,105.391,16.187
84.4,108.514,16.439
84.43,111.287,16.908
84.46,114.586,17.561
84.5,118.306,18.008
84.53,121.78,18.581
84.56,125.325,18.947
84.59,128.694,19.188
84.63,131.712,19.543
84.66,134.66,19.91
84.69,137.749,20.357
84.72,141.013,20.826
84.76,144.522,21.067
84.79,147.4,21.181
84.82,149.857,21.41
84.85,152.454,21.766
84.89,155.261,22.121
84.92,158.069,22.476
84.95,160.561,22.945
84.98,163.052,23.427
85.02,165.755,23.736
85.05,168.422,24.034
85.08,171.019,24.377
85.11,173.335,24.71
85.15,175.581,25.111
85.18,178.389,25.603
85.21,181.618,26.073
85.24,184.671,26.451
85.28,187.268,26.84
85.31,189.69,27.15
85.34,191.866,27.299
85.37,194.077,27.482
85.41,196.393,27.7
85.44,198.814,27.917
85.47,200.955,28.112
85.5,202.85,28.364
85.54,204.675,28.605
85.57,206.395,28.811
85.6,207.553,28.994
85.63,208.992,29.269
85.67,210.852,29.578
85.7,213.028,30.002
85.73,215.099,30.495
85.77,216.187,31.079
85.8,217.415,31.801
85.83,219.521,32.27
85.86,221.872,32.396
85.9,223.802,32.843
85.93,225.803,33.45
85.96,228.119,33.794
85.99,230.4,34.012
86.03,232.892,34.286
86.06,235.138,34.527
86.09,236.928,34.607
86.12,237.84,34.481
86.16,239.104,34.939
86.19,241.525,35.295
86.22,243.771,35.272
86.25,244.965,35.501
86.29,246.544,36.028
86.32,249.141,36.245
86.35,250.615,36.371
86.38,251.176,36.681
86.42,252.51,36.979
86.45,254.826,37.047
86.48,256.686,37.231
86.51,257.88,37.574
86.55,258.968,37.838
86.58,259.599,38.17
86.61,260.231,38.548
86.64,261.249,38.743
86.68,262.442,39.052
86.71,264.127,39.522
86.74,265.636,39.98
86.77,266.829,40.266
86.81,268.057,40.415
86.84,269.391,40.679
86.87,271.216,40.667
86.9,272.339,40.679
86.94,273.181,41.103
86.97,274.796,41.16
87.0,275.954,41.137
87.04,277.147,41.492
87.07,278.761,41.607
87.1,279.779,41.526
87.13,280.235,41.629
87.17,280.832,41.549
87.2,280.902,40.999
87.23,280.692,40.942
87.26,281.183,40.965
87.3,281.604,40.954
87.33,281.885,41.251
87.36,282.587,41.4
87.39,282.973,41.355
87.43,282.938,41.355
87.46,283.534,41.629
87.49,284.447,41.492
87.52,284.587,41.446
87.56,283.885,42.214
87.59,283.394,42.89
87.62,283.253,43.061
87.65,282.867,43.073
87.69,282.587,43.21
87.72,282.622,43.13
87.75,282.516,42.901
87.78,282.411,42.912
87.82,282.692,43.119
87.85,282.867,43.073
87.88,282.201,42.867
87.91,281.218,42.683
87.95,280.621,42.282
87.98,279.955,41.813
88.01,278.972,41.458
88.04,277.744,41.32
88.08,276.866,41.274
88.11,276.199,41.022
88.14,274.971,40.679
88.17,273.462,40.209
88.21,271.707,39.659
88.24,269.742,39.178
88.27,268.057,38.777
88.3,266.759,38.571
88.34,265.846,38.571
88.37,264.793,38.422
88.4,263.179,38.25
88.44,261.284,38.124
88.47,259.81,37.826
88.5,258.231,37.54
88.53,256.616,37.483
88.57,255.142,37.425
88.6,253.458,37.299
88.63,251.773,37.288
88.66,250.264,37.299
88.7,249.106,37.059
88.73,247.772,36.646
88.76,246.088,36.28
88.79,244.263,36.039
88.83,242.578,35.673
88.86,240.823,35.283
88.89,239.209,35.088
88.92,237.63,34.848
88.96,235.84,34.538
88.99,233.559,34.126
89.02,231.488,33.977
89.05,230.4,33.84
89.09,229.488,33.485
89.12,227.733,33.129
89.15,225.311,32.9
89.18,223.662,32.625
89.22,222.258,32.087
89.25,220.082,31.549
89.28,217.45,31.285
89.31,215.485,31.045
89.35,213.87,30.655
89.38,212.186,30.311
89.41,210.326,30.082
89.44,208.43,29.865
89.48,206.395,29.406
89.51,203.798,28.868
89.54,201.096,28.593
89.57,198.639,28.421
89.61,196.744,28.135
89.64,194.849,27.86
89.67,192.989,27.711
89.7,190.988,27.413
89.74,188.742,26.989
89.77,186.18,26.497
89.8,184.25,26.233
89.84,182.004,25.443
89.87,179.056,25.214
89.9,176.669,25.007
89.93,174.669,24.561
89.97,172.423,24.183
90.0,169.756,23.644
90.03,166.597,23.129
90.06,164.0,22.671
90.1,161.263,21.662
90.13,158.139,21.204
90.16,155.717,21.09
90.19,153.682,20.597
90.23,150.278,19.738
90.26,146.172,19.463
90.29,142.978,19.28
90.32,140.837,18.867
90.36,138.731,18.34
90.39,135.643,17.825
90.42,132.239,17.424
90.45,129.396,17.0
90.49,126.869,16.439
90.52,123.991,15.946
90.55,120.587,15.488
90.58,117.464,14.846
90.62,114.481,14.067
90.65,111.182,13.552
90.68,107.953,13.128
90.71,104.514,12.555
90.75,100.618,11.983
90.78,96.863,11.444
90.81,93.423,10.768
90.84,89.914,10.047
90.88,86.089,9.302
90.91,81.947,8.821
90.94,78.297,8.454
90.97,74.928,7.985
91.01,71.489,7.503
91.04,67.874,7.125
91.07,64.505,6.747
91.11,61.276,6.427
91.14,58.328,6.175
91.17,55.661,5.762
91.2,52.748,5.235
91.24,49.554,4.766
91.27,46.22,4.307
91.3,42.711,3.815
91.33,38.921,3.253
91.37,34.779,2.704
91.4,30.673,2.245
91.43,26.778,1.856
91.46,23.058,1.466
91.5,19.057,1.18
91.53,14.986,0.962
91.56,10.739,0.768
91.59,6.844,0.607
91.63,2.632,0.664
91.66,0.281,0.55
91.69,-0.281,-0.298
91.72,-0.351,-1.34
91.76,-1.299,-2.486
91.79,-5.37,-3.586
91.82,-10.739,-4.559
91.85,-15.442,-5.418
91.89,-19.162,-6.163
91.92,-23.444,-6.656
91.95,-28.252,-6.954
91.98,-32.814,-7.16
92.02,-36.253,-7.366
92.05,-39.061,-7.584
92.08,-41.939,-7.87
92.11,-45.238,-8.202
92.15,-48.537,-8.557
92.18,-51.765,-9.061
92.21,-55.17,-9.565
92.24,-58.644,-9.978
92.28,-62.048,-10.436
92.31,-65.453,-10.917
92.34,-68.787,-11.318
92.37,-71.805,-11.73
92.41,-74.823,-12.246
92.44,-78.473,-12.75
92.47,-82.158,-13.277
92.51,-85.562,-13.804
92.54,-88.826,-14.342
92.57,-92.16,-14.812
92.6,-95.81,-15.087
92.64,-99.319,-15.179
92.67,-101.987,-15.419
92.7,-104.443,-15.728
92.73,-107.251,-16.015
92.77,-110.69,-16.496
92.8,-114.235,-17.057
92.83,-117.709,-17.687
92.86,-120.868,-18.1
92.9,-124.202,-18.695
92.93,-127.641,-19.062
92.96,-130.94,-19.532
92.99,-133.994,-19.99
93.03,-137.257,-20.62
93.06,-140.627,-20.929
93.09,-143.645,-21.227
93.12,-145.961,-21.548
93.16,-148.383,-22.006
93.19,-151.646,-22.522
93.22,-155.296,-22.831
93.25,-158.49,-23.117
93.29,-161.052,-23.541
93.32,-163.684,-23.919
93.35,-166.281,-24.137
93.38,-168.913,-24.423
93.42,-171.475,-24.813
93.45,-173.686,-25.191
93.48,-175.967,-25.557
93.51,-178.635,-26.13
93.55,-181.898,-26.691
93.58,-185.233,-27.069
93.61,-187.935,-27.379
93.64,-190.251,-27.665
93.68,-192.111,-27.883
93.71,-193.901,-28.158
93.74,-196.042,-28.364
93.78,-198.499,-28.593
93.81,-200.92,-28.891
93.84,-202.991,-29.131
93.87,-204.395,-29.406
93.91,-206.149,-29.544
93.94,-208.185,-29.613
93.97,-210.045,-29.739
94.0,-211.519,-29.979
94.04,-213.063,-30.3
94.07,-215.204,-30.667
94.1,-217.31,-30.976
94.13,-219.029,-31.342
94.17,-220.644,-31.652
94.2,-222.714,-31.846
94.23,-224.995,-32.041
94.26,-227.171,-32.396
94.3,-229.066,-32.717
94.33,-230.716,-33.072
94.36,-232.611,-33.427
94.39,-234.682,-33.691
94.43,-236.787,-33.977
94.46,-238.437,-34.206
94.49,-239.841,-34.412
94.52,-241.595,-34.55
94.56,-242.613,-34.871
94.59,-242.894,-35.478
94.62,-243.947,-36.051
94.65,-245.947,-36.555
94.69,-248.264,-36.956
94.72,-249.843,-37.231
94.75,-251.001,-37.563
94.78,-252.545,-37.849
94.82,-254.475,-38.067
94.85,-256.371,-38.342
94.88,-258.476,-38.617
94.91,-260.126,-38.788
94.95,-260.898,-38.937
94.98,-261.354,-38.869
95.01,-262.582,-38.926
95.04,-264.758,-39.189
95.08,-266.373,-39.27
95.11,-266.969,-39.327
95.14,-267.812,-39.693
95.18,-269.637,-39.842
95.21,-271.005,-39.682
95.24,-271.988,-40.129
95.27,-273.357,-40.312
95.31,-274.059,-40.186
95.34,-275.076,-40.484
95.37,-276.796,-40.77
95.4,-277.989,-40.931
95.44,-278.34,-41.091
95.47,-279.253,-41.366
95.5,-280.937,-41.114
95.53,-281.604,-40.805
95.57,-280.797,-40.667
95.6,-280.235,-40.976
95.63,-280.2,-41.423
95.66,-280.2,-41.79
95.7,-281.007,-42.42
95.73,-282.166,-42.454
95.76,-282.481,-42.775
95.79,-282.657,-42.958
95.83,-283.113,-42.993
95.86,-284.271,-42.993
95.89,-285.008,-43.016
95.92,-285.008,-43.096
95.96,-284.868,-43.096
95.99,-284.868,-42.912
96.02,-284.692,-42.58
96.05,-283.92,-42.225
96.09,-282.797,-42.053
96.12,-282.446,-42.088
96.15,-282.832,-42.134
96.18,-283.113,-42.053
96.22,-282.095,-42.007
96.25,-280.621,-41.904
96.28,-279.709,-41.549
96.31,-279.182,-41.148
96.35,-278.691,-40.873
96.38,-278.13,-40.782
96.41,-277.322,-40.816
96.45,-276.515,-40.759
96.48,-275.778,-40.45
96.51,-274.164,-39.957
96.54,-271.848,-39.464
96.58,-269.215,-39.235
96.61,-267.285,-39.189
96.64,-266.267,-39.063
96.67,-265.285,-39.018
96.71,-263.741,-39.075
96.74,-262.161,-39.109
96.77,-261.143,-38.892
96.8,-259.81,-38.536
96.84,-258.195,-38.284
96.87,-256.441,-38.021
96.9,-254.721,-37.803
96.93,-253.247,-37.574
96.97,-251.913,-37.357
97.0,-250.51,-37.185
97.03,-248.79,-36.921
97.06,-246.79,-36.337
97.1,-244.614,-36.154
97.13,-243.596,-36.268
97.16,-242.859,-35.856
97.19,-240.648,-35.547
97.23,-238.647,-35.547
97.26,-237.875,-35.352
97.29,-237.138,-34.722
97.32,-234.998,-34.206
97.36,-232.295,-33.966
97.39,-230.505,-33.611
97.42,-229.031,-33.129
97.45,-226.891,-32.843
97.49,-224.925,-32.728
97.52,-223.381,-32.431
97.55,-221.451,-32.076
97.58,-218.784,-31.904
97.62,-216.292,-31.743
97.65,-214.537,-31.445
97.68,-212.923,-31.159
97.71,-211.308,-30.919
97.75,-209.448,-30.655
97.78,-206.956,-30.426
97.81,-204.816,-30.094
97.85,-203.061,-29.635
97.88,-201.341,-29.223
97.91,-199.306,-28.719
97.94,-196.638,-28.364
97.98,-194.322,-28.169
98.01,-192.813,-27.826
98.04,-190.988,-27.447
98.07,-188.602,-27.069
98.11,-186.215,-26.611
98.14,-183.372,-25.924
98.17,-181.021,-25.695
98.2,-179.372,-25.374
98.24,-177.266,-24.836
98.27,-174.529,-24.435
98.3,-171.826,-24.011
98.33,-169.334,-23.369
98.37,-166.562,-22.797
98.4,-163.403,-22.304
98.43,-160.175,-21.708
98.46,-157.121,-21.158
98.5,-154.7,-21.032
98.53,-152.173,-20.345
98.56,-148.523,-19.818
98.59,-145.364,-19.658
98.63,-143.399,-19.268
98.66,-141.539,-18.787
98.69,-138.837,-18.26
98.72,-135.538,-17.733
98.76,-132.309,-17.275
98.79,-129.817,-16.771
98.82,-127.115,-16.255
98.85,-124.026,-15.786
98.89,-120.728,-15.236
98.92,-117.253,-14.663
98.95,-113.849,-14.182
98.98,-110.831,-13.804
99.02,-108.023,-13.346
99.05,-104.689,-12.807
99.08,-101.039,-12.246
99.12,-97.249,-11.65
99.15,-93.529,-10.986
99.18,-89.809,-10.333
99.21,-86.089,-9.714
99.25,-82.404,-9.222
99.28,-78.578,-8.695
99.31,-75.069,-8.408
99.34,-73.63,-8.901
99.38,-73.7,-8.993
99.41,-72.226,-8.351
99.44,-68.541,-7.732
99.47,-64.294,-7.286
99.51,-60.539,-6.656
99.54,-56.96,-5.98
99.57,-53.31,-5.315
99.6,-49.274,-4.376
99.64,-44.115,-3.311
99.67,-38.148,-2.52
99.7,-32.498,-1.925
99.73,-27.129,-1.26
99.77,-21.548,-0.848
99.8,-16.319,-0.642
99.83,-11.441,-0.596
99.86,-6.844,-0.653
99.9,-2.773,-0.894
99.93,-0.491,-1.157
99.96,0.035,-0.905
99.99,0.246,-0.355
100.03,0.491,0.401
100.06,0.667,1.569
100.09,2.878,2.864
100.12,7.896,3.723
100.16,12.494,4.525
100.19,16.179,5.522
100.22,19.759,6.186
100.25,24.146,6.69
100.29,28.918,7.217
100.32,33.411,7.515
100.35,36.885,7.79
100.38,40.395,8.179
100.42,44.185,8.489
100.45,47.659,8.637
100.48,50.291,8.878
100.52,53.099,9.428
100.55,56.503,9.852
100.58,59.697,10.195
100.61,63.171,10.596
100.65,67.102,10.974
100.68,70.506,11.284
100.71,73.138,11.662
100.74,75.981,12.063
100.78,79.631,12.704
100.81,83.807,13.403
100.84,87.527,13.918
100.87,90.791,14.411
100.91,94.511,14.961
100.94,98.407,15.224
100.97,101.495,15.328
101.0,103.952,15.683
101.04,106.865,16.381
101.07,110.585,17.0
101.1,114.516,17.412
101.13,118.025,17.802
101.17,121.219,18.26
101.2,124.202,18.547
101.23,126.799,18.673
101.26,129.326,19.016
101.3,132.379,19.681
101.33,135.889,20.219
101.36,139.012,20.666
101.39,141.995,21.227
101.43,145.189,21.674
101.46,148.032,21.892
101.49,150.313,22.155
101.52,152.875,22.602
101.56,156.139,23.049
101.59,159.718,23.369
101.62,162.877,23.633
101.65,165.439,23.931
101.69,168.071,24.263
101.72,170.703,24.458
101.75,173.125,24.71
101.79,174.353,24.194
101.82,171.124,22.098
101.85,165.018,21.032
101.88,163.509,21.903
101.92,167.545,22.35
101.95,171.159,22.487
101.98,171.616,23.323
102.01,172.388,24.526
102.05,176.038,25.832
102.08,182.249,26.921
102.11,188.391,28.032
102.14,193.375,29.177
102.18,197.305,29.956
102.21,200.745,30.449
102.24,204.605,30.689
102.27,208.115,30.667
102.31,210.852,30.586
102.34,212.712,30.632
102.37,214.537,30.953
102.4,217.029,31.113
102.44,219.731,31.113
102.47,221.732,31.457
102.5,223.521,31.789
102.53,225.206,31.801
102.57,226.785,31.984
102.6,228.259,32.476
102.63,229.733,32.992
102.66,231.032,33.439
102.7,232.611,33.943
102.73,234.682,34.39
102.76,236.296,34.642
102.79,237.209,34.722
102.83,238.051,35.008
102.86,239.806,35.386
102.89,242.368,35.718
102.92,244.579,36.028
102.96,246.368,36.371
102.99,248.509,36.726
103.02,250.685,36.83
103.05,251.808,36.933
103.09,253.352,37.345
103.12,255.563,37.345
103.15,256.721,37.391
103.19,257.564,37.757
103.22,259.319,38.078
103.25,261.284,38.124
103.28,262.442,38.17
103.32,262.968,38.365
103.35,263.495,38.514
103.38,264.688,38.788
103.41,266.689,38.937
103.45,267.917,38.892
103.48,268.619,39.235
103.51,270.128,39.59
103.54,271.918,39.476
103.58,272.549,39.671
103.61,272.269,40.553
103.64,272.935,41.171
103.67,274.269,41.343
103.71,275.287,41.618
103.74,276.34,42.076
103.77,277.463,42.34
103.8,278.621,42.374
103.84,279.323,42.443
103.87,279.744,42.569
103.9,280.27,42.569
103.93,281.078,42.5
103.97,281.99,42.557
104.0,282.867,42.557
104.03,283.324,42.523
104.06,283.604,42.58
104.1,284.026,42.512
104.13,284.201,42.214
104.16,283.464,41.927
104.19,283.289,41.996
104.23,284.096,42.019
104.26,284.061,41.916
104.29,283.253,42.088
104.32,283.148,42.088
104.36,283.675,41.755
104.39,283.429,41.503
104.42,282.587,41.526
104.46,282.201,41.698
104.49,282.727,41.847
104.52,283.394,41.79
104.55,283.394,41.652
104.59,282.166,41.572
104.62,279.814,41.549
104.65,278.235,41.481
104.68,277.708,41.263
104.72,277.393,41.286
104.75,276.55,41.458
104.78,275.287,41.423
104.81,273.883,41.229
104.85,272.83,40.931
104.88,271.637,40.461
104.91,269.882,40.037
104.94,268.373,39.705
104.98,267.11,39.556
105.01,265.952,39.522
105.04,264.688,39.441
105.07,263.53,39.293
105.11,262.582,39.075
105.14,260.828,38.754
105.17,258.862,38.456
105.2,257.248,38.296
105.24,256.546,38.044
105.27,255.388,37.689
105.3,253.177,37.586
105.33,251.527,37.494
105.37,250.545,37.082
105.4,249.352,36.566
105.43,247.456,36.245
105.46,245.702,36.028
105.5,244.298,35.673
105.53,242.648,35.214
105.56,240.613,34.951
105.59,238.928,34.745
105.63,236.928,34.378
105.66,234.331,34.0
105.69,231.909,33.759
105.72,230.19,33.782
105.76,229.382,33.645
105.79,228.084,33.313
105.82,226.399,33.324
105.86,224.995,33.233
105.89,222.89,32.591
105.92,219.591,31.995
105.95,217.134,31.858
105.99,215.836,31.503
106.02,214.432,31.045
106.05,212.256,30.804
106.08,210.115,30.621
106.12,208.606,30.54
106.15,207.167,30.105
106.18,204.886,29.452
106.21,202.008,29.12
106.25,199.797,28.937
106.28,198.148,28.559
106.31,196.428,28.169
106.34,194.217,27.894
106.38,191.936,27.528
106.41,189.374,27.001
106.44,186.742,26.531
106.47,184.32,26.073
106.51,181.969,25.592
106.54,179.477,25.214
106.57,177.336,24.893
106.6,175.336,24.458
106.64,172.914,23.896
106.67,170.071,23.289
106.7,167.088,22.671
106.73,163.649,21.811
106.77,160.21,21.433
106.8,157.507,21.067
106.83,155.156,20.677
106.86,152.769,20.334
106.9,150.032,19.944
106.93,147.084,19.474
106.96,144.206,19.005
106.99,141.258,18.478
107.03,138.31,18.008
107.06,135.397,17.699
107.09,132.695,17.275
107.13,130.028,16.759
107.16,127.15,16.29
107.19,124.307,15.832
107.22,121.149,15.224
107.26,117.744,14.64
107.29,114.2,14.171
107.32,111.287,13.735
107.35,108.514,13.22
107.39,105.286,12.67
107.42,101.32,12.109
107.45,97.495,11.513
107.48,93.88,10.791
107.52,90.23,10.138
107.55,86.299,9.554
107.58,82.684,9.05
107.61,79.245,8.592
107.65,75.771,8.156
107.68,72.226,7.721
107.71,68.752,7.24
107.74,65.277,6.667
107.78,61.557,6.243
107.81,57.872,5.911
107.84,54.678,5.567
107.87,51.836,5.178
107.91,48.853,4.788
107.94,45.554,4.261
107.97,41.939,3.792
108.0,38.499,3.46
108.04,35.376,3.013
108.07,32.217,2.543
108.1,28.497,2.165
108.13,24.602,1.821
108.17,20.566,1.512
108.2,16.811,1.168
108.23,12.599,0.882
108.26,8.423,0.63
108.3,3.65,0.481
108.33,0.351,0.309
108.36,-0.281,-0.561
108.39,-0.562,-1.89
108.43,-2.737,-3.127
108.46,-7.37,-3.826
108.49,-11.617,-4.594
108.53,-15.231,-5.567
108.56,-19.127,-6.129
108.59,-23.654,-6.278
108.62,-27.971,-6.553
108.66,-31.902,-6.747
108.69,-34.92,-6.931
108.72,-37.868,-7.286
108.75,-41.132,-7.561
108.79,-44.15,-7.87
108.82,-47.203,-8.294
108.85,-50.537,-8.718
108.88,-53.941,-9.05
108.92,-57.17,-9.52
108.95,-60.539,-10.104
108.98,-64.365,-10.528
109.01,-68.295,-10.929
109.05,-71.91,-11.398
109.08,-75.034,-11.811
109.11,-78.087,-12.315
109.14,-81.386,-12.945
109.18,-85.071,-13.483
109.21,-88.545,-13.941
109.24,-91.739,-14.434
109.27,-94.757,-14.881
109.31,-97.705,-15.339
109.34,-101.004,-15.843
109.37,-104.689,-16.381
109.4,-108.655,-16.817
109.44,-112.515,-17.264
109.47,-115.955,-17.676
109.5,-119.043,-18.008
109.53,-121.886,-18.26
109.57,-124.904,-18.615
109.6,-128.062,-18.947
109.63,-131.081,-19.268
109.66,-134.239,-19.807
109.7,-137.784,-20.368
109.73,-141.083,-20.78
109.76,-143.961,-21.113
109.8,-146.593,-21.41
109.83,-149.225,-21.582
109.86,-152.524,-22.212
109.89,-155.928,-22.43
109.93,-158.525,-22.636
109.96,-160.701,-23.071
109.99,-163.263,-23.576
110.02,-165.93,-23.873
110.06,-168.387,-24.217
110.09,-170.808,-24.584
110.12,-173.441,-24.927
110.15,-176.038,-25.248
110.19,-178.775,-25.764
110.22,-182.144,-26.302
110.25,-185.127,-26.669
110.28,-187.479,-27.081
110.32,-189.865,-27.402
110.35,-192.216,-27.562
110.38,-194.287,-27.757
110.41,-196.252,-27.974
110.45,-198.323,-28.284
110.48,-200.71,-28.593
110.51,-203.166,-28.765
110.54,-204.71,-28.948
110.58,-205.553,-29.303
110.61,-206.606,-29.658
110.64,-208.29,-29.933
110.67,-210.536,-30.208
110.71,-212.747,-30.552
110.74,-214.783,-31.033
110.77,-216.713,-31.514
110.8,-218.819,-32.007
110.84,-221.205,-32.442
110.87,-223.381,-32.786
110.9,-225.908,-32.969
110.93,-228.435,-33.152
110.97,-230.33,-33.37
111.0,-231.523,-33.599
111.03,-232.997,-33.84
111.06,-234.962,-34.023
111.1,-236.647,-34.092
111.13,-237.77,-34.378
111.16,-239.139,-34.596
111.2,-240.823,-34.607
111.23,-242.613,-34.928
111.26,-244.824,-35.26
111.29,-246.754,-35.466
111.33,-248.123,-35.73
111.36,-249.492,-36.051
111.39,-251.141,-36.177
111.42,-252.615,-36.303
111.46,-253.984,-36.566
111.49,-255.669,-36.726
111.52,-257.178,-36.841
111.55,-258.406,-37.116
111.59,-258.862,-37.54
111.62,-258.652,-38.09
111.65,-259.073,-38.617
111.68,-260.582,-39.109
111.72,-262.512,-39.579
111.75,-264.513,-40.094
111.78,-266.057,-40.45
111.81,-267.145,-40.656
111.85,-268.478,-40.782
111.88,-270.128,-40.793
111.91,-271.426,-40.931
111.94,-272.62,-41.229
111.98,-273.813,-41.435
112.01,-275.462,-41.526
112.04,-276.936,-41.561
112.07,-277.884,-41.847
112.11,-278.972,-41.996
112.14,-279.99,-41.744
112.17,-280.446,-41.572
112.2,-280.551,-41.721
112.24,-280.762,-41.629
112.27,-281.499,-41.572
112.3,-281.955,-41.366
112.33,-282.166,-41.675
112.37,-283.71,-41.859
112.4,-284.377,-41.572
112.43,-284.306,-42.042
112.46,-284.447,-41.973
112.5,-284.412,-41.778
112.53,-284.727,-41.927
112.56,-284.412,-42.294
112.6,-282.867,-42.672
112.63,-281.955,-42.89
112.66,-282.271,-42.924
112.69,-282.692,-42.878
112.73,-282.271,-42.821
112.76,-281.499,-42.821
112.79,-281.323,-42.958
112.82,-281.99,-43.119
112.86,-282.657,-43.061
112.89,-282.166,-42.901
112.92,-280.972,-42.729
112.95,-279.99,-42.317
112.99,-278.867,-41.939
113.02,-277.744,-41.79
113.05,-277.287,-41.755
113.08,-277.428,-41.572
113.12,-276.34,-41.423
113.15,-274.304,-41.423
113.18,-272.9,-41.011
113.21,-271.321,-40.392
113.25,-269.952,-39.98
113.28,-268.619,-39.59
113.31,-266.899,-39.396
113.34,-265.53,-39.384
113.38,-264.337,-39.293
113.41,-263.425,-39.098
113.44,-262.302,-38.731
113.47,-260.266,-38.33
113.51,-257.95,-38.101
113.54,-256.441,-37.941
113.57,-255.528,-37.769
113.6,-254.124,-37.574
113.64,-252.299,-37.494
113.67,-250.826,-37.334
113.7,-249.422,-37.013
113.73,-247.948,-36.612
113.77,-246.228,-36.406
113.8,-244.859,-36.165
113.83,-243.526,-35.799
113.87,-241.595,-35.592
113.9,-239.384,-35.386
113.93,-237.489,-35.1
113.96,-235.699,-34.642
114.0,-233.804,-34.252
114.03,-231.979,-34.023
114.06,-230.435,-33.805
114.09,-228.926,-33.485
114.13,-227.101,-33.233
114.16,-225.171,-33.072
114.19,-223.241,-32.786
114.22,-221.31,-32.339
114.26,-219.45,-31.995
114.29,-217.38,-31.354
114.32,-214.993,-31.171
114.35,-213.8,-31.182
114.39,-213.063,-30.724
114.42,-211.168,-30.277
114.45,-208.606,-30.105
114.48,-206.29,-29.693
114.52,-204.114,-29.063
114.55,-201.692,-28.673
114.58,-199.411,-28.364
114.61,-196.849,-28.009
114.65,-194.041,-27.86
114.68,-191.901,-27.745
114.71,-190.392,-27.47
114.74,-188.602,-27.024
114.78,-186.32,-26.543
114.81,-183.794,-26.038
114.84,-181.161,-25.5
114.87,-178.564,-25.053
114.91,-176.494,-24.641
114.94,-174.423,-24.114
114.97,-171.826,-23.541
115.0,-168.738,-23.037
115.04,-165.649,-22.625
115.07,-162.842,-22.201
115.1,-160.034,-21.731
115.13,-157.191,-21.376
115.17,-154.98,-21.319
115.2,-152.524,-20.609
115.23,-148.734,-19.852
115.27,-145.47,-19.646
115.3,-143.118,-19.119
115.33,-141.434,-18.856
115.36,-139.398,-18.329
115.4,-136.275,-17.859
115.43,-133.116,-17.504
115.46,-130.309,-17.011
115.49,-127.711,-16.53
115.53,-124.763,-16.049
115.56,-121.535,-15.499
115.59,-118.06,-14.846
115.62,-114.621,-14.297
115.66,-111.217,-13.861
115.69,-108.199,-13.437
115.72,-105.286,-12.761
115.75,-101.671,-12.04
115.79,-97.67,-11.387
115.82,-93.81,-10.722
115.85,-90.019,-10.001
115.88,-86.229,-9.531
115.92,-82.649,-9.096
115.95,-79.14,-8.683
115.98,-75.876,-8.385
116.01,-72.998,-8.088
116.05,-70.05,-7.526
116.08,-66.33,-6.919
116.11,-62.294,-6.484
116.14,-58.609,-5.968
116.18,-55.17,-5.304
116.21,-51.379,-4.766
116.24,-47.554,-4.365
116.27,-43.939,-3.849
116.31,-40.044,-3.265
116.34,-35.938,-2.772
116.37,-31.902,-2.371
116.4,-28.217,-2.005
116.44,-24.286,-1.707
116.47,-20.566,-1.489
116.5,-17.091,-1.432
116.54,-13.828,-1.42
116.57,-10.388,-1.214
116.6,-7.23,-1.031
116.63,-3.755,-0.882
116.67,-0.597,-0.745
