Trigger_Date,2023/06/22
Trigger_Time,T 11:10:28.865 PDT
Samples_Per_Cycle,512
Microseconds_Per_Sample,32.549
Time (ms),Voltage (V),Current (A)
-16.67,0.562,0.493
-16.63,0.562,1.695
-16.6,2.316,3.104
-16.57,7.721,4.41
-16.53,13.863,5.384
-16.5,18.671,6.175
-16.47,22.707,6.782
-16.44,27.339,7.068
-16.4,31.726,7.251
-16.37,35.551,7.492
-16.34,38.921,7.664
-16.31,41.096,7.309
-16.27,42.009,7.24
-16.24,44.325,7.95
-16.21,48.291,8.454
-16.18,51.836,8.718
-16.14,54.749,9.233
-16.11,58.153,9.829
-16.08,61.768,10.287
-16.05,65.347,10.768
-16.01,69.243,11.41
-15.98,73.174,11.971
-15.95,76.718,12.429
-15.92,79.982,12.899
-15.88,83.492,13.46
-15.85,87.247,13.896
-15.82,90.826,14.319
-15.79,94.16,14.675
-15.75,97.003,14.949
-15.72,99.565,15.373
-15.69,102.548,15.889
-15.66,106.093,16.416
-15.62,109.918,16.943
-15.59,113.533,17.424
-15.56,116.867,17.79
-15.53,119.815,18.203
-15.49,122.658,18.512
-15.46,125.781,19.073
-15.43,129.572,19.921
-15.4,133.853,20.471
-15.36,137.503,20.654
-15.33,140.556,21.09
-15.3,143.469,21.273
-15.27,145.926,21.067
-15.23,148.453,21.559
-15.2,151.155,21.662
-15.17,152.91,21.651
-15.14,154.349,22.144
-15.1,157.086,22.797
-15.07,160.876,23.266
-15.04,164.246,23.679
-15.01,166.983,24.183
-14.97,169.58,24.561
-14.94,171.967,24.904
-14.91,174.493,25.328
-14.87,177.652,25.775
-14.84,181.091,26.279
-14.81,184.425,26.737
-14.78,187.128,27.115
-14.74,189.304,27.459
-14.71,191.304,27.654
-14.68,193.445,27.78
-14.65,195.656,27.906
-14.61,197.762,28.215
-14.58,199.973,28.501
-14.55,201.973,28.696
-14.52,203.622,29.005
-14.48,205.658,29.326
-14.45,207.693,29.223
-14.42,208.571,29.005
-14.39,209.308,29.739
-14.35,211.94,30.93
-14.32,215.344,31.549
-14.29,217.941,32.098
-14.26,219.801,32.683
-14.22,221.451,32.843
-14.19,223.065,32.637
-14.16,224.82,32.66
-14.13,226.54,32.958
-14.09,228.224,33.175
-14.06,229.453,33.175
-14.03,230.154,33.278
-14.0,231.664,33.759
-13.96,234.225,33.931
-13.93,235.805,33.828
-13.9,236.156,34.034
-13.87,237.244,34.596
-13.83,239.771,34.917
-13.8,242.192,35.077
-13.77,243.666,35.558
-13.74,245.456,36.165
-13.7,247.983,36.463
-13.67,249.913,36.44
-13.64,251.212,36.566
-13.61,252.65,36.898
-13.57,254.791,37.059
-13.54,256.651,37.196
-13.51,257.704,37.586
-13.48,259.073,37.975
-13.44,261.003,38.113
-13.41,262.477,38.09
-13.38,262.231,38.445
-13.35,261.951,39.086
-13.31,263.565,39.453
-13.28,265.46,39.785
-13.25,266.724,40.175
-13.21,267.531,40.598
-13.18,268.97,40.931
-13.15,270.97,40.816
-13.12,272.304,40.793
-13.08,272.971,41.183
-13.05,274.199,41.469
-13.02,275.813,41.435
-12.99,277.182,41.446
-12.95,278.059,41.675
-12.92,279.147,41.778
-12.89,280.2,41.549
-12.86,280.516,41.458
-12.82,280.446,41.458
-12.79,280.446,41.446
-12.76,281.183,41.584
-12.73,282.376,41.492
-12.69,282.376,41.561
-12.66,282.481,41.973
-12.63,283.289,41.927
-12.6,284.096,41.973
-12.56,284.587,42.099
-12.53,284.692,41.916
-12.5,285.114,42.088
-12.47,286.272,42.214
-12.43,285.815,42.191
-12.4,283.569,42.592
-12.37,282.13,42.626
-12.34,282.095,42.454
-12.3,282.271,42.294
-12.27,281.253,42.214
-12.24,280.13,42.477
-12.21,280.095,42.615
-12.17,280.341,42.512
-12.14,279.884,42.408
-12.11,278.761,42.363
-12.08,277.954,42.191
-12.04,277.533,41.824
-12.01,276.831,41.549
-11.98,276.199,41.481
-11.95,275.638,41.274
-11.91,274.585,40.942
-11.88,273.111,40.644
-11.85,271.953,40.198
-11.82,270.303,39.819
-11.78,268.549,39.59
-11.75,267.075,39.35
-11.72,266.197,39.121
-11.69,265.179,39.006
-11.65,263.67,38.937
-11.62,262.091,38.708
-11.59,260.477,38.181
-11.55,258.371,37.7
-11.52,256.441,37.551
-11.49,255.318,37.471
-11.46,254.721,37.231
-11.42,253.458,37.311
-11.39,252.054,37.883
-11.36,251.106,37.952
-11.33,249.562,37.299
-11.29,247.807,36.921
-11.26,246.614,36.784
-11.23,245.351,36.268
-11.2,243.069,35.707
-11.16,239.876,35.18
-11.13,237.138,34.79
-11.1,235.84,34.676
-11.07,235.138,34.344
-11.03,233.067,33.954
-11.0,230.225,33.851
-10.97,228.54,33.656
-10.94,227.312,33.244
-10.9,225.697,32.958
-10.87,223.872,32.855
-10.84,222.047,32.465
-10.81,219.556,31.892
-10.77,217.029,31.491
-10.74,215.134,31.216
-10.71,213.94,30.781
-10.68,212.186,30.437
-10.64,209.869,30.254
-10.61,207.658,30.025
-10.58,205.623,29.727
-10.55,203.728,29.395
-10.51,201.692,28.971
-10.48,199.341,28.708
-10.45,197.305,28.478
-10.42,195.796,28.226
-10.38,194.112,27.963
-10.35,192.006,27.654
-10.32,189.655,27.218
-10.29,187.373,26.703
-10.25,185.092,26.176
-10.22,182.6,25.649
-10.19,179.793,25.179
-10.16,177.441,24.939
-10.12,175.616,24.549
-10.09,173.3,24.011
-10.06,169.931,23.472
-10.03,166.527,23.049
-9.99,163.789,22.556
-9.96,161.192,21.892
-9.93,158.315,21.422
-9.89,155.717,21.158
-9.86,153.261,20.631
-9.83,150.102,20.082
-9.8,146.768,19.646
-9.76,144.066,19.245
-9.73,141.679,18.764
-9.7,138.872,18.054
-9.67,135.187,17.664
-9.63,132.414,17.619
-9.6,130.379,17.206
-9.57,128.133,16.702
-9.54,125.22,16.301
-9.5,121.921,15.82
-9.47,118.411,15.133
-9.44,114.902,14.342
-9.41,111.147,13.495
-9.37,107.462,12.853
-9.34,104.198,12.28
-9.31,100.899,11.639
-9.28,97.003,11.043
-9.24,92.897,10.413
-9.21,88.931,9.863
-9.18,85.527,9.382
-9.15,82.298,9.004
-9.11,78.894,8.649
-9.08,75.595,8.282
-9.05,72.366,7.87
-9.02,69.348,7.526
-8.98,66.19,7.102
-8.95,63.136,6.61
-8.92,59.908,6.14
-8.89,56.819,5.693
-8.85,53.906,5.235
-8.82,50.783,4.8
-8.79,47.449,4.33
-8.76,43.974,3.803
-8.72,40.324,3.23
-8.69,36.534,2.807
-8.66,32.849,2.577
-8.63,28.848,2.131
-8.59,24.707,1.707
-8.56,21.057,1.546
-8.53,17.899,1.409
-8.5,14.424,1.088
-8.46,10.178,0.825
-8.43,5.861,0.538
-8.4,1.544,0.412
-8.37,-0.07,0.057
-8.33,-0.316,-0.962
-8.3,-0.877,-2.177
-8.27,-4.001,-3.116
-8.23,-8.493,-3.803
-8.2,-12.494,-4.697
-8.17,-16.039,-5.556
-8.14,-20.215,-6.255
-8.1,-25.128,-6.793
-8.07,-29.936,-7.206
-8.04,-34.113,-7.561
-8.01,-37.938,-7.824
-7.97,-41.518,-8.053
-7.94,-45.062,-8.351
-7.91,-48.326,-8.603
-7.88,-51.204,-8.809
-7.84,-54.047,-9.13
-7.81,-56.819,-9.577
-7.78,-59.872,-9.966
-7.75,-62.926,-10.344
-7.71,-66.049,-10.78
-7.68,-69.102,-11.181
-7.65,-72.121,-11.616
-7.62,-75.209,-12.017
-7.58,-78.508,-12.555
-7.55,-81.842,-13.128
-7.52,-85.141,-13.77
-7.49,-88.44,-14.423
-7.45,-92.02,-15.018
-7.42,-96.021,-15.385
-7.39,-99.986,-15.625
-7.36,-103.496,-16.003
-7.32,-106.795,-16.507
-7.29,-110.304,-16.92
-7.26,-113.954,-17.39
-7.23,-117.885,-17.916
-7.19,-121.605,-18.168
-7.16,-124.413,-18.386
-7.13,-127.01,-18.73
-7.1,-129.782,-19.119
-7.06,-133.116,-19.669
-7.03,-136.871,-20.288
-7.0,-140.591,-20.964
-6.97,-143.434,-21.227
-6.93,-145.75,-21.514
-6.9,-148.312,-21.811
-6.87,-151.611,-22.338
-6.84,-155.331,-22.785
-6.8,-157.893,-22.785
-6.77,-159.648,-23.163
-6.74,-163.052,-24.102
-6.71,-166.948,-24.148
-6.67,-168.773,-24.137
-6.64,-170.071,-24.721
-6.61,-173.055,-25.477
-6.57,-176.634,-25.431
-6.54,-178.74,-25.512
-6.51,-180.881,-26.29
-6.48,-184.46,-27.024
-6.44,-187.759,-27.104
-6.41,-189.339,-27.493
-6.38,-191.058,-28.089
-6.35,-193.831,-28.547
-6.31,-196.638,-28.238
-6.28,-197.446,-28.043
-6.25,-198.358,-28.57
-6.22,-201.096,-29.063
-6.18,-203.798,-28.96
-6.15,-204.991,-29.086
-6.12,-206.009,-29.567
-6.09,-207.939,-30.014
-6.05,-209.694,-29.979
-6.02,-210.571,-30.025
-5.99,-212.151,-30.632
-5.96,-214.993,-31.193
-5.92,-218.187,-31.824
-5.89,-220.714,-32.247
-5.86,-222.504,-32.385
-5.83,-224.118,-32.499
-5.79,-226.364,-32.797
-5.76,-228.575,-33.072
-5.73,-230.611,-33.278
-5.7,-232.295,-33.255
-5.66,-233.769,-33.565
-5.63,-235.384,-33.874
-5.6,-236.717,-33.828
-5.57,-237.805,-33.863
-5.53,-239.455,-34.275
-5.5,-241.701,-34.653
-5.47,-243.526,-34.745
-5.44,-243.982,-35.191
-5.4,-244.122,-35.902
-5.37,-245.421,-36.337
-5.34,-247.702,-36.612
-5.31,-249.878,-36.956
-5.27,-251.317,-37.448
-5.24,-252.721,-37.849
-5.21,-254.616,-38.25
-5.18,-257.143,-38.525
-5.14,-259.424,-38.708
-5.11,-260.687,-38.903
-5.08,-261.635,-39.086
-5.05,-262.933,-39.098
-5.01,-264.723,-39.098
-4.98,-266.373,-39.041
-4.95,-267.39,-39.063
-4.91,-268.233,-39.315
-4.88,-269.601,-39.51
-4.85,-270.97,-39.556
-4.82,-271.707,-39.648
-4.78,-272.234,-39.911
-4.75,-273.006,-40.049
-4.72,-274.023,-40.06
-4.69,-275.252,-40.232
-4.65,-276.55,-40.45
-4.62,-277.638,-40.69
-4.59,-278.551,-40.805
-4.56,-279.323,-40.816
-4.52,-279.99,-40.736
-4.49,-280.27,-40.736
-4.46,-280.937,-40.747
-4.43,-281.744,-40.885
-4.39,-280.902,-41.664
-4.36,-279.674,-42.683
-4.33,-280.411,-43.107
-4.3,-282.095,-43.073
-4.26,-282.587,-43.096
-4.23,-281.99,-43.291
-4.2,-281.92,-43.359
-4.17,-283.008,-43.417
-4.13,-283.675,-43.107
-4.1,-284.026,-43.451
-4.07,-284.447,-43.462
-4.04,-284.341,-43.439
-4.0,-283.885,-43.279
-3.97,-282.797,-42.718
-3.94,-282.271,-42.615
-3.91,-283.113,-42.718
-3.87,-283.955,-42.477
-3.84,-282.973,-42.134
-3.81,-281.218,-41.927
-3.78,-280.025,-41.515
-3.74,-279.253,-40.954
-3.71,-278.059,-40.621
-3.68,-276.901,-40.553
-3.65,-276.094,-40.507
-3.61,-275.392,-40.427
-3.58,-274.409,-40.289
-3.55,-272.865,-40.094
-3.52,-271.005,-39.705
-3.48,-269.426,-39.258
-3.45,-267.952,-38.937
-3.42,-266.127,-39.052
-3.39,-264.723,-39.338
-3.35,-264.021,-39.338
-3.32,-263.425,-39.247
-3.29,-262.372,-39.189
-3.25,-260.933,-38.754
-3.22,-258.862,-38.239
-3.19,-256.686,-38.055
-3.16,-255.318,-38.044
-3.12,-254.51,-37.906
-3.09,-253.703,-37.723
-3.06,-252.335,-37.609
-3.03,-250.299,-37.483
-2.99,-247.983,-37.013
-2.96,-246.298,-36.497
-2.93,-245.316,-36.028
-2.9,-243.947,-35.695
-2.86,-241.56,-35.478
-2.83,-239.174,-35.295
-2.8,-237.419,-35.088
-2.77,-236.261,-34.848
-2.73,-234.717,-34.355
-2.7,-232.05,-34.057
-2.67,-229.698,-33.874
-2.64,-228.68,-33.416
-2.6,-227.663,-33.049
-2.57,-226.224,-32.912
-2.54,-224.539,-32.74
-2.51,-222.433,-32.511
-2.47,-220.082,-32.041
-2.44,-217.766,-31.617
-2.41,-215.765,-31.4
-2.38,-213.905,-31.262
-2.34,-212.221,-31.067
-2.31,-210.641,-30.815
-2.28,-209.097,-30.598
-2.25,-207.553,-30.22
-2.21,-205.026,-29.647
-2.18,-202.078,-29.189
-2.15,-200.008,-28.788
-2.12,-198.288,-28.364
-2.08,-196.358,-28.043
-2.05,-194.287,-27.791
-2.02,-192.111,-27.425
-1.99,-189.83,-26.909
-1.95,-187.057,-26.336
-1.92,-184.215,-25.878
-1.89,-181.723,-25.34
-1.86,-179.301,-24.847
-1.82,-177.02,-24.561
-1.79,-174.844,-24.263
-1.76,-172.072,-23.793
-1.73,-169.054,-23.335
-1.69,-166.246,-22.865
-1.66,-163.684,-22.35
-1.63,-160.982,-21.788
-1.59,-157.964,-21.273
-1.56,-155.296,-21.044
-1.53,-153.015,-20.712
-1.5,-150.523,-20.047
-1.46,-147.224,-19.6
-1.43,-143.961,-19.234
-1.4,-140.627,-18.329
-1.37,-137.257,-17.951
-1.33,-135.257,-17.985
-1.3,-134.029,-17.756
-1.27,-131.747,-17.08
-1.24,-127.536,-16.21
-1.2,-123.254,-15.683
-1.17,-119.991,-15.087
-1.14,-117.043,-14.434
-1.11,-113.779,-13.77
-1.07,-109.918,-13.22
-1.04,-106.093,-12.819
-1.01,-102.759,-12.441
-0.98,-99.565,-11.983
-0.94,-96.442,-11.49
-0.91,-93.143,-10.906
-0.88,-89.703,-10.356
-0.85,-86.65,-9.783
-0.81,-83.386,-9.245
-0.78,-79.771,-8.763
-0.75,-76.051,-8.305
-0.72,-72.577,-7.881
-0.68,-69.383,-7.458
-0.65,-66.014,-6.919
-0.62,-62.505,-6.507
-0.59,-59.346,-6.175
-0.55,-56.468,-5.762
-0.52,-53.415,-5.292
-0.49,-49.905,-4.892
-0.46,-46.326,-4.536
-0.42,-43.062,-4.009
-0.39,-39.938,-3.425
-0.36,-36.639,-3.001
-0.33,-33.13,-2.52
-0.29,-28.883,-1.993
-0.26,-24.532,-1.661
-0.23,-20.741,-1.455
-0.2,-17.302,-1.237
-0.16,-13.477,-1.02
-0.13,-9.37,-0.722
-0.1,-4.913,-0.481
-0.07,-0.912,-0.458
-0.03,0.386,0.16
0.0,0.491,1.386
0.03,1.72,2.715
0.07,5.756,3.517
0.1,10.248,4.227
0.13,14.178,5.212
0.16,18.039,6.037
0.2,22.285,6.278
0.23,26.251,6.438
0.26,29.55,6.759
0.29,32.463,7.022
0.33,35.376,7.16
0.36,38.394,7.492
0.39,42.114,8.156
0.42,46.255,8.649
0.46,50.011,9.084
0.49,53.59,9.588
0.52,57.275,10.115
0.55,60.785,10.585
0.59,64.259,11.032
0.62,67.769,11.444
0.65,71.208,11.788
0.68,74.156,12.143
0.72,76.894,12.475
0.75,80.193,12.784
0.78,83.807,13.231
0.81,87.457,13.621
0.85,90.651,13.987
0.88,93.529,14.354
0.91,96.512,14.675
0.94,99.67,14.972
0.98,102.899,15.408
1.01,105.988,15.969
1.04,109.392,16.542
1.07,113.182,17.0
1.11,116.727,17.47
1.14,120.026,17.836
1.17,122.903,18.134
1.2,125.781,18.673
1.24,129.15,19.177
1.27,132.66,19.646
1.3,136.029,19.99
1.33,139.398,20.677
1.37,143.013,21.319
1.4,145.821,21.536
1.43,148.172,21.937
1.46,150.874,22.166
1.5,153.682,22.545
1.53,156.911,23.037
1.56,159.964,23.427
1.59,162.456,23.747
1.63,165.053,24.171
1.66,167.966,24.549
1.69,170.773,24.778
1.73,173.405,24.985
1.76,175.967,25.282
1.79,178.494,25.775
1.82,181.302,26.302
1.86,184.25,26.783
1.89,187.128,27.184
1.92,189.865,27.505
1.95,192.041,27.562
1.99,193.269,27.39
2.02,194.884,27.974
2.05,198.253,28.536
2.08,201.236,28.513
2.12,202.148,28.559
2.15,202.85,29.097
2.18,205.237,29.338
2.21,207.343,29.12
2.25,208.501,29.235
2.28,209.729,29.762
2.31,211.905,30.231
2.34,214.853,30.644
2.38,217.345,31.216
2.41,219.696,31.778
2.44,221.696,31.984
2.47,223.451,32.076
2.51,225.768,32.419
2.54,227.557,32.305
2.57,227.592,32.465
2.6,227.979,33.049
2.64,230.154,33.553
2.67,232.962,33.954
2.7,235.033,34.218
2.73,235.805,34.309
2.77,236.542,34.504
2.8,238.437,34.882
2.83,240.964,35.237
2.86,242.999,35.638
2.9,244.754,36.074
2.93,246.93,36.394
2.96,249.387,36.532
2.99,251.106,36.417
3.03,251.703,36.44
3.06,252.65,36.749
3.09,254.932,37.047
3.12,257.072,37.311
3.16,258.582,37.689
3.19,259.95,38.021
3.22,261.354,38.158
3.25,262.442,38.078
3.29,263.354,38.078
3.32,264.478,38.284
3.35,265.916,38.456
3.39,267.145,38.456
3.42,267.917,38.697
3.45,269.286,39.086
3.48,271.216,39.121
3.52,272.339,39.144
3.55,272.795,39.579
3.58,272.269,40.312
3.61,272.093,41.034
3.65,273.392,41.481
3.68,275.252,41.492
3.71,276.34,41.618
3.74,277.217,42.03
3.78,278.445,42.214
3.81,279.568,42.122
3.84,279.709,42.179
3.87,280.095,42.34
3.91,281.078,42.328
3.94,281.99,42.443
3.97,282.692,42.512
4.0,283.078,42.592
4.04,283.78,42.626
4.07,284.271,42.512
4.1,284.166,42.512
4.13,284.061,42.672
4.17,284.622,42.683
4.2,285.149,42.454
4.23,285.184,42.271
4.26,285.289,42.248
4.3,285.324,42.065
4.33,285.078,42.156
4.36,285.114,42.065
4.39,284.236,41.423
4.43,283.499,41.595
4.46,284.552,42.156
4.49,284.587,41.366
4.52,281.639,40.862
4.56,279.288,40.942
4.59,278.902,40.461
4.62,277.287,40.037
4.65,274.62,40.209
4.69,273.041,40.61
4.72,272.795,40.644
4.75,272.128,40.621
4.78,270.9,40.656
4.82,269.601,40.518
4.85,268.513,40.243
4.88,267.636,39.957
4.91,266.653,39.808
4.95,265.846,39.808
4.98,264.969,39.693
5.01,263.741,39.579
5.05,262.231,39.384
5.08,260.933,39.063
5.11,259.564,38.72
5.14,258.055,38.422
5.18,256.897,38.319
5.21,255.949,38.055
5.24,254.44,37.712
5.27,252.51,37.528
5.31,251.036,37.253
5.34,249.387,36.497
5.37,246.754,35.89
5.4,244.894,35.993
5.44,244.263,35.684
5.47,242.613,35.054
5.5,239.735,34.745
5.53,237.91,34.974
5.57,238.472,35.375
5.6,238.998,35.329
5.63,237.244,35.191
5.66,234.576,35.26
5.7,233.418,35.1
5.73,232.787,34.607
5.76,231.313,34.206
5.79,228.961,33.817
5.83,226.118,33.278
5.86,223.521,32.797
5.89,221.556,32.431
5.92,219.345,31.675
5.96,215.555,30.712
5.99,211.835,30.414
6.02,210.712,30.552
6.05,210.326,30.22
6.09,207.623,29.544
6.12,204.359,29.647
6.15,203.693,30.323
6.18,204.324,29.922
6.22,202.85,29.487
6.25,200.183,29.601
6.28,198.253,29.212
6.31,196.288,28.398
6.35,193.726,27.722
6.38,190.953,27.024
6.41,188.005,26.313
6.44,184.917,25.729
6.48,181.863,25.202
6.51,179.196,24.79
6.54,176.985,24.332
6.57,173.827,23.598
6.61,169.51,22.751
6.64,165.509,22.35
6.67,162.842,22.029
6.71,160.175,21.319
6.74,156.77,20.838
6.77,153.963,20.792
6.8,152.313,20.62
6.84,149.997,19.956
6.87,146.347,19.314
6.9,142.592,19.096
6.93,140.276,18.925
6.97,138.486,18.375
7.0,135.889,17.733
7.03,132.695,17.332
7.06,129.817,17.011
7.1,127.045,16.29
7.13,123.36,15.385
7.16,119.148,14.789
7.19,115.253,14.411
7.23,112.305,13.93
7.26,109.392,13.449
7.29,106.444,13.128
7.32,103.32,12.681
7.36,99.565,11.925
7.39,95.108,11.043
7.42,90.721,10.402
7.45,86.931,9.886
7.49,83.456,9.336
7.52,79.912,8.798
7.55,76.157,8.706
7.58,73.244,8.58
7.62,70.892,8.053
7.65,67.944,7.389
7.68,64.435,6.885
7.71,60.89,6.392
7.75,57.486,5.842
7.78,54.152,5.396
7.81,51.204,5.235
7.84,48.782,4.96
7.88,45.975,4.33
7.91,41.869,3.608
7.94,37.517,3.173
7.97,33.551,2.818
8.01,29.831,2.36
8.04,25.865,1.993
8.07,22.285,1.925
8.1,19.022,1.684
8.14,15.266,1.214
8.17,10.844,0.768
8.2,6.528,0.619
8.23,2.071,0.768
8.27,0.07,0.538
8.3,-0.351,-0.47
8.33,-0.351,-1.546
8.37,-1.649,-2.692
8.4,-6.352,-4.032
8.43,-12.704,-5.292
8.46,-16.951,-5.212
8.5,-18.109,-5.292
8.53,-21.092,-6.484
8.56,-25.865,-6.495
8.59,-29.41,-6.381
8.63,-32.568,-7.068
8.66,-36.71,-7.503
8.69,-40.57,-7.515
8.72,-43.764,-7.847
8.76,-46.922,-8.363
8.79,-50.116,-8.5
8.82,-52.713,-8.741
8.85,-55.24,-9.256
8.89,-58.749,-9.806
8.92,-62.68,-10.127
8.95,-65.944,-10.654
8.98,-69.067,-11.295
9.02,-72.612,-11.719
9.05,-76.016,-11.994
9.08,-79.14,-12.464
9.11,-82.684,-12.979
9.15,-86.44,-13.46
9.18,-89.809,-13.896
9.21,-92.722,-14.4
9.24,-95.845,-14.881
9.28,-99.319,-15.282
9.31,-102.829,-15.648
9.34,-105.882,-16.095
9.37,-108.865,-16.633
9.41,-112.375,-17.149
9.44,-116.13,-17.573
9.47,-119.359,-17.802
9.5,-122.026,-18.111
9.54,-124.728,-18.524
9.57,-127.571,-18.902
9.6,-130.659,-19.36
9.63,-134.274,-19.841
9.67,-137.994,-20.368
9.7,-141.258,-20.895
9.73,-144.206,-21.273
9.76,-147.365,-21.697
9.8,-150.699,-22.235
9.83,-153.998,-22.579
9.86,-156.981,-22.831
9.89,-159.894,-23.232
9.93,-163.087,-23.656
9.96,-166.211,-23.942
9.99,-168.527,-24.206
10.03,-170.844,-24.618
10.06,-173.441,-24.973
10.09,-176.108,-25.214
10.12,-178.951,-25.523
10.16,-182.039,-26.016
10.19,-184.987,-26.405
10.22,-187.268,-26.634
10.25,-188.953,-26.772
10.29,-190.813,-26.955
10.32,-193.024,-27.069
10.35,-195.024,-27.195
10.38,-196.428,-27.528
10.42,-198.148,-28.066
10.45,-200.604,-28.41
10.48,-202.605,-28.627
10.51,-203.938,-28.914
10.55,-205.623,-29.177
10.58,-207.693,-29.269
10.61,-209.799,-29.498
10.64,-211.905,-29.899
10.68,-213.976,-30.346
10.71,-215.836,-30.804
10.74,-217.345,-31.4
10.77,-219.275,-31.824
10.81,-221.346,-32.041
10.84,-223.1,-32.167
10.87,-224.715,-32.545
10.9,-226.926,-32.981
10.94,-229.312,-33.255
10.97,-231.137,-33.656
11.0,-233.208,-34.172
11.03,-235.559,-34.401
11.07,-237.77,-34.596
11.1,-239.7,-34.825
11.13,-241.174,-34.939
11.16,-242.648,-35.249
11.2,-244.473,-35.684
11.23,-246.86,-35.959
11.26,-248.965,-36.039
11.29,-250.615,-36.154
11.33,-251.913,-36.085
11.36,-252.721,-36.074
11.39,-253.949,-36.28
11.42,-255.598,-36.463
11.46,-257.108,-36.555
11.49,-258.371,-36.715
11.52,-259.459,-36.91
11.55,-260.336,-36.933
11.59,-259.74,-37.173
11.62,-259.178,-37.792
11.65,-260.406,-38.284
11.69,-262.547,-38.64
11.72,-264.091,-39.304
11.75,-265.25,-39.911
11.78,-266.724,-40.289
11.82,-268.654,-40.312
11.85,-270.268,-40.358
11.88,-271.181,-40.564
11.91,-272.479,-40.839
11.95,-274.164,-40.816
11.98,-275.743,-40.782
12.01,-276.726,-41.011
12.04,-277.744,-41.492
12.08,-278.656,-41.526
12.11,-279.147,-41.755
12.14,-280.165,-41.721
12.17,-280.411,-41.148
12.21,-280.2,-41.148
12.24,-281.007,-41.435
12.27,-282.376,-41.217
12.3,-282.587,-41.045
12.34,-282.411,-41.412
12.37,-283.113,-41.458
12.4,-283.78,-41.114
12.43,-283.324,-41.034
12.47,-283.078,-41.32
12.5,-284.131,-41.423
12.53,-284.868,-41.366
12.56,-284.271,-41.71
12.6,-282.903,-42.363
12.63,-282.341,-42.752
12.66,-282.867,-42.615
12.69,-283.183,-42.328
12.73,-282.903,-42.328
12.76,-282.692,-42.466
12.79,-282.903,-42.351
12.82,-282.657,-42.191
12.86,-281.885,-42.088
12.89,-280.867,-41.767
12.92,-279.533,-41.343
12.95,-278.34,-41.034
12.99,-277.252,-40.999
13.02,-276.761,-41.022
13.05,-276.48,-40.873
13.08,-275.462,-40.69
13.12,-273.602,-40.553
13.15,-272.234,-40.117
13.18,-271.075,-39.441
13.21,-269.496,-39.144
13.25,-268.233,-39.132
13.28,-267.18,-39.075
13.31,-265.952,-38.995
13.35,-264.548,-38.983
13.38,-263.6,-38.788
13.41,-262.688,-38.147
13.44,-260.828,-37.528
13.48,-258.827,-37.265
13.51,-257.213,-37.07
13.54,-255.634,-36.91
13.57,-254.054,-36.83
13.61,-252.089,-36.91
13.64,-250.229,-36.91
13.67,-248.193,-36.566
13.7,-246.017,-36.36
13.74,-244.649,-36.394
13.77,-244.122,-36.268
13.8,-242.929,-36.016
13.83,-241.385,-35.799
13.87,-239.455,-35.466
13.9,-237.524,-35.111
13.93,-235.068,-34.367
13.96,-232.436,-33.92
14.0,-231.067,-33.84
14.03,-230.014,-33.439
14.06,-227.557,-32.958
14.09,-224.609,-32.855
14.13,-223.241,-33.003
14.16,-223.065,-32.557
14.19,-221.17,-31.824
14.22,-217.625,-31.571
14.26,-215.274,-31.457
14.29,-214.432,-30.884
14.32,-213.098,-30.414
14.35,-211.063,-30.231
14.39,-208.711,-29.979
14.42,-206.219,-29.613
14.45,-204.114,-29.097
14.48,-202.008,-28.593
14.52,-199.902,-28.238
14.55,-197.972,-27.883
14.58,-195.972,-27.551
14.61,-193.796,-27.321
14.65,-191.585,-27.069
14.68,-189.198,-26.68
14.71,-186.777,-26.176
14.74,-184.32,-25.706
14.78,-181.793,-25.248
14.81,-179.231,-24.87
14.84,-176.915,-24.664
14.87,-174.879,-24.423
14.91,-172.493,-24.022
14.94,-169.475,-23.598
14.97,-166.737,-23.175
15.01,-164.281,-22.636
15.04,-161.754,-22.052
15.07,-159.016,-21.422
15.1,-156.595,-21.204
15.14,-154.454,-20.735
15.17,-151.085,-19.818
15.2,-147.084,-19.406
15.23,-143.996,-19.005
15.27,-141.679,-18.489
15.3,-139.012,-17.779
15.33,-135.046,-17.206
15.36,-131.326,-16.966
15.4,-128.799,-16.645
15.43,-126.588,-16.129
15.46,-123.851,-15.648
15.49,-120.622,-15.167
15.53,-117.148,-14.629
15.56,-113.638,-14.159
15.59,-110.725,-13.77
15.62,-108.234,-13.357
15.66,-105.356,-12.83
15.69,-102.197,-12.223
15.72,-98.758,-11.559
15.75,-95.073,-10.791
15.79,-91.107,-9.978
15.82,-87.071,-9.199
15.85,-82.895,-8.649
15.88,-78.824,-8.259
15.92,-75.139,-7.87
15.95,-71.7,-7.549
15.98,-68.401,-7.309
16.01,-65.312,-6.885
16.05,-62.189,-6.415
16.08,-59.135,-6.129
16.11,-56.363,-5.762
16.14,-53.555,-5.189
16.18,-50.397,-4.651
16.21,-47.028,-4.284
16.24,-43.869,-3.975
16.27,-40.781,-3.528
16.31,-37.341,-3.013
16.34,-33.586,-2.52
16.37,-29.62,-2.073
16.4,-25.69,-1.638
16.44,-21.513,-1.26
16.47,-17.337,-0.985
16.5,-13.231,-0.768
16.53,-9.055,-0.493
16.57,-4.317,-0.378
16.6,-0.632,-0.389
16.63,0.351,0.16
16.67,0.491,1.329
16.7,1.72,2.555
16.73,5.721,3.379
16.76,10.178,4.078
16.8,13.898,4.949
16.83,17.442,5.716
16.86,21.689,6.083
16.89,25.655,6.255
16.93,29.199,6.484
16.96,32.568,6.679
16.99,35.797,6.908
17.02,39.061,7.354
17.06,42.746,7.893
17.09,46.396,8.385
17.12,49.87,8.867
17.15,53.239,9.382
17.19,56.749,9.943
17.22,60.329,10.493
17.25,64.049,11.009
17.28,67.734,11.421
17.32,71.349,11.811
17.35,74.648,12.166
17.38,77.666,12.441
17.41,80.438,12.865
17.45,83.772,13.357
17.48,87.106,13.77
17.51,90.089,14.285
17.54,92.967,14.732
17.58,96.161,15.156
17.61,99.67,15.499
17.64,103.426,15.854
17.67,107.04,16.221
17.71,110.585,16.645
17.74,113.884,17.023
17.77,117.043,17.447
17.8,120.096,17.756
17.84,122.868,18.077
17.87,125.465,18.432
17.9,128.519,19.131
17.93,131.853,19.429
17.97,134.52,19.818
18.0,137.749,20.666
18.03,141.609,21.17
18.06,145.224,21.491
18.1,148.488,21.972
18.13,151.787,22.384
18.16,154.875,22.625
18.19,157.718,22.968
18.23,160.526,23.358
18.26,163.403,23.77
18.29,166.422,24.068
18.33,169.124,24.343
18.36,171.335,24.652
18.39,173.546,24.939
18.42,175.967,25.202
18.46,178.635,25.649
18.49,181.548,26.164
18.52,184.39,26.634
18.55,186.882,27.024
18.59,189.163,27.413
18.62,191.269,27.711
18.65,193.304,27.917
18.68,195.305,28.112
18.72,197.621,28.467
18.75,200.043,28.799
18.78,202.184,29.097
18.81,204.044,29.418
18.85,206.079,29.739
18.88,207.693,29.762
18.91,208.852,29.876
18.94,210.536,30.162
18.98,212.958,30.552
19.01,215.379,30.987
19.04,217.625,31.445
19.07,219.907,31.743
19.11,222.047,31.915
19.14,222.995,31.732
19.17,223.311,31.766
19.2,225.241,32.557
19.24,228.365,32.809
19.27,230.365,32.728
19.3,231.102,33.072
19.33,232.365,33.313
19.37,234.576,33.588
19.4,236.963,33.668
19.43,238.051,33.92
19.46,238.858,34.264
19.5,240.508,34.527
19.53,242.754,34.859
19.56,244.473,35.191
19.59,244.859,35.764
19.63,245.667,36.543
19.66,247.948,36.875
19.69,250.334,37.173
19.72,252.194,37.78
19.76,253.914,38.25
19.79,255.458,38.536
19.82,257.669,38.926
19.85,260.371,39.132
19.89,262.126,39.167
19.92,262.653,39.144
19.95,263.39,39.178
19.99,265.285,39.189
20.02,266.934,39.075
20.05,267.636,39.224
20.08,268.549,39.625
20.12,269.987,39.808
20.15,271.286,39.923
20.18,272.234,40.003
20.21,272.971,40.129
20.25,274.023,40.152
20.28,275.111,40.129
20.31,275.954,40.335
20.34,276.901,40.736
20.38,278.094,40.873
20.41,278.937,40.919
20.44,279.393,41.057
20.47,279.884,41.148
20.51,280.446,40.839
20.54,280.692,40.759
20.57,281.499,40.919
20.6,282.832,40.862
20.64,283.148,40.885
20.67,283.253,41.355
20.7,282.832,41.607
20.73,281.85,41.985
20.77,281.429,42.248
20.8,281.815,42.214
20.83,282.271,42.305
20.86,282.832,43.016
20.9,283.429,42.878
20.93,282.446,42.546
20.96,281.604,42.66
20.99,282.481,42.878
21.03,283.885,42.706
21.06,283.148,42.351
21.09,281.709,42.615
21.12,282.095,42.672
21.16,282.973,42.282
21.19,282.13,41.881
21.22,280.235,41.721
21.25,279.253,41.355
21.29,278.726,40.793
21.32,277.744,40.472
21.35,276.866,40.427
21.38,275.708,40.335
21.42,274.059,40.209
21.45,272.62,40.014
21.48,271.532,39.625
21.51,270.093,39.247
21.55,268.478,39.018
21.58,266.724,38.857
21.61,265.039,38.983
21.65,263.881,39.132
21.68,263.039,39.109
21.71,261.845,39.041
21.74,260.231,38.8
21.78,258.406,38.399
21.81,256.792,38.021
21.84,255.493,37.746
21.87,254.23,37.402
21.91,252.545,37.127
21.94,250.826,37.139
21.97,249.597,36.933
22.0,248.193,36.578
22.04,246.544,36.509
22.07,244.93,36.28
22.1,243.456,36.085
22.13,242.929,36.222
22.17,242.543,36.085
22.2,240.788,35.673
22.23,238.051,35.421
22.26,235.945,34.836
22.3,234.085,33.977
22.33,231.453,33.496
22.36,228.961,33.233
22.39,227.066,32.774
22.43,225.522,32.511
22.46,223.978,32.499
22.49,222.398,32.328
22.52,219.977,31.766
22.56,217.45,31.423
22.59,215.906,31.297
22.62,214.432,31.033
22.65,211.94,30.667
22.69,208.922,30.472
22.72,206.886,30.323
22.75,205.482,29.933
22.78,203.166,29.177
22.82,199.481,28.524
22.85,196.252,28.02
22.88,193.55,27.39
22.91,191.234,26.898
22.95,189.093,26.669
22.98,187.128,26.634
23.01,185.654,26.474
23.04,183.864,26.222
23.08,181.653,26.073
23.11,179.898,25.901
23.14,178.564,25.569
23.17,177.02,25.328
23.21,174.95,25.065
23.24,172.598,24.71
23.27,170.528,24.274
23.3,168.527,23.747
23.34,166.141,23.209
23.37,163.123,22.476
23.4,159.367,21.628
23.44,155.963,21.204
23.47,153.401,20.597
23.5,150.699,20.15
23.53,147.681,19.715
23.57,144.768,19.348
23.6,142.276,18.913
23.63,139.328,18.168
23.66,135.783,17.619
23.7,132.063,16.966
23.73,128.905,16.611
23.76,126.308,16.152
23.79,123.465,15.625
23.83,120.201,15.167
23.86,117.043,14.801
23.89,113.884,14.308
23.92,110.55,13.678
23.96,107.426,13.243
23.99,104.373,12.739
24.02,100.618,11.971
24.05,96.231,11.215
24.09,91.949,10.642
24.12,88.3,10.15
24.15,85.176,9.6
24.18,82.053,9.073
24.22,78.508,8.66
24.25,75.104,8.294
24.28,72.191,7.973
24.31,69.559,7.71
24.35,66.716,7.263
24.38,63.557,6.701
24.41,60.153,6.266
24.44,56.96,5.888
24.48,53.661,5.35
24.51,50.116,4.869
24.54,46.747,4.559
24.57,43.623,4.113
24.61,40.43,3.574
24.64,36.815,3.116
24.67,33.235,2.738
24.7,29.655,2.245
24.74,25.97,1.764
24.77,22.11,1.443
24.8,18.214,1.283
24.83,14.424,1.077
24.87,10.423,0.813
24.9,6.317,0.653
24.93,1.93,0.584
24.96,-0.105,0.103
25.0,-0.386,-1.123
25.03,-1.088,-2.463
25.06,-4.422,-3.311
25.1,-8.984,-4.055
25.13,-13.126,-5.052
25.16,-16.67,-5.831
25.19,-20.566,-6.186
25.23,-24.567,-6.461
25.26,-28.638,-6.828
25.29,-32.603,-7.08
25.32,-36.148,-7.309
25.36,-39.728,-7.801
25.39,-43.448,-8.294
25.42,-47.133,-8.741
25.45,-50.748,-9.313
25.49,-54.713,-9.852
25.52,-58.434,-10.299
25.55,-61.908,-10.78
25.58,-65.733,-11.226
25.62,-69.699,-11.421
25.65,-72.963,-11.57
25.68,-75.665,-11.834
25.71,-78.192,-12.097
25.75,-81.245,-12.647
25.78,-85.001,-13.197
25.81,-88.58,-13.369
25.84,-91.177,-13.747
25.88,-93.739,-14.159
25.91,-96.477,-14.491
25.94,-99.46,-14.927
25.97,-102.724,-15.454
26.01,-105.952,-15.912
26.04,-108.936,-16.427
26.07,-112.129,-16.989
26.1,-115.99,-17.584
26.14,-119.534,-17.859
26.17,-122.342,-18.26
26.2,-124.834,-18.604
26.23,-128.343,-19.291
26.27,-132.625,-19.726
26.3,-136.205,-20.265
26.33,-139.012,-20.815
26.36,-141.679,-21.113
26.4,-145.013,-21.525
26.43,-148.558,-21.903
26.46,-151.822,-22.35
26.49,-154.419,-22.785
26.53,-157.016,-23.232
26.56,-160.175,-23.598
26.59,-163.614,-24.011
26.62,-166.948,-24.538
26.66,-169.685,-24.847
26.69,-171.651,-24.927
26.72,-173.756,-25.237
26.76,-176.634,-25.557
26.79,-179.547,-25.809
26.82,-182.249,-26.245
26.85,-185.022,-26.714
26.89,-187.759,-27.115
26.92,-190.005,-27.356
26.95,-191.795,-27.493
26.98,-193.375,-27.78
27.02,-195.445,-27.963
27.05,-197.621,-28.055
27.08,-199.586,-28.421
27.11,-201.552,-28.834
27.15,-203.377,-29.166
27.18,-204.851,-29.338
27.21,-206.465,-29.372
27.24,-208.395,-29.464
27.28,-210.255,-29.647
27.31,-211.835,-29.83
27.34,-213.344,-30.174
27.37,-215.169,-30.655
27.41,-217.485,-31.09
27.44,-219.942,-31.319
27.47,-221.837,-31.514
27.5,-223.241,-31.835
27.54,-224.855,-32.064
27.57,-226.154,-32.328
27.6,-226.891,-32.981
27.63,-228.856,-33.748
27.67,-231.804,-34.16
27.7,-234.366,-34.642
27.73,-236.015,-35.237
27.76,-237.279,-35.558
27.8,-239.069,-35.695
27.83,-241.35,-35.833
27.86,-243.42,-35.982
27.89,-245.0,-36.119
27.93,-246.474,-36.291
27.96,-248.193,-36.417
27.99,-249.738,-36.463
28.02,-250.931,-36.646
28.06,-252.615,-36.784
28.09,-254.124,-36.83
28.12,-255.072,-37.116
28.15,-256.335,-37.631
28.19,-258.722,-37.918
28.22,-260.477,-38.055
28.25,-261.459,-38.284
28.28,-262.337,-38.525
28.32,-263.67,-38.674
28.35,-265.39,-38.788
28.38,-266.373,-38.857
28.42,-266.969,-39.098
28.45,-268.268,-39.293
28.48,-269.847,-39.247
28.51,-271.04,-39.327
28.55,-271.883,-39.682
28.58,-273.076,-39.911
28.61,-273.427,-40.198
28.64,-273.111,-41.137
28.68,-273.953,-41.813
28.71,-275.287,-41.904
28.74,-276.199,-41.973
28.77,-276.936,-42.294
28.81,-278.2,-42.328
28.84,-279.358,-42.111
28.87,-279.639,-42.145
28.9,-280.305,-42.786
28.94,-282.06,-42.821
28.97,-282.867,-42.397
29.0,-282.587,-42.466
29.03,-283.534,-42.958
29.07,-285.289,-42.512
29.1,-284.763,-42.042
29.13,-283.815,-42.523
29.16,-284.973,-42.993
29.2,-286.623,-42.592
29.23,-286.447,-42.214
29.26,-285.219,-42.5
29.29,-284.798,-42.374
29.33,-284.868,-41.87
29.36,-284.096,-41.481
29.39,-283.008,-41.481
29.42,-282.341,-41.503
29.46,-282.201,-41.492
29.49,-282.095,-41.412
29.52,-281.955,-41.229
29.55,-280.762,-40.873
29.59,-278.726,-40.541
29.62,-276.375,-40.45
29.65,-274.866,-40.518
29.68,-274.199,-40.621
29.72,-273.392,-40.782
29.75,-272.444,-40.828
29.78,-271.321,-40.713
29.81,-269.882,-40.53
29.85,-268.478,-40.324
29.88,-267.39,-40.06
29.91,-266.794,-39.831
29.94,-266.302,-39.728
29.98,-265.53,-39.556
30.01,-263.986,-39.338
30.04,-262.337,-39.258
30.08,-261.284,-38.995
30.11,-259.845,-38.514
30.14,-257.529,-38.181
30.17,-255.704,-38.021
30.21,-254.756,-37.746
30.24,-253.668,-37.414
30.27,-251.949,-37.299
30.3,-250.194,-37.047
30.34,-247.842,-36.44
30.37,-245.737,-35.913
30.4,-244.368,-35.638
30.43,-242.964,-35.329
30.47,-241.069,-35.077
30.5,-238.928,-34.825
30.53,-236.682,-34.286
30.56,-234.787,-34.08
30.6,-233.559,-33.943
30.63,-231.909,-33.645
30.66,-229.488,-33.45
30.69,-227.171,-33.542
30.73,-225.978,-33.462
30.76,-225.171,-33.278
30.79,-224.083,-33.187
30.82,-222.644,-33.095
30.86,-220.398,-32.557
30.89,-217.52,-31.972
30.92,-215.204,-31.594
30.95,-213.73,-31.274
30.99,-212.151,-30.873
31.02,-209.904,-30.46
31.05,-207.623,-30.3
31.08,-206.044,-30.105
31.12,-204.289,-29.532
31.15,-201.657,-28.983
31.18,-198.709,-28.742
31.21,-196.428,-28.478
31.25,-194.884,-28.123
31.28,-193.199,-27.837
31.31,-191.129,-27.539
31.34,-188.707,-27.138
31.38,-186.25,-26.657
31.41,-183.653,-26.233
31.44,-181.302,-25.786
31.47,-178.845,-25.351
31.51,-176.81,-25.076
31.54,-174.915,-24.801
31.57,-172.458,-24.32
31.6,-169.37,-23.805
31.64,-166.457,-23.369
31.67,-163.895,-22.911
31.7,-161.333,-22.327
31.74,-158.385,-21.777
31.77,-155.682,-21.628
31.8,-153.857,-21.239
31.83,-150.523,-19.978
31.87,-146.207,-19.784
31.9,-143.399,-19.589
31.93,-141.504,-19.073
31.96,-139.328,-18.707
32.0,-136.345,-18.168
32.03,-132.941,-17.813
32.06,-130.098,-17.447
32.09,-128.027,-17.149
32.13,-126.027,-16.633
32.16,-122.868,-15.854
32.19,-118.587,-15.156
32.22,-114.375,-14.629
32.26,-110.866,-14.09
32.29,-107.953,-13.598
32.32,-105.145,-13.025
32.35,-101.355,-12.361
32.39,-97.179,-11.73
32.42,-93.353,-11.032
32.45,-89.493,-10.321
32.48,-85.703,-9.691
32.52,-81.772,-9.176
32.55,-78.087,-8.855
32.58,-74.893,-8.466
32.61,-71.945,-7.95
32.65,-68.962,-7.469
32.68,-65.698,-6.999
32.71,-61.943,-6.53
32.74,-58.258,-6.186
32.78,-55.24,-5.865
32.81,-52.467,-5.476
32.84,-49.519,-5.029
32.87,-46.291,-4.536
32.91,-42.606,-4.067
32.94,-38.71,-3.551
32.97,-34.955,-3.024
33.0,-31.27,-2.658
33.04,-27.655,-2.429
33.07,-24.356,-2.131
33.1,-21.057,-1.844
33.13,-18.039,-1.925
33.17,-15.126,-1.661
33.2,-11.406,-1.191
33.23,-6.773,-0.596
33.26,-1.965,-0.504
33.3,0.211,-0.16
33.33,0.491,0.985
33.36,1.018,2.325
33.4,4.352,3.402
33.43,9.3,4.193
33.46,13.933,5.235
33.49,17.969,6.083
33.53,21.935,6.484
33.56,26.041,6.747
33.59,30.147,7.148
33.62,34.253,7.4
33.66,37.973,7.538
33.69,41.026,7.778
33.72,44.044,8.076
33.75,46.992,8.305
33.79,50.081,8.867
33.82,54.152,9.531
33.85,58.363,9.886
33.88,61.838,10.253
33.92,64.926,10.78
33.95,68.33,11.135
33.98,71.208,11.364
34.01,73.805,11.685
34.05,76.578,12.005
34.08,79.456,12.349
34.11,82.614,12.865
34.14,85.878,13.38
34.18,89.177,13.907
34.21,92.406,14.4
34.24,95.67,14.823
34.27,98.933,15.293
34.31,102.267,15.82
34.34,105.812,16.37
34.37,109.497,16.954
34.4,113.042,17.458
34.44,116.692,17.905
34.47,119.991,18.272
34.5,122.552,18.615
34.53,125.009,19.119
34.57,128.238,19.841
34.6,132.695,20.391
34.63,137.222,20.746
34.66,140.837,21.216
34.7,144.347,21.766
34.73,147.084,21.766
34.76,149.611,22.201
34.79,152.594,22.407
34.83,155.226,22.487
34.86,157.683,22.819
34.89,159.859,23.129
34.92,162.175,23.736
34.96,165.053,24.068
34.99,167.615,24.228
35.02,169.72,24.549
35.06,171.967,24.87
35.09,174.388,25.156
35.12,177.02,25.638
35.15,180.389,26.21
35.19,183.548,26.714
35.22,185.97,27.218
35.25,188.637,27.688
35.28,191.69,27.837
35.32,194.217,27.906
35.35,195.656,28.169
35.38,197.305,28.57
35.41,200.008,28.822
35.45,202.429,28.891
35.48,204.184,29.349
35.51,206.325,29.842
35.54,208.606,29.727
35.58,209.378,29.75
35.61,209.799,30.288
35.64,211.519,30.815
35.67,214.151,31.148
35.71,216.573,31.56
35.74,218.327,32.076
35.77,219.731,32.419
35.8,221.03,32.511
35.84,223.065,32.614
35.87,225.241,32.855
35.9,227.136,33.164
35.93,228.786,33.381
35.97,230.611,33.702
36.0,232.751,34.0
36.03,234.682,34.264
36.06,236.086,34.538
36.1,237.454,34.79
36.13,239.349,34.951
36.16,241.42,35.249
36.19,243.385,35.73
36.23,245.316,36.016
36.26,247.105,36.383
36.29,249.492,36.784
36.32,251.352,36.669
36.36,252.019,36.566
36.39,253.107,36.898
36.42,255.107,37.024
36.45,256.827,37.001
36.49,257.739,37.402
36.52,259.073,38.032
36.55,261.214,38.365
36.58,262.056,38.342
36.62,261.249,38.788
36.65,261.775,39.315
36.68,263.741,39.579
36.72,265.671,39.819
36.75,266.513,40.072
36.78,266.969,40.507
36.81,268.198,40.896
36.85,269.952,40.954
36.88,271.567,40.976
36.91,272.76,41.24
36.94,274.304,41.549
36.98,276.094,41.652
37.01,277.638,41.824
37.04,278.726,42.042
37.07,279.604,42.111
37.11,280.376,41.95
37.14,280.727,41.824
37.17,280.902,41.71
37.2,281.148,41.733
37.24,281.674,41.859
37.27,282.306,42.019
37.3,282.516,42.282
37.33,283.289,42.305
37.37,283.92,42.305
37.4,284.377,42.5
37.43,284.763,42.328
37.46,284.868,42.134
37.5,285.57,42.179
37.53,286.623,42.156
37.56,286.412,41.526
37.59,283.99,41.274
37.63,281.464,41.71
37.66,281.744,42.134
37.69,281.99,41.561
37.72,279.884,41.733
37.76,279.147,42.592
37.79,280.797,43.073
37.82,281.709,42.706
37.85,279.849,42.569
37.89,278.165,42.592
37.92,278.481,42.374
37.95,278.726,41.687
37.98,276.866,41.286
38.02,275.146,41.538
38.05,275.427,41.652
38.08,275.357,40.999
38.11,272.865,40.621
38.15,270.83,40.495
38.18,270.83,40.152
38.21,270.338,39.361
38.24,267.496,39.018
38.28,264.899,39.338
38.31,264.758,39.43
38.34,264.969,38.96
38.38,262.933,38.685
38.41,260.091,38.617
38.44,258.266,38.124
38.47,257.178,37.551
38.51,256.3,37.357
38.54,255.177,37.276
38.57,253.177,37.036
38.6,250.826,37.082
38.64,249.913,37.231
38.67,249.071,36.658
38.7,246.754,36.257
38.73,244.754,36.635
38.77,244.579,36.543
38.8,243.771,35.936
38.83,241.701,35.902
38.86,240.086,36.074
38.9,238.718,35.604
38.93,236.296,34.836
38.96,233.664,34.367
38.99,232.05,33.954
39.03,230.786,33.37
39.06,228.61,32.923
39.09,225.873,32.694
39.12,223.697,32.35
39.16,221.732,31.858
39.19,219.556,31.503
39.22,217.169,31.262
39.25,215.204,31.033
39.29,213.66,30.724
39.32,212.256,30.472
39.35,210.571,30.174
39.38,208.08,29.807
39.42,205.412,29.475
39.45,203.166,29.063
39.48,200.99,28.582
39.51,199.025,28.123
39.55,197.06,27.757
39.58,194.743,27.677
39.61,192.638,27.619
39.64,190.813,27.551
39.68,189.058,27.333
39.71,187.128,26.932
39.74,184.952,26.474
39.77,182.635,25.981
39.81,180.038,25.397
39.84,177.512,24.927
39.87,175.195,24.469
39.9,172.598,23.896
39.94,169.264,23.266
39.97,165.79,22.819
40.0,163.017,22.384
40.04,160.49,21.823
40.07,157.823,21.41
40.1,155.331,21.147
40.13,153.015,20.723
40.17,150.137,20.242
40.2,146.698,19.715
40.23,143.68,19.348
40.26,141.434,19.028
40.3,139.398,18.604
40.33,136.836,18.042
40.36,133.994,17.642
40.39,131.396,17.355
40.43,128.448,16.725
40.46,124.693,15.935
40.49,121.008,15.534
40.52,117.744,14.915
40.56,113.814,13.953
40.59,109.602,13.54
40.62,106.339,13.231
40.65,103.496,12.578
40.69,99.881,12.051
40.72,96.512,11.65
40.75,93.353,10.86
40.78,89.774,10.115
40.82,86.229,9.657
40.85,82.825,9.13
40.88,79.105,8.534
40.91,75.139,8.122
40.95,71.7,7.801
40.98,68.681,7.458
41.01,65.874,7.171
41.04,63.242,6.862
41.08,60.329,6.392
41.11,56.96,5.98
41.14,53.625,5.579
41.17,50.853,5.098
41.21,48.326,4.766
41.24,45.659,4.307
41.27,41.904,3.517
41.3,36.92,2.715
41.34,32.709,2.509
41.37,29.62,2.188
41.4,25.83,1.546
41.43,21.127,1.168
41.47,16.74,1.077
41.5,12.845,0.825
41.53,8.774,0.561
41.56,4.492,0.607
41.6,1.053,0.664
41.63,-0.175,0.126
41.66,-0.386,-0.985
41.7,-1.018,-2.257
41.73,-4.808,-3.517
41.76,-10.529,-4.513
41.79,-15.337,-5.235
41.83,-18.565,-5.877
41.86,-22.215,-6.369
41.89,-26.707,-6.61
41.92,-30.919,-6.816
41.96,-34.358,-7.034
41.99,-37.201,-7.217
42.02,-39.798,-7.503
42.05,-42.676,-7.824
42.09,-45.975,-8.122
42.12,-49.063,-8.477
42.15,-52.222,-9.107
42.18,-55.836,-9.749
42.22,-59.908,-10.207
42.25,-63.593,-10.654
42.28,-67.067,-11.158
42.31,-70.612,-11.65
42.35,-74.121,-12.154
42.38,-77.56,-12.67
42.41,-80.859,-13.071
42.44,-83.878,-13.54
42.48,-87.071,-14.056
42.51,-90.581,-14.537
42.54,-93.845,-15.018
42.57,-97.108,-15.373
42.61,-100.688,-15.545
42.64,-104.163,-15.832
42.67,-107.707,-16.267
42.7,-110.796,-16.622
42.74,-113.568,-17.126
42.77,-116.937,-17.722
42.8,-120.552,-18.077
42.83,-123.676,-18.421
42.87,-126.553,-19.016
42.9,-130.063,-19.578
42.93,-134.204,-20.15
42.96,-138.17,-20.654
43.0,-141.048,-21.078
43.03,-143.329,-21.227
43.06,-145.47,-21.273
43.09,-148.067,-21.525
43.13,-150.874,-21.754
43.16,-153.261,-22.052
43.19,-155.402,-22.625
43.22,-158.35,-23.232
43.26,-161.859,-23.667
43.29,-164.702,-24.045
43.32,-167.159,-24.538
43.36,-169.896,-24.973
43.39,-172.949,-25.271
43.42,-175.581,-25.706
43.45,-178.564,-26.371
43.49,-182.285,-26.863
43.52,-185.654,-27.127
43.55,-187.97,-27.333
43.58,-189.549,-27.619
43.62,-191.199,-27.837
43.65,-193.34,-27.929
43.68,-195.586,-28.066
43.71,-197.481,-28.375
43.75,-199.411,-28.765
43.78,-201.447,-28.948
43.81,-203.131,-29.028
43.84,-204.465,-29.246
43.88,-205.939,-29.498
43.91,-208.22,-29.59
43.94,-210.291,-29.727
43.97,-211.94,-30.174
44.01,-213.87,-30.758
44.04,-216.327,-31.216
44.07,-218.819,-31.652
44.1,-220.995,-32.121
44.14,-222.714,-32.385
44.17,-224.434,-32.488
44.2,-226.575,-32.717
44.23,-228.961,-32.992
44.27,-230.856,-33.359
44.3,-232.716,-33.656
44.33,-234.752,-33.851
44.36,-236.436,-33.886
44.4,-237.7,-33.817
44.43,-238.297,-33.794
44.46,-238.893,-34.069
44.49,-240.472,-34.286
44.53,-242.543,-34.516
44.56,-244.579,-34.951
44.59,-245.807,-35.707
44.62,-246.579,-36.429
44.66,-247.667,-36.818
44.69,-249.316,-37.219
44.72,-251.562,-37.757
44.75,-254.089,-38.147
44.79,-256.16,-38.433
44.82,-257.669,-38.788
44.85,-259.459,-39.018
44.88,-261.038,-38.995
44.92,-261.986,-38.995
44.95,-262.793,-39.018
44.98,-264.091,-39.052
45.02,-265.706,-39.063
45.05,-266.478,-39.247
45.08,-267.25,-39.625
45.11,-268.689,-39.671
45.15,-269.952,-39.625
45.18,-271.005,-39.774
45.21,-271.988,-39.911
45.24,-272.9,-40.014
45.28,-273.848,-40.209
45.31,-275.076,-40.507
45.34,-276.27,-40.816
45.37,-277.533,-41.045
45.41,-278.796,-40.999
45.44,-279.463,-40.999
45.47,-279.849,-41.183
45.5,-280.762,-40.999
45.54,-281.218,-40.805
45.57,-280.692,-41.549
45.6,-280.586,-42.294
45.63,-280.972,-42.603
45.67,-281.569,-42.534
45.7,-281.815,-42.557
45.73,-281.92,-42.695
45.76,-282.236,-42.786
45.8,-282.727,-42.89
45.83,-283.71,-43.061
45.86,-284.552,-43.038
45.89,-284.657,-43.199
45.93,-284.727,-43.279
45.96,-285.184,-43.268
45.99,-285.078,-43.004
46.02,-283.253,-42.134
46.06,-281.323,-42.019
46.09,-282.481,-42.225
46.12,-284.061,-41.813
46.15,-282.587,-41.4
46.19,-279.533,-41.549
46.22,-278.551,-41.4
46.25,-279.182,-40.724
46.28,-278.972,-40.301
46.32,-277.463,-40.369
46.35,-275.989,-40.392
46.38,-274.76,-40.266
46.41,-274.129,-40.232
46.45,-273.497,-39.968
46.48,-272.339,-39.441
46.51,-270.549,-38.995
46.54,-268.864,-38.708
46.58,-267.215,-38.571
46.61,-265.25,-38.708
46.64,-263.635,-38.949
46.68,-262.933,-39.086
46.71,-262.547,-38.914
46.74,-260.757,-38.594
46.77,-258.09,-38.307
46.81,-256.371,-38.09
46.84,-255.914,-37.792
46.87,-255.037,-37.517
46.9,-253.036,-37.357
46.94,-250.826,-37.402
46.97,-249.387,-37.357
47.0,-248.193,-36.83
47.03,-246.123,-36.36
47.07,-244.087,-36.326
47.1,-242.929,-36.165
47.13,-241.701,-35.764
47.16,-240.051,-35.489
47.2,-238.507,-35.352
47.23,-236.998,-34.917
47.26,-234.576,-34.332
47.29,-231.804,-34.034
47.33,-230.225,-33.931
47.36,-229.803,-33.668
47.39,-228.716,-33.255
47.42,-226.505,-32.935
47.46,-224.048,-32.82
47.49,-222.539,-32.522
47.52,-220.714,-31.812
47.55,-218.047,-31.274
47.59,-215.695,-30.919
47.62,-213.589,-30.632
47.65,-211.238,-30.437
47.68,-208.957,-30.357
47.72,-207.202,-30.14
47.75,-205.518,-29.83
47.78,-203.517,-29.372
47.81,-201.376,-28.937
47.85,-199.165,-28.593
47.88,-197.165,-28.284
47.91,-195.48,-27.986
47.94,-193.936,-27.642
47.98,-191.83,-27.287
48.01,-189.339,-26.863
48.04,-186.461,-26.382
48.07,-183.829,-26.016
48.11,-181.758,-25.5
48.14,-179.688,-24.973
48.17,-177.547,-24.641
48.2,-175.336,-24.332
48.24,-172.809,-23.793
48.27,-169.791,-23.266
48.3,-166.597,-22.785
48.34,-163.719,-22.35
48.37,-161.192,-21.788
48.4,-158.525,-21.376
48.43,-156.419,-21.147
48.47,-154.384,-20.792
48.5,-151.401,-20.15
48.53,-147.716,-19.704
48.56,-144.276,-19.131
48.6,-141.188,-18.558
48.63,-137.994,-17.859
48.66,-134.344,-17.39
48.69,-131.677,-17.424
48.73,-129.642,-16.931
48.76,-126.659,-16.324
48.79,-123.465,-16.221
48.82,-121.008,-15.9
48.86,-117.78,-14.881
48.89,-113.498,-14.102
48.92,-109.953,-13.598
48.95,-106.97,-13.059
48.99,-103.601,-12.487
49.02,-100.092,-12.12
49.05,-96.898,-11.708
49.08,-93.564,-11.055
49.12,-90.019,-10.39
49.15,-86.229,-9.806
49.18,-82.544,-9.245
49.21,-78.824,-8.809
49.25,-75.279,-8.431
49.28,-72.121,-8.019
49.31,-68.997,-7.572
49.34,-65.593,-7.137
49.38,-62.189,-6.656
49.41,-58.995,-6.152
49.44,-56.082,-5.739
49.47,-53.31,-5.396
49.51,-50.327,-4.926
49.54,-46.747,-4.422
49.57,-42.711,-3.975
49.6,-38.885,-3.471
49.64,-35.587,-3.059
49.67,-32.253,-2.6
49.7,-28.287,-2.199
49.73,-24.075,-1.844
49.77,-20.285,-1.604
49.8,-17.267,-1.535
49.83,-14.073,-1.306
49.86,-10.178,-0.871
49.9,-5.299,-0.389
49.93,-0.948,-0.378
49.96,0.281,0.115
50.0,0.491,1.237
50.03,1.439,2.509
50.06,5.229,3.414
50.09,9.827,4.067
50.13,13.652,4.972
50.16,17.372,5.762
50.19,21.584,6.197
50.22,25.76,6.667
50.26,30.006,7.171
50.29,33.867,7.458
50.32,37.236,7.687
50.35,40.746,8.133
50.39,44.817,8.626
50.42,48.396,8.844
50.45,51.169,9.084
50.48,53.906,9.497
50.52,56.854,9.898
50.55,60.013,10.31
50.58,63.382,10.768
50.61,67.207,11.123
50.65,70.963,11.478
50.68,74.402,11.845
50.71,77.525,12.2
50.74,80.684,12.658
50.78,84.264,13.185
50.81,87.773,13.621
50.84,91.037,14.113
50.87,94.125,14.56
50.91,97.179,14.892
50.94,100.302,15.247
50.97,103.601,15.602
51.0,106.795,16.015
51.04,109.778,16.565
51.07,113.077,17.115
51.1,116.762,17.607
51.13,120.341,18.054
51.17,123.395,18.317
51.2,125.887,18.753
51.23,128.659,19.257
51.26,132.204,19.726
51.3,135.854,20.15
51.33,139.328,20.872
51.36,143.013,21.239
51.39,145.399,21.227
51.43,148.242,22.178
51.46,152.313,22.556
51.49,155.156,22.419
51.52,157.051,23.129
51.56,159.999,23.736
51.59,163.403,23.896
51.62,166.176,24.228
51.66,168.457,24.435
51.69,170.528,24.561
51.72,172.598,24.836
51.75,175.09,25.259
51.79,177.933,25.798
51.82,181.091,26.416
51.85,184.18,26.955
51.88,186.882,27.447
51.92,189.444,27.791
51.95,191.901,27.883
51.98,193.761,27.963
52.01,195.375,28.123
52.05,197.411,28.341
52.08,199.692,28.593
52.11,201.517,28.616
52.14,202.921,28.994
52.18,205.167,29.555
52.21,207.623,29.613
52.24,208.922,29.704
52.27,209.94,30.14
52.31,211.765,30.644
52.34,214.362,30.999
52.37,216.888,31.319
52.4,219.17,31.72
52.44,221.31,31.869
52.47,222.995,31.801
52.5,224.083,31.904
52.53,225.171,32.27
52.57,226.645,32.683
52.6,228.4,33.061
52.63,230.47,33.553
52.66,232.33,33.805
52.7,233.734,34.046
52.73,235.243,34.401
52.76,237.209,34.687
52.79,239.279,34.962
52.83,240.858,35.295
52.86,242.438,35.684
52.89,244.298,36.039
52.92,246.404,36.371
52.96,248.474,36.692
52.99,250.334,36.749
53.02,251.913,36.83
53.05,253.668,37.082
53.09,255.774,37.379
53.12,257.88,37.574
53.15,259.424,37.746
53.18,260.231,37.975
53.22,261.284,38.067
53.25,262.267,37.987
53.28,262.968,38.101
53.32,264.267,38.365
53.35,266.092,38.479
53.38,267.25,38.456
53.41,267.917,38.788
53.45,269.426,39.132
53.48,271.216,39.189
53.51,272.304,39.247
53.54,272.971,39.556
53.58,272.9,40.049
53.61,272.935,40.713
53.64,273.953,41.022
53.67,275.111,41.217
53.71,275.848,41.549
53.74,276.55,41.973
53.77,277.919,41.996
53.8,278.796,41.813
53.84,279.007,41.847
53.87,279.393,41.996
53.9,280.165,42.191
53.93,281.323,42.26
53.97,282.06,42.305
54.0,282.762,42.489
54.03,283.604,42.58
54.06,284.727,42.729
54.1,285.008,42.34
54.13,284.096,42.076
54.16,284.096,42.443
54.19,285.745,42.706
54.23,285.921,42.214
54.26,284.131,42.134
54.29,283.78,42.271
54.32,285.289,42.225
54.36,285.149,41.481
54.39,282.762,41.137
54.42,282.095,41.503
54.45,283.534,41.389
54.49,283.604,41.011
54.52,281.499,41.125
54.55,280.376,41.022
54.58,279.849,40.438
54.62,277.673,40.255
54.65,275.252,40.541
54.68,274.199,40.805
54.71,273.918,40.873
54.75,272.69,41.045
54.78,271.321,41.125
54.81,270.233,40.702
54.84,268.829,40.266
54.88,267.496,40.049
54.91,266.478,39.877
54.94,265.952,39.716
54.98,265.32,39.625
55.01,264.197,39.51
55.04,262.302,39.373
55.07,260.652,38.983
55.11,259.248,38.479
55.14,257.88,38.193
55.17,256.932,38.113
55.2,255.809,37.769
55.24,253.809,37.563
55.27,252.159,37.631
55.3,250.931,37.288
55.33,248.088,36.566
55.37,244.649,36.211
55.4,243.596,36.452
55.43,244.017,36.154
55.46,242.824,35.707
55.5,240.297,35.558
55.53,238.367,35.386
55.56,236.928,34.905
55.59,234.576,34.401
55.63,231.734,34.069
55.66,229.347,33.897
55.69,227.943,33.679
55.72,226.785,33.37
55.76,225.346,33.118
55.79,223.592,32.889
55.82,221.626,32.442
55.85,219.485,31.869
55.89,217.415,31.526
55.92,215.66,31.308
55.95,213.8,31.056
55.98,211.694,30.907
56.02,210.22,30.747
56.05,209.027,30.529
56.08,207.237,30.151
56.11,204.359,29.693
56.15,201.482,29.235
56.18,199.165,28.868
56.21,197.27,28.559
56.24,195.515,28.272
56.28,193.901,27.974
56.31,191.83,27.688
56.34,189.549,27.276
56.37,187.093,26.737
56.41,184.741,26.279
56.44,182.495,25.764
56.47,179.863,25.237
56.5,177.371,24.893
56.54,175.371,24.458
56.57,173.019,23.873
56.6,169.756,23.312
56.64,166.948,22.808
56.67,164.421,22.258
56.7,161.578,21.674
56.73,158.56,21.227
56.77,155.998,20.964
56.8,153.542,20.62
56.83,150.734,20.104
56.86,147.33,19.589
56.9,144.031,19.199
56.93,141.399,18.695
56.96,138.626,18.008
56.99,135.783,17.619
57.03,133.502,17.321
57.06,130.554,16.485
57.09,126.904,16.095
57.12,124.097,15.854
57.16,121.64,15.362
57.19,118.552,14.617
57.22,114.481,13.861
57.25,110.339,13.518
57.29,107.251,13.197
57.32,104.654,12.601
57.35,101.004,11.845
57.38,96.512,11.204
57.42,92.125,10.608
57.45,88.37,10.069
57.48,85.106,9.577
57.51,81.877,9.119
57.55,78.333,8.729
57.58,74.788,8.34
57.61,71.489,8.019
57.64,68.787,7.664
57.68,66.19,7.194
57.71,63.277,6.782
57.74,60.118,6.449
57.77,56.854,5.98
57.81,53.836,5.522
57.84,50.853,4.983
57.87,47.519,4.433
57.9,43.729,3.929
57.94,39.728,3.586
57.97,36.324,3.299
58.0,32.99,2.784
58.03,29.164,2.257
58.07,24.953,1.925
58.1,21.057,1.695
58.13,17.723,1.524
58.16,14.319,1.34
58.2,10.248,1.077
58.23,6.107,0.676
58.26,1.79,0.779
58.3,0.035,0.619
58.33,-0.386,-0.481
58.36,-0.597,-1.97
58.39,-3.018,-3.23
58.43,-8.002,-4.101
58.46,-12.985,-5.121
58.49,-17.372,-6.106
58.52,-21.724,-6.667
58.56,-26.041,-6.976
58.59,-30.463,-7.32
58.62,-34.955,-7.503
58.65,-38.535,-7.572
58.69,-41.518,-7.859
58.72,-44.711,-8.122
58.75,-47.765,-8.259
58.78,-50.783,-8.603
58.82,-54.117,-9.061
58.85,-57.346,-9.439
58.88,-60.223,-9.921
58.91,-63.522,-10.459
58.95,-67.032,-10.997
58.98,-70.752,-11.467
59.01,-74.191,-11.845
59.04,-77.209,-12.235
59.08,-80.263,-12.704
59.11,-83.562,-13.151
59.14,-86.826,-13.666
59.17,-90.967,-14.823
59.21,-96.933,-15.9
59.24,-102.583,-16.267
59.27,-105.707,-16.301
59.3,-107.462,-16.679
59.34,-110.199,-17.286
59.37,-114.024,-17.584
59.4,-117.429,-17.768
59.43,-119.815,-17.882
59.47,-121.745,-18.065
59.5,-124.026,-18.34
59.53,-126.553,-18.535
59.56,-128.94,-19.028
59.6,-132.344,-19.749
59.63,-136.696,-20.219
59.66,-140.732,-20.757
59.69,-144.417,-21.445
59.73,-147.856,-21.766
59.76,-150.664,-22.109
59.79,-153.893,-22.636
59.82,-157.542,-23.083
59.86,-160.631,-23.415
59.89,-163.263,-23.862
59.92,-166.246,-24.309
59.96,-169.44,-24.607
59.99,-172.353,-24.87
60.02,-174.879,-25.019
60.05,-176.95,-25.168
60.09,-179.091,-25.626
60.12,-182.004,-26.13
60.15,-185.022,-26.497
60.18,-187.549,-26.795
60.22,-189.76,-27.115
60.25,-191.725,-27.31
60.28,-193.796,-27.344
60.31,-195.48,-27.344
60.35,-196.814,-27.734
60.38,-198.92,-28.146
60.41,-201.306,-28.456
60.44,-203.447,-28.719
60.48,-205.377,-29.028
60.51,-207.027,-29.246
60.54,-208.36,-29.418
60.57,-209.94,-29.498
60.61,-212.186,-29.807
60.64,-214.783,-30.231
60.67,-216.678,-30.701
60.7,-217.555,-31.205
60.74,-218.819,-31.801
60.77,-220.959,-32.167
60.8,-223.135,-32.362
60.83,-224.68,-32.614
60.87,-226.154,-33.152
60.9,-228.575,-33.679
60.93,-231.313,-33.851
60.96,-233.278,-34.183
61.0,-235.629,-34.745
61.03,-237.56,-34.745
61.06,-238.437,-34.619
61.09,-239.455,-34.71
61.13,-241.525,-35.02
61.16,-243.842,-35.352
61.19,-245.596,-35.627
61.22,-247.105,-35.925
61.26,-248.895,-36.417
61.29,-251.001,-36.52
61.32,-252.124,-36.314
61.35,-252.475,-36.383
61.39,-253.879,-36.749
61.42,-256.406,-36.967
61.45,-258.195,-37.07
61.48,-259.319,-37.414
61.52,-260.301,-37.574
61.55,-261.459,-37.7
61.58,-262.442,-37.78
61.62,-261.67,-37.918
61.65,-261.424,-38.788
61.68,-264.618,-39.739
61.71,-267.671,-39.671
61.75,-267.847,-40.083
61.78,-268.478,-41.103
61.81,-271.005,-41.045
61.84,-272.374,-40.61
61.88,-272.69,-40.942
61.91,-268.9,-38.124
61.94,-257.458,-33.645
61.97,-248.895,-33.45
62.01,-252.721,-34.722
62.04,-258.476,-34.344
62.07,-256.09,-34.951
62.1,-252.089,-37.448
62.14,-255.353,-39.144
62.17,-262.512,-39.625
62.2,-267.285,-40.919
62.23,-269.496,-42.912
62.27,-272.023,-43.817
62.3,-274.585,-43.474
62.33,-277.042,-43.199
62.36,-279.463,-43.061
62.4,-280.972,-42.912
62.43,-281.99,-42.695
62.46,-282.657,-42.26
62.49,-282.797,-41.973
62.53,-282.938,-41.618
62.56,-282.446,-41.286
62.59,-280.902,-41.446
62.62,-280.095,-41.755
62.66,-280.305,-41.721
62.69,-280.165,-41.744
62.72,-279.884,-42.248
62.75,-280.551,-42.695
62.79,-281.288,-42.775
62.82,-281.569,-42.741
62.85,-281.218,-42.741
62.88,-280.411,-42.477
62.92,-279.604,-41.939
62.95,-278.34,-41.584
62.98,-277.603,-41.515
63.01,-277.463,-41.4
63.05,-276.971,-41.16
63.08,-275.743,-41.045
63.11,-274.585,-40.885
63.14,-273.181,-40.358
63.18,-271.216,-39.888
63.21,-269.847,-39.533
63.24,-268.97,-39.361
63.28,-267.987,-39.327
63.31,-266.829,-39.27
63.34,-265.706,-39.132
63.37,-264.478,-38.914
63.41,-263.039,-38.422
63.44,-261.354,-37.918
63.47,-259.494,-37.631
63.5,-258.16,-37.379
63.54,-256.651,-37.059
63.57,-254.826,-36.795
63.6,-252.756,-36.692
63.63,-250.755,-36.646
63.67,-248.685,-36.417
63.7,-246.579,-36.28
63.73,-245.28,-36.326
63.76,-244.684,-36.303
63.8,-243.245,-36.142
63.83,-240.823,-36.051
63.86,-238.893,-35.89
63.89,-237.805,-35.478
63.93,-236.086,-34.802
63.96,-233.769,-34.39
63.99,-231.769,-34.103
64.02,-230.119,-33.645
64.06,-228.47,-33.324
64.09,-226.785,-33.084
64.12,-224.96,-32.786
64.15,-222.644,-32.259
64.19,-219.872,-31.766
64.22,-217.485,-31.377
64.25,-216.046,-31.022
64.28,-214.677,-30.735
64.32,-212.642,-30.472
64.35,-210.185,-30.288
64.38,-208.29,-30.117
64.41,-206.606,-29.67
64.45,-204.71,-29.086
64.48,-202.499,-28.662
64.51,-200.464,-28.364
64.54,-198.569,-28.066
64.58,-196.288,-27.734
64.61,-193.761,-27.505
64.64,-191.339,-27.161
64.67,-189.409,-27.207
64.71,-187.865,-26.737
64.74,-184.882,-25.798
64.77,-181.898,-25.66
64.8,-180.003,-25.328
64.84,-178.389,-24.744
64.87,-176.213,-24.332
64.9,-173.476,-23.976
64.94,-170.528,-23.507
64.97,-167.825,-22.957
65.0,-165.298,-22.419
65.03,-162.526,-21.8
65.07,-159.227,-21.319
65.1,-156.419,-21.261
65.13,-154.384,-20.918
65.16,-151.892,-20.265
65.2,-148.734,-19.91
65.23,-145.645,-19.497
65.26,-142.767,-18.913
65.29,-139.854,-18.329
65.33,-136.696,-17.779
65.36,-133.643,-17.286
65.39,-130.8,-16.691
65.42,-127.466,-15.946
65.46,-123.5,-15.282
65.49,-119.64,-14.709
65.52,-116.306,-14.228
65.55,-113.358,-13.85
65.59,-110.48,-13.586
65.62,-107.672,-13.311
65.65,-104.865,-12.807
65.68,-101.39,-12.292
65.72,-97.916,-11.742
65.75,-94.301,-10.986
65.78,-90.405,-10.207
65.81,-86.299,-9.6
65.85,-82.649,-9.13
65.88,-79.385,-8.637
65.91,-76.192,-8.133
65.94,-72.682,-7.824
65.98,-69.418,-7.572
66.01,-66.26,-7.137
66.04,-62.961,-6.701
66.07,-59.697,-6.323
66.11,-56.819,-5.98
66.14,-54.117,-5.499
66.17,-51.169,-4.937
66.2,-47.8,-4.525
66.24,-44.395,-4.113
66.27,-40.816,-3.494
66.3,-36.955,-3.013
66.33,-33.376,-2.6
66.37,-29.796,-2.165
66.4,-25.795,-1.684
66.43,-21.548,-1.352
66.46,-17.442,-1.111
66.5,-13.617,-0.962
66.53,-9.686,-0.676
66.56,-5.089,-0.367
66.6,-0.912,-0.355
66.63,0.246,0.137
66.66,0.421,1.146
66.69,1.193,2.314
66.73,4.913,3.368
66.76,10.072,4.25
66.79,14.775,5.235
66.82,18.846,5.968
66.86,22.847,6.255
66.89,26.813,6.541
66.92,30.708,6.896
66.95,34.639,7.297
66.99,38.289,7.469
67.02,41.202,7.606
67.05,44.044,8.065
67.08,47.273,8.523
67.12,50.748,8.855
67.15,54.222,9.233
67.18,57.591,9.772
67.21,61.171,10.241
67.25,64.61,10.573
67.28,67.769,10.963
67.31,70.857,11.501
67.34,74.121,11.994
67.38,77.35,12.441
67.41,80.333,13.002
67.44,83.562,13.575
67.47,87.001,14.056
67.51,90.44,14.526
67.54,93.564,14.927
67.57,96.301,15.396
67.6,99.776,15.774
67.64,103.882,15.958
67.67,107.426,16.255
67.7,110.48,16.725
67.73,113.568,17.218
67.77,117.043,17.756
67.8,120.447,17.836
67.83,123.5,18.329
67.86,126.483,18.753
67.9,129.01,18.993
67.93,131.361,19.452
67.96,134.134,20.013
67.99,137.608,20.689
68.03,141.364,21.204
68.06,144.522,21.502
68.09,147.119,21.926
68.12,150.102,22.533
68.16,153.506,22.934
68.19,156.7,23.163
68.22,159.297,23.507
68.26,161.719,23.999
68.29,164.491,24.377
68.32,167.65,24.687
68.35,170.493,25.019
68.39,172.739,25.42
68.42,175.23,25.706
68.45,178.214,26.096
68.48,181.302,26.565
68.52,184.145,26.978
68.55,186.566,27.344
68.58,188.847,27.734
68.61,191.199,27.997
68.65,193.34,28.226
68.68,195.2,28.501
68.71,197.2,28.891
68.74,199.692,29.2
68.78,202.289,29.349
68.81,204.114,29.487
68.84,205.377,29.704
68.87,206.535,29.796
68.91,207.869,29.933
68.94,209.729,30.311
68.97,212.151,30.667
69.0,214.291,31.01
69.04,216.011,31.457
69.07,218.047,31.972
69.1,220.538,32.305
69.13,222.328,32.339
69.17,223.662,32.534
69.2,225.346,32.923
69.23,227.698,33.267
69.26,230.33,33.633
69.3,232.576,34.034
69.33,234.331,34.183
69.36,235.945,34.275
69.39,237.384,34.275
69.43,238.823,34.264
69.46,240.472,34.424
69.49,242.157,34.894
69.52,244.087,35.329
69.56,245.807,35.535
69.59,246.509,36.016
69.62,246.754,36.738
69.65,247.983,36.944
69.69,249.808,37.047
69.72,251.949,37.574
69.75,253.984,38.124
69.78,255.212,38.525
69.82,256.406,39.006
69.85,258.441,39.407
69.88,260.617,39.522
69.91,261.951,39.441
69.95,262.828,39.499
69.98,264.267,39.636
70.01,266.092,39.648
70.05,267.215,39.625
70.08,268.092,39.911
70.11,269.426,40.198
70.14,270.724,40.358
70.18,271.497,40.518
70.21,272.163,40.77
70.24,273.076,40.908
70.27,274.094,40.942
70.31,275.497,41.011
70.34,277.112,41.125
70.37,278.27,41.263
70.4,279.147,41.503
70.44,279.955,41.515
70.47,280.551,41.435
70.5,280.937,41.286
70.53,281.288,41.229
70.57,281.779,41.274
70.6,282.622,41.332
70.63,283.078,41.206
70.66,283.429,41.194
70.7,282.622,41.251
70.73,280.235,41.927
70.76,279.639,42.408
70.79,280.762,42.603
70.83,282.481,43.508
70.86,283.113,43.863
70.89,282.025,44.024
70.92,282.166,44.333
70.96,284.131,43.978
70.99,284.377,43.417
71.02,283.043,43.474
71.05,282.552,43.302
71.09,283.008,43.107
71.12,283.429,42.809
71.15,282.622,42.557
71.18,280.797,42.282
71.22,279.358,41.916
71.25,278.691,41.423
71.28,278.094,40.988
71.31,276.691,40.839
71.35,275.322,41.034
71.38,274.796,40.988
71.41,274.094,40.759
71.44,272.585,40.667
71.48,271.426,40.301
71.51,270.303,39.682
71.54,268.829,39.338
71.57,267.075,39.327
71.61,265.671,39.396
71.64,264.653,39.304
71.67,263.495,39.258
71.71,262.372,39.201
71.74,261.179,38.846
71.77,259.634,38.388
71.8,257.95,38.158
71.84,256.476,38.078
71.87,255.002,37.918
71.9,253.773,37.689
71.93,252.791,37.54
71.97,251.457,37.322
72.0,249.492,36.875
72.03,246.79,36.429
72.06,244.859,36.326
72.1,244.333,36.234
72.13,243.666,35.776
72.16,241.631,35.478
72.19,238.928,35.398
72.23,237.033,34.928
72.26,234.927,34.344
72.29,232.751,34.08
72.32,231.032,33.851
72.36,229.066,33.519
72.39,226.855,33.347
72.42,225.346,33.164
72.45,224.083,32.82
72.49,222.153,32.385
72.52,219.661,31.984
72.55,217.029,31.629
72.58,215.134,31.331
72.62,213.519,31.067
72.65,211.8,30.838
72.68,209.729,30.644
72.71,207.483,30.54
72.75,205.482,30.243
72.78,203.307,29.762
72.81,200.99,29.361
72.84,198.849,29.051
72.88,196.884,28.696
72.91,195.094,28.421
72.94,193.515,28.123
72.97,191.83,27.768
73.01,189.619,27.264
73.04,186.917,26.737
73.07,184.355,26.279
73.1,182.039,25.775
73.14,179.617,25.248
73.17,177.266,24.95
73.2,174.915,24.618
73.23,172.563,24.137
73.27,169.58,23.656
73.3,166.527,23.289
73.33,163.789,22.842
73.37,161.087,22.247
73.4,158.42,21.8
73.43,156.033,21.296
73.46,152.945,20.528
73.5,150.032,20.334
73.53,147.751,19.978
73.56,144.943,19.429
73.59,141.609,18.695
73.63,138.591,18.191
73.66,135.678,17.47
73.69,132.59,16.977
73.72,129.396,16.679
73.76,126.097,16.015
73.79,122.552,15.522
73.82,119.464,15.213
73.85,116.832,14.835
73.89,114.024,14.308
73.92,110.866,13.815
73.95,107.918,13.414
73.98,105.286,12.819
74.02,102.057,12.143
74.05,98.161,11.524
74.08,94.125,10.871
74.11,90.16,10.218
74.15,86.51,9.668
74.18,82.93,9.153
74.21,79.42,8.718
74.24,76.016,8.259
74.28,72.472,7.847
74.31,69.102,7.458
74.34,65.944,7.034
74.37,62.891,6.621
74.41,59.837,6.209
74.44,56.679,5.819
74.47,53.45,5.441
74.5,50.186,5.029
74.54,46.852,4.525
74.57,43.483,3.906
74.6,39.763,3.356
74.63,35.797,2.864
74.67,31.796,2.429
74.7,27.76,2.028
74.73,23.759,1.764
74.76,20.145,1.524
74.8,16.776,1.329
74.83,13.231,1.123
74.86,9.335,0.928
74.89,5.756,0.871
74.93,1.965,0.859
74.96,-0.035,0.412
74.99,-0.386,-0.653
75.03,-0.597,-1.936
75.06,-3.018,-3.253
75.09,-8.388,-4.239
75.12,-13.266,-4.96
75.16,-16.846,-5.728
75.19,-20.39,-6.289
75.22,-24.532,-6.587
75.25,-28.883,-6.965
75.29,-32.919,-7.423
75.32,-36.78,-7.698
75.35,-40.219,-7.904
75.38,-43.413,-8.191
75.42,-46.712,-8.546
75.45,-50.081,-8.958
75.48,-53.45,-9.439
75.51,-56.889,-9.955
75.55,-60.504,-10.413
75.58,-64.4,-10.86
75.61,-68.436,-11.181
75.64,-71.98,-11.467
75.68,-74.823,-11.788
75.71,-77.385,-12.074
75.74,-80.228,-12.406
75.77,-82.93,-12.635
75.81,-85.527,-13.094
75.84,-88.44,-13.609
75.87,-91.844,-14.113
75.9,-95.354,-14.583
75.94,-98.688,-15.19
75.97,-102.338,-15.935
76.0,-106.619,-16.759
76.03,-111.427,-17.493
76.07,-116.2,-18.1
76.1,-120.447,-18.615
76.13,-124.062,-19.039
76.16,-127.325,-19.371
76.2,-130.554,-19.635
76.23,-133.537,-19.841
76.26,-136.24,-20.104
76.29,-138.731,-20.391
76.33,-141.153,-20.677
76.36,-143.364,-20.929
76.39,-145.926,-21.319
76.42,-148.839,-21.582
76.46,-151.646,-22.052
76.49,-154.665,-22.567
76.52,-156.876,-22.705
76.55,-158.701,-23.083
76.59,-161.403,-23.69
76.62,-165.053,-24.148
76.65,-168.527,-24.538
76.69,-171.44,-24.962
76.72,-173.932,-25.408
76.75,-176.283,-25.741
76.78,-178.88,-26.119
76.82,-181.934,-26.577
76.85,-185.022,-26.966
76.88,-187.549,-27.218
76.91,-189.549,-27.505
76.95,-191.55,-27.814
76.98,-193.866,-27.917
77.01,-195.726,-27.86
77.04,-196.884,-28.009
77.08,-198.569,-28.375
77.11,-200.745,-28.605
77.14,-202.885,-28.776
77.17,-204.605,-29.028
77.21,-205.904,-29.383
77.24,-207.237,-29.658
77.27,-208.957,-29.865
77.3,-211.203,-30.197
77.34,-213.589,-30.655
77.37,-215.695,-31.159
77.4,-218.047,-31.549
77.43,-220.503,-31.858
77.47,-222.784,-32.259
77.5,-225.206,-32.625
77.53,-226.961,-32.614
77.56,-228.189,-32.82
77.6,-229.417,-33.061
77.63,-230.856,-33.53
77.66,-232.681,-34.092
77.69,-234.471,-34.435
77.73,-235.699,-34.493
77.76,-236.682,-34.871
77.79,-238.893,-35.443
77.82,-241.35,-35.524
77.86,-242.754,-35.65
77.89,-244.017,-36.074
77.92,-245.947,-36.337
77.95,-247.807,-36.463
77.99,-249.071,-36.807
78.02,-250.65,-37.15
78.05,-252.545,-37.253
78.08,-253.984,-37.494
78.12,-255.493,-37.918
78.15,-257.458,-38.17
78.18,-259.248,-38.33
78.21,-260.652,-38.582
78.25,-262.196,-38.788
78.28,-264.056,-38.834
78.31,-265.39,-38.834
78.35,-266.057,-38.869
78.38,-266.829,-38.96
78.41,-267.987,-38.983
78.44,-269.321,-38.937
78.48,-269.917,-38.857
78.51,-269.952,-38.914
78.54,-270.128,-39.063
78.57,-271.146,-39.086
78.61,-271.602,-39.109
78.64,-271.146,-40.186
78.67,-272.058,-41.229
78.7,-273.602,-41.423
78.74,-274.304,-41.755
78.77,-274.971,-42.603
78.8,-276.796,-43.119
78.83,-278.551,-43.142
78.87,-279.849,-43.405
78.9,-281.779,-43.932
78.93,-283.78,-43.978
78.96,-284.938,-43.978
79.0,-285.64,-43.989
79.03,-286.517,-44.104
79.06,-287.395,-43.531
79.09,-286.552,-42.89
79.13,-285.886,-42.981
79.16,-287.044,-43.119
79.19,-287.851,-42.615
79.22,-286.868,-42.546
79.26,-285.815,-42.741
79.29,-285.535,-42.489
79.32,-285.254,-42.03
79.35,-284.236,-41.778
79.39,-283.429,-41.836
79.42,-283.534,-41.847
79.45,-283.534,-41.778
79.48,-282.657,-41.721
79.52,-281.569,-41.538
79.55,-280.516,-41.194
79.58,-279.568,-40.805
79.61,-277.603,-40.621
79.65,-275.287,-40.782
79.68,-274.515,-40.976
79.71,-274.76,-40.873
79.74,-274.129,-40.702
79.78,-272.269,-40.576
79.81,-269.952,-40.324
79.84,-268.443,-39.991
79.87,-267.531,-39.625
79.91,-266.548,-39.464
79.94,-265.706,-39.464
79.97,-264.793,-39.384
80.01,-263.39,-39.27
80.04,-261.986,-39.052
80.07,-260.477,-38.605
80.1,-258.862,-38.147
80.14,-257.108,-37.803
80.17,-255.388,-37.62
80.2,-254.3,-37.357
80.23,-252.931,-37.07
80.27,-251.176,-36.99
80.3,-249.492,-36.784
80.33,-247.491,-36.245
80.36,-245.421,-35.821
80.4,-243.947,-35.478
80.43,-242.368,-35.031
80.46,-240.121,-34.802
80.49,-237.91,-34.63
80.53,-236.366,-34.63
80.56,-235.278,-34.458
80.59,-233.804,-33.966
80.62,-231.734,-33.611
80.66,-229.558,-33.496
80.69,-227.663,-33.324
80.72,-225.241,-32.935
80.75,-222.504,-32.912
80.79,-221.416,-33.324
80.82,-221.556,-33.095
80.85,-220.222,-32.339
80.88,-217.59,-32.018
80.92,-215.765,-31.846
80.95,-214.748,-31.331
80.98,-213.274,-30.861
81.01,-211.133,-30.678
81.05,-209.167,-30.426
81.08,-207.132,-29.968
81.11,-204.745,-29.475
81.14,-202.464,-29.04
81.18,-199.937,-28.639
81.21,-197.621,-28.341
81.24,-195.937,-27.997
81.27,-194.217,-27.642
81.31,-191.901,-27.264
81.34,-189.058,-26.795
81.37,-186.215,-26.325
81.4,-184.074,-25.844
81.44,-181.969,-25.294
81.47,-179.231,-24.927
81.5,-176.81,-24.755
81.53,-174.739,-24.446
81.57,-172.353,-23.896
81.6,-169.299,-23.381
81.63,-166.106,-22.98
81.67,-163.509,-22.464
81.7,-160.947,-21.811
81.73,-158.034,-21.216
81.76,-155.437,-21.124
81.8,-153.471,-20.712
81.83,-149.962,-19.543
81.86,-145.645,-19.452
81.89,-143.013,-19.257
81.93,-141.364,-18.81
81.96,-139.468,-18.489
81.99,-136.485,-17.916
82.02,-133.257,-17.619
82.06,-130.73,-17.229
82.09,-127.852,-16.427
82.12,-123.711,-15.786
82.15,-120.061,-15.339
82.19,-117.148,-14.675
82.22,-113.919,-14.033
82.25,-110.445,-13.644
82.28,-107.391,-13.266
82.32,-104.443,-12.578
82.35,-100.864,-11.914
82.38,-97.038,-11.387
82.41,-93.283,-10.78
82.45,-89.352,-10.161
82.48,-85.492,-9.691
82.51,-81.842,-9.29
82.54,-78.648,-8.809
82.58,-75.139,-8.363
82.61,-71.77,-8.065
82.64,-68.787,-7.71
82.67,-66.225,-7.228
82.71,-63.312,-6.724
82.74,-60.118,-6.243
82.77,-56.854,-5.739
82.8,-53.239,-5.178
82.84,-49.449,-4.743
82.87,-46.01,-4.353
82.9,-42.606,-3.906
82.93,-39.201,-3.471
82.97,-35.692,-3.047
83.0,-32.007,-2.658
83.03,-28.427,-2.291
83.06,-24.812,-1.947
83.1,-20.882,-1.466
83.13,-16.705,-1.26
83.16,-12.494,-1.077
83.19,-8.563,-0.756
83.23,-4.422,-0.664
83.26,-0.912,-0.871
83.29,0.246,-0.332
83.33,0.562,0.939
83.36,1.088,2.394
83.39,4.247,3.276
83.42,8.669,3.975
83.46,13.091,5.132
83.49,17.407,6.049
83.52,21.759,6.472
83.55,26.111,6.873
83.59,30.603,7.366
83.62,34.85,7.664
83.65,38.64,7.836
83.68,42.114,8.122
83.72,45.729,8.5
83.75,49.414,8.729
83.78,52.888,8.901
83.81,55.942,9.245
83.85,58.679,9.623
83.88,61.452,10.024
83.91,64.575,10.447
83.94,67.944,10.917
83.98,71.278,11.433
84.01,74.437,11.822
84.04,77.56,12.166
84.07,80.789,12.578
84.11,84.053,13.036
84.14,87.106,13.403
84.17,90.054,13.976
84.2,93.353,14.457
84.24,96.652,14.823
84.27,99.706,15.247
84.3,103.004,15.706
84.33,106.374,16.233
84.37,109.848,16.782
84.4,113.428,17.149
84.43,116.867,17.55
84.46,120.131,17.951
84.5,123.009,18.352
84.53,126.062,18.81
84.56,129.185,19.44
84.59,132.87,20.082
84.63,136.555,20.322
84.66,140.1,20.906
84.69,143.504,21.307
84.72,146.312,21.41
84.76,148.734,21.731
84.79,151.436,22.098
84.82,154.243,22.361
84.85,156.595,22.556
84.89,158.701,23.014
84.92,161.649,23.564
84.95,164.877,23.931
84.99,167.86,24.263
85.02,170.422,24.618
85.05,172.844,24.904
85.08,175.055,25.225
85.12,177.722,25.798
85.15,181.161,26.359
85.18,184.636,26.783
85.21,187.479,27.173
85.25,189.619,27.539
85.28,191.585,27.745
85.31,193.831,27.814
85.34,196.042,27.952
85.38,198.218,28.215
85.41,200.253,28.433
85.44,201.868,28.627
85.47,203.342,28.948
85.51,205.237,29.212
85.54,206.921,29.315
85.57,207.869,29.59
85.6,209.027,30.208
85.64,211.414,30.724
85.67,214.081,31.079
85.7,216.116,31.526
85.73,217.906,32.076
85.77,220.117,32.385
85.8,222.328,32.396
85.83,224.048,32.476
85.86,225.662,32.797
85.9,227.382,32.958
85.93,229.277,33.244
85.96,231.207,33.576
85.99,232.716,33.759
86.03,234.12,34.08
86.06,235.91,34.275
86.09,237.349,34.401
86.12,238.647,34.687
86.16,240.508,35.18
86.19,243.175,35.524
86.22,245.386,35.787
86.25,246.93,36.28
86.29,248.86,36.669
86.32,250.931,36.555
86.35,252.264,36.612
86.38,253.914,37.013
86.42,255.949,37.185
86.45,257.248,37.334
86.48,258.687,37.609
86.51,260.687,37.723
86.55,261.951,37.654
86.58,261.319,37.792
86.61,260.757,38.25
86.65,262.056,38.582
86.68,264.091,39.006
86.71,265.671,39.579
86.74,266.689,39.957
86.78,267.671,40.278
86.81,269.25,40.507
86.84,270.724,40.518
86.87,271.812,40.759
86.91,273.146,40.965
86.94,274.269,41.125
86.97,275.533,41.435
87.0,277.112,41.584
87.04,278.27,41.629
87.07,279.042,41.767
87.1,279.814,41.733
87.13,280.341,41.572
87.17,280.516,41.343
87.2,280.551,41.366
87.23,281.253,41.584
87.26,282.201,41.595
87.3,282.481,41.618
87.33,282.622,41.813
87.36,283.394,41.778
87.39,284.482,41.755
87.43,284.412,41.515
87.46,283.85,41.916
87.49,285.675,42.454
87.52,287.535,41.893
87.56,286.868,41.618
87.59,285.71,42.202
87.62,284.938,42.294
87.65,283.99,41.893
87.69,282.201,41.618
87.72,280.902,41.755
87.75,281.288,41.939
87.78,281.429,41.962
87.82,280.341,41.927
87.85,278.831,41.836
87.88,277.954,41.618
87.91,277.357,41.458
87.95,276.726,41.24
87.98,275.848,41.08
88.01,275.252,41.171
88.04,274.866,41.148
88.08,274.059,40.908
88.11,273.146,40.61
88.14,271.918,40.243
88.17,270.514,39.854
88.21,269.005,39.499
88.24,267.706,39.338
88.27,267.039,39.144
88.31,266.267,38.846
88.34,264.548,38.754
88.37,262.758,38.628
88.4,261.53,38.158
88.44,259.775,37.712
88.47,257.634,37.609
88.5,256.406,37.437
88.53,255.353,37.093
88.57,254.019,36.921
88.6,252.159,36.933
88.63,249.913,36.772
88.66,247.527,36.44
88.7,245.351,36.2
88.73,244.122,36.142
88.76,243.526,35.925
88.79,242.052,35.615
88.83,239.49,35.432
88.86,237.244,35.329
88.89,235.875,34.939
88.92,234.261,34.39
88.96,232.155,34.115
88.99,230.154,33.943
89.02,228.4,33.668
89.05,226.715,33.324
89.09,225.136,33.026
89.12,223.521,32.786
89.15,221.977,32.27
89.18,219.731,31.72
89.22,217.415,31.365
89.25,215.379,31.045
89.28,213.449,30.747
89.31,211.589,30.54
89.35,209.904,30.38
89.38,208.466,30.094
89.41,206.606,29.59
89.44,203.833,29.12
89.48,200.815,28.845
89.51,198.955,28.536
89.54,197.937,28.078
89.57,196.533,27.768
89.61,194.708,27.493
89.64,192.427,27.115
89.67,189.69,26.646
89.7,187.093,26.073
89.74,184.566,25.626
89.77,182.249,25.145
89.8,179.617,24.629
89.83,177.161,24.354
89.87,174.844,24.091
89.9,172.353,23.621
89.93,169.615,23.049
89.97,166.948,22.648
90.0,164.597,22.144
90.03,161.719,21.502
90.06,158.595,21.135
90.1,156.068,20.964
90.13,154.103,20.563
90.16,151.401,20.047
90.19,147.961,19.474
90.23,144.698,19.211
90.26,142.065,18.695
90.29,139.328,17.939
90.32,136.275,17.332
90.36,132.87,16.759
90.39,129.887,16.542
90.42,127.325,15.958
90.45,124.062,15.373
90.49,120.833,15.03
90.52,117.709,14.537
90.55,114.516,13.93
90.58,111.041,13.529
90.62,107.848,13.128
90.65,104.619,12.475
90.68,100.864,11.834
90.71,97.038,11.352
90.75,93.599,10.654
90.78,89.844,9.909
90.81,85.773,9.416
90.84,82.158,9.027
90.88,78.824,8.546
90.91,75.314,8.088
90.94,71.84,7.744
90.97,68.681,7.343
91.01,65.558,6.896
91.04,62.364,6.507
91.07,59.311,6.106
91.1,56.328,5.67
91.14,53.31,5.235
91.17,50.186,4.823
91.2,46.887,4.353
91.23,43.237,3.895
91.27,39.447,3.46
91.3,35.867,3.013
91.33,32.393,2.566
91.36,28.989,2.188
91.4,25.444,1.787
91.43,21.689,1.455
91.46,17.969,1.237
91.49,14.319,0.951
91.53,10.107,0.653
91.56,6.036,0.687
91.59,2.106,0.63
91.63,-0.14,0.069
91.66,-0.316,-1.111
91.69,-0.842,-2.177
91.72,-3.72,-3.093
91.76,-8.458,-4.044
91.79,-13.231,-5.006
91.82,-17.372,-5.728
91.85,-21.268,-6.163
91.89,-25.409,-6.656
91.92,-30.077,-7.114
91.95,-34.499,-7.377
91.98,-38.043,-7.595
92.02,-41.342,-7.893
92.05,-44.606,-8.259
92.08,-47.975,-8.603
92.11,-51.485,-8.981
92.15,-54.959,-9.371
92.18,-58.293,-9.84
92.21,-61.417,-10.321
92.24,-64.54,-10.825
92.28,-68.05,-11.295
92.31,-71.735,-11.627
92.34,-74.928,-11.925
92.37,-77.596,-12.292
92.41,-80.508,-12.739
92.44,-83.421,-13.128
92.47,-86.229,-13.621
92.5,-89.037,-14.182
92.54,-92.476,-14.697
92.57,-95.95,-15.179
92.6,-99.495,-15.625
92.63,-103.25,-16.072
92.67,-107.321,-16.599
92.7,-111.357,-17.023
92.73,-114.937,-17.493
92.76,-118.446,-17.962
92.8,-121.605,-18.272
92.83,-124.413,-18.569
92.86,-127.325,-18.856
92.89,-130.273,-19.108
92.93,-132.8,-19.486
92.96,-135.713,-20.173
92.99,-139.539,-20.838
93.02,-142.943,-20.987
93.06,-145.049,-21.273
93.09,-146.873,-21.64
93.12,-149.927,-22.338
93.15,-153.893,-22.842
93.19,-156.981,-22.957
93.22,-159.016,-23.427
93.25,-161.333,-24.091
93.29,-165.018,-24.4
93.32,-168.738,-24.584
93.35,-171.475,-24.996
93.38,-173.651,-25.351
93.42,-175.546,-25.615
93.45,-177.898,-26.176
93.48,-181.337,-26.806
93.51,-184.952,-27.195
93.55,-187.444,-27.528
93.58,-189.444,-27.883
93.61,-191.866,-28.078
93.64,-194.077,-28.135
93.68,-195.831,-28.261
93.71,-197.481,-28.478
93.74,-199.692,-28.765
93.77,-201.657,-28.983
93.81,-202.991,-29.269
93.84,-204.5,-29.498
93.87,-206.114,-29.647
93.9,-207.904,-29.773
93.94,-209.94,-29.991
93.97,-211.905,-30.369
94.0,-213.87,-30.827
94.03,-215.976,-31.216
94.07,-218.152,-31.652
94.1,-220.363,-31.938
94.13,-222.469,-32.282
94.16,-224.294,-32.454
94.2,-225.838,-32.591
94.23,-227.557,-33.141
94.26,-229.909,-33.485
94.29,-232.33,-33.519
94.33,-234.225,-33.679
94.36,-235.313,-33.759
94.39,-236.436,-33.817
94.42,-238.086,-34.057
94.46,-240.016,-34.401
94.49,-241.841,-34.745
94.52,-243.21,-35.1
94.55,-244.859,-35.455
94.59,-246.614,-35.833
94.62,-247.421,-36.337
94.65,-248.228,-36.852
94.68,-249.667,-37.185
94.72,-251.492,-37.586
94.75,-253.773,-38.01
94.78,-255.774,-38.296
94.81,-257.143,-38.64
94.85,-258.757,-38.88
94.88,-260.266,-38.96
94.91,-261.705,-39.109
94.95,-263.354,-39.212
94.98,-264.513,-39.304
95.01,-265.285,-39.51
95.04,-266.267,-39.693
95.08,-267.25,-39.842
95.11,-268.127,-40.129
95.14,-269.321,-40.232
95.17,-270.374,-39.98
95.21,-271.181,-39.819
95.24,-271.777,-39.911
95.27,-272.409,-40.129
95.3,-273.532,-40.404
95.34,-275.287,-40.495
95.37,-276.305,-40.839
95.4,-277.357,-41.412
95.43,-279.077,-41.469
95.47,-280.2,-41.503
95.5,-280.797,-41.813
95.53,-281.885,-41.996
95.56,-282.622,-42.237
95.6,-282.411,-42.958
95.63,-282.797,-43.394
95.66,-283.394,-43.165
95.69,-283.569,-43.176
95.73,-283.745,-43.302
95.76,-283.569,-43.096
95.79,-283.359,-43.21
95.82,-284.131,-43.313
95.86,-284.482,-43.004
95.89,-284.552,-43.382
95.92,-284.833,-43.371
95.95,-285.114,-43.142
95.99,-284.763,-42.752
96.02,-283.815,-42.214
96.05,-283.078,-42.134
96.08,-282.867,-42.386
96.12,-283.113,-42.294
96.15,-282.13,-42.007
96.18,-280.586,-41.927
96.21,-280.095,-41.561
96.25,-279.639,-40.942
96.28,-278.34,-40.576
96.31,-276.62,-40.587
96.34,-275.919,-40.541
96.38,-275.217,-40.369
96.41,-274.234,-40.289
96.44,-273.076,-40.083
96.47,-271.286,-39.693
96.51,-269.672,-39.384
96.54,-268.619,-39.075
96.57,-267.145,-38.995
96.61,-265.46,-39.178
96.64,-264.127,-39.212
96.67,-263.214,-39.086
96.7,-262.407,-38.869
96.74,-260.828,-38.582
96.77,-258.652,-38.33
96.8,-256.932,-38.078
96.83,-256.195,-37.826
96.87,-255.353,-37.609
96.9,-253.528,-37.574
96.93,-251.212,-37.586
96.96,-249.667,-37.368
97.0,-248.193,-36.555
97.03,-246.298,-36.268
97.06,-245.14,-36.268
97.09,-243.771,-35.741
97.13,-241.174,-35.352
97.16,-239.139,-35.375
97.19,-238.191,-35.157
97.22,-236.717,-34.664
97.26,-234.541,-34.401
97.29,-232.541,-34.126
97.32,-230.365,-33.553
97.35,-228.435,-33.404
97.39,-227.136,-33.404
97.42,-225.768,-33.152
97.45,-224.013,-33.003
97.48,-222.153,-32.797
97.52,-219.801,-32.236
97.55,-217.239,-31.766
97.58,-215.66,-31.48
97.61,-214.256,-31.079
97.65,-212.396,-30.667
97.68,-209.94,-30.38
97.71,-207.974,-30.117
97.74,-206.465,-29.613
97.78,-204.289,-28.971
97.81,-201.376,-28.582
97.84,-198.604,-28.261
97.87,-196.217,-27.997
97.91,-194.603,-27.814
97.94,-193.269,-27.562
97.97,-191.444,-27.207
98.0,-188.988,-26.772
98.04,-186.285,-26.256
98.07,-183.759,-25.855
98.1,-181.512,-25.374
98.13,-179.407,-24.881
98.17,-177.301,-24.584
98.2,-175.336,-24.228
98.23,-172.633,-23.644
98.27,-169.264,-23.175
98.3,-166.176,-22.739
98.33,-163.649,-22.258
98.36,-161.052,-21.662
98.4,-158.069,-21.17
98.43,-155.331,-21.009
98.46,-153.226,-20.7
98.49,-150.839,-20.059
98.53,-147.575,-19.532
98.56,-143.996,-19.005
98.59,-141.048,-18.558
98.62,-138.17,-17.813
98.66,-135.011,-17.321
98.69,-132.309,-17.115
98.72,-129.501,-16.668
98.75,-126.588,-16.175
98.79,-123.465,-15.671
98.82,-120.306,-15.247
98.85,-117.499,-14.697
98.88,-114.481,-14.079
98.92,-111.041,-13.609
98.95,-107.637,-13.243
98.98,-104.408,-12.59
99.01,-100.829,-11.891
99.05,-96.898,-11.352
99.08,-93.248,-10.825
99.11,-89.738,-10.138
99.14,-85.703,-9.565
99.18,-81.947,-9.142
99.21,-78.719,-8.66
99.24,-75.42,-8.122
99.27,-71.98,-7.721
99.31,-68.576,-7.343
99.34,-65.277,-6.793
99.37,-61.838,-6.255
99.4,-58.258,-5.865
99.44,-54.889,-5.567
99.47,-51.801,-5.178
99.5,-48.958,-4.846
99.53,-46.22,-4.513
99.57,-43.027,-4.135
99.6,-39.658,-3.723
99.63,-36.288,-3.311
99.66,-33.165,-2.887
99.7,-29.796,-2.429
99.73,-26.076,-1.993
99.76,-22.005,-1.569
99.79,-17.899,-1.18
99.83,-13.441,-0.836
99.86,-9.23,-0.527
99.89,-4.492,-0.389
99.93,-0.562,-0.367
99.96,0.421,0.367
99.99,0.526,1.501
100.02,1.685,2.623
100.06,5.615,3.46
100.09,10.213,4.307
100.12,14.565,5.361
100.15,18.495,6.094
100.19,22.496,6.449
100.22,26.707,6.747
100.25,30.708,6.999
100.28,34.323,7.194
100.32,37.587,7.435
100.35,40.746,7.79
100.38,43.904,8.202
100.41,47.133,8.592
100.45,50.397,9.027
100.48,53.766,9.542
100.51,57.451,10.024
100.54,61.206,10.482
100.58,64.54,10.94
100.61,67.523,11.375
100.64,70.998,11.719
100.67,74.823,11.937
100.71,78.087,12.189
100.74,81.0,12.567
100.77,83.807,13.071
100.8,86.966,13.54
100.84,90.44,13.999
100.87,93.915,14.365
100.9,97.038,14.652
100.93,99.67,15.053
100.97,102.338,15.534
101.0,105.391,16.061
101.03,109.216,16.565
101.06,113.007,17.034
101.1,116.481,17.573
101.13,119.955,17.962
101.16,123.044,18.214
101.19,125.641,18.718
101.23,128.519,19.245
101.26,131.993,19.772
101.29,135.854,20.23
101.32,139.714,20.872
101.36,143.68,21.525
101.39,146.382,21.514
101.42,148.137,22.006
101.45,150.98,22.545
101.49,155.016,22.9
101.52,158.49,23.037
101.55,160.561,23.472
101.59,162.912,24.125
101.62,166.211,24.171
101.65,169.159,24.148
101.68,171.37,24.481
101.72,173.335,24.778
101.75,175.406,24.996
101.78,177.863,25.546
101.81,180.775,26.222
101.85,183.864,26.714
101.88,186.601,27.173
101.91,189.233,27.585
101.94,191.515,27.791
101.98,193.41,27.986
102.01,195.691,28.169
102.04,198.253,28.387
102.07,200.639,28.627
102.11,202.605,28.857
102.14,204.324,29.063
102.17,205.798,29.292
102.2,207.378,29.28
102.24,208.641,29.349
102.27,210.01,29.727
102.3,212.291,30.094
102.33,214.572,30.403
102.37,216.502,30.747
102.4,218.327,31.193
102.43,220.644,31.514
102.46,222.82,31.514
102.5,224.048,31.697
102.53,225.592,32.167
102.56,228.084,32.373
102.59,229.733,32.763
102.63,230.716,33.45
102.66,232.225,33.702
102.69,233.98,33.954
102.72,236.121,34.401
102.76,238.086,34.722
102.79,239.279,35.088
102.82,240.753,35.558
102.85,243.21,35.913
102.89,245.737,36.177
102.92,247.948,36.52
102.95,249.702,36.761
102.98,251.106,36.681
103.02,252.51,36.658
103.05,254.23,36.875
103.08,255.914,37.185
103.11,257.248,37.437
103.15,258.722,37.7
103.18,260.828,37.872
103.21,262.547,37.895
103.25,263.039,37.872
103.28,263.495,37.975
103.31,265.074,38.032
103.34,266.759,37.975
103.38,267.426,38.101
103.41,268.163,38.536
103.44,269.391,38.846
103.47,270.9,38.949
103.51,271.707,39.086
103.54,272.444,39.361
103.57,273.567,39.476
103.6,274.059,39.705
103.64,273.427,40.69
103.67,274.304,41.595
103.7,275.919,41.595
103.73,276.445,41.698
103.77,277.007,42.179
103.8,278.27,42.145
103.83,278.902,41.881
103.86,278.937,42.179
103.9,279.849,42.5
103.93,281.288,42.512
103.96,282.025,42.534
103.99,282.587,42.706
104.03,283.394,42.706
104.06,284.061,42.855
104.09,284.377,42.546
104.12,284.166,42.363
104.16,284.622,42.718
104.19,285.535,42.615
104.22,285.254,42.363
104.25,284.587,42.294
104.29,284.271,42.214
104.32,284.236,41.962
104.35,283.815,41.458
104.38,282.657,41.412
104.42,282.166,41.778
104.45,282.762,41.744
104.48,282.762,41.423
104.51,281.183,41.389
104.55,279.955,41.263
104.58,279.182,40.782
104.61,277.322,40.553
104.64,275.427,40.759
104.68,274.585,40.942
104.71,274.059,40.896
104.74,273.181,40.862
104.77,271.742,40.828
104.81,270.268,40.61
104.84,268.97,40.278
104.87,267.812,40.026
104.91,266.829,39.877
104.94,265.846,39.808
104.97,264.864,39.693
105.0,263.811,39.51
105.04,262.653,39.281
105.07,261.003,38.903
105.1,259.283,38.536
105.13,257.985,38.216
105.17,256.897,37.929
105.2,255.423,37.631
105.23,253.598,37.391
105.26,251.738,37.311
105.3,250.334,37.173
105.33,248.965,36.738
105.36,247.035,36.291
105.39,245.14,36.074
105.43,243.736,35.879
105.46,242.087,35.34
105.49,239.735,34.985
105.52,238.191,34.917
105.56,237.209,34.481
105.59,234.857,33.702
105.62,231.172,33.542
105.65,229.207,33.851
105.69,228.68,33.576
105.72,227.101,33.221
105.75,225.066,33.233
105.78,223.907,33.129
105.82,222.855,32.545
105.85,221.03,31.915
105.88,218.398,31.514
105.91,215.941,31.159
105.95,213.905,30.712
105.98,212.186,30.357
106.01,210.115,30.174
106.04,208.115,29.968
106.08,206.114,29.567
106.11,203.833,29.097
106.14,201.341,28.753
106.17,199.095,28.467
106.21,196.989,28.169
106.24,195.235,28.009
106.27,194.006,27.642
106.3,192.076,27.321
106.34,189.549,26.932
106.37,186.987,26.405
106.4,184.671,25.958
106.43,182.32,25.489
106.47,179.652,25.042
106.5,177.09,24.824
106.53,175.16,24.458
106.57,173.195,23.908
106.6,170.177,23.346
106.63,166.948,22.865
106.66,164.07,22.338
106.7,161.192,21.697
106.73,158.069,21.273
106.76,155.367,21.055
106.79,153.085,20.62
106.83,150.558,20.036
106.86,147.26,19.348
106.89,143.961,19.142
106.92,141.153,18.615
106.96,137.959,17.802
106.99,134.731,17.332
107.02,131.853,16.943
107.05,129.466,16.53
107.09,126.659,16.015
107.12,123.079,15.58
107.15,119.499,15.167
107.18,116.235,14.732
107.22,113.252,14.216
107.25,110.269,13.747
107.28,107.391,13.346
107.31,104.373,12.83
107.35,100.899,12.235
107.38,97.038,11.673
107.41,93.248,11.02
107.44,89.598,10.31
107.48,85.878,9.577
107.51,82.088,8.993
107.54,78.473,8.649
107.57,75.314,8.271
107.61,71.84,7.893
107.64,68.401,7.572
107.67,65.453,7.206
107.7,62.61,6.816
107.74,59.802,6.553
107.77,57.1,6.175
107.8,53.941,5.625
107.83,50.572,5.109
107.87,47.343,4.651
107.9,44.185,4.17
107.93,40.605,3.723
107.96,36.78,3.253
108.0,32.954,2.761
108.03,29.164,2.303
108.06,25.339,1.993
108.09,21.619,1.707
108.13,17.934,1.409
108.16,14.214,1.077
108.19,9.967,0.779
108.23,5.37,0.642
108.26,1.334,0.573
108.29,-0.175,-0.034
108.32,-0.386,-1.134
108.36,-0.948,-2.337
108.39,-4.247,-3.379
108.42,-9.195,-4.158
108.45,-13.371,-4.926
108.49,-16.67,-5.67
108.52,-20.39,-6.243
108.55,-24.988,-6.816
108.58,-30.287,-7.274
108.62,-35.06,-7.515
108.65,-38.956,-7.778
108.68,-42.395,-8.122
108.71,-45.834,-8.466
108.75,-49.344,-8.752
108.78,-52.573,-9.061
108.81,-55.801,-9.394
108.84,-59.03,-9.646
108.88,-62.013,-9.921
108.91,-64.996,-10.31
108.94,-67.944,-10.745
108.97,-71.033,-11.192
109.01,-74.261,-11.582
109.04,-77.209,-12.017
109.07,-80.263,-12.498
109.1,-83.351,-12.956
109.14,-86.404,-13.495
109.17,-89.809,-14.01
109.2,-93.529,-14.468
109.23,-96.828,-14.846
109.27,-99.741,-15.224
109.3,-102.513,-15.774
109.33,-105.988,-16.404
109.36,-110.129,-16.828
109.4,-113.954,-17.298
109.43,-117.288,-17.836
109.46,-120.306,-18.146
109.49,-123.079,-18.558
109.53,-126.202,-19.039
109.56,-129.326,-19.394
109.59,-132.063,-19.841
109.62,-135.468,-20.437
109.66,-139.854,-21.009
109.69,-143.469,-21.135
109.72,-145.364,-21.227
109.75,-146.909,-21.456
109.79,-150.102,-22.121
109.82,-154.665,-22.659
109.85,-158.209,-22.785
109.89,-160.175,-23.232
109.92,-162.491,-23.896
109.95,-165.755,-24.332
109.98,-169.229,-24.561
110.02,-172.072,-24.87
110.05,-174.283,-25.191
110.08,-176.459,-25.408
110.11,-178.951,-25.775
110.15,-182.6,-26.176
110.18,-185.759,-26.485
110.21,-187.865,-26.84
110.24,-189.584,-27.104
110.28,-191.585,-27.31
110.31,-193.726,-27.516
110.34,-195.375,-27.803
110.37,-197.06,-28.112
110.41,-199.236,-28.478
110.44,-201.517,-28.776
110.47,-203.271,-29.028
110.5,-204.991,-29.223
110.54,-206.886,-29.338
110.57,-209.027,-29.395
110.6,-210.747,-29.555
110.63,-212.08,-29.979
110.67,-213.905,-30.483
110.7,-215.871,-30.964
110.73,-217.871,-31.468
110.76,-220.047,-31.846
110.8,-222.153,-32.018
110.83,-223.662,-32.247
110.86,-224.995,-32.648
110.89,-227.031,-33.095
110.93,-229.277,-33.198
110.96,-231.207,-33.507
110.99,-233.488,-33.989
111.02,-235.735,-34.149
111.06,-236.963,-34.092
111.09,-237.946,-34.481
111.12,-240.051,-34.985
111.15,-242.227,-35.02
111.19,-243.315,-35.157
111.22,-244.473,-35.707
111.25,-246.754,-36.2
111.28,-248.93,-36.394
111.32,-250.018,-36.612
111.35,-251.212,-36.841
111.38,-253.528,-36.864
111.41,-255.563,-36.967
111.45,-257.072,-37.276
111.48,-258.301,-37.54
111.51,-259.669,-37.735
111.55,-261.179,-37.838
111.58,-262.337,-37.883
111.61,-262.196,-38.25
111.64,-262.337,-38.754
111.68,-264.091,-39.052
111.71,-266.197,-39.178
111.74,-266.934,-39.464
111.77,-267.39,-40.198
111.81,-268.9,-40.358
111.84,-269.917,-40.301
111.87,-270.549,-40.667
111.9,-271.812,-40.816
111.94,-273.181,-40.782
111.97,-274.445,-41.171
112.0,-276.094,-41.607
112.03,-277.744,-41.801
112.07,-278.831,-41.962
112.1,-279.744,-42.111
112.13,-280.902,-41.996
112.16,-281.604,-41.675
112.2,-281.885,-41.607
112.23,-282.938,-41.641
112.26,-283.85,-41.538
112.29,-284.096,-41.629
112.33,-284.306,-41.836
112.36,-284.903,-41.71
112.39,-285.008,-41.526
112.42,-284.692,-41.332
112.46,-284.552,-41.263
112.49,-284.692,-41.251
112.52,-284.938,-41.343
112.55,-285.149,-41.481
112.59,-283.429,-41.549
112.62,-280.867,-42.03
112.65,-280.621,-42.305
112.68,-281.288,-42.156
112.72,-280.972,-42.34
112.75,-280.551,-42.832
112.78,-280.762,-42.855
112.81,-282.341,-43.657
112.85,-284.973,-44.516
112.88,-286.096,-44.631
112.91,-286.026,-45.1
112.94,-287.395,-45.318
112.98,-288.869,-44.665
113.01,-288.623,-44.138
113.04,-287.289,-43.714
113.07,-285.605,-42.832
113.11,-283.394,-41.721
113.14,-280.516,-40.564
113.17,-277.322,-39.728
113.21,-274.48,-39.052
113.24,-272.234,-38.582
113.27,-270.128,-38.376
113.3,-267.882,-38.307
113.34,-265.39,-38.09
113.37,-262.688,-37.757
113.4,-260.371,-37.414
113.43,-258.511,-37.231
113.47,-256.932,-37.231
113.5,-255.634,-37.322
113.53,-254.51,-37.265
113.56,-252.931,-37.116
113.6,-250.826,-37.001
113.63,-248.965,-36.704
113.66,-246.404,-36.222
113.69,-244.403,-35.97
113.73,-243.315,-35.799
113.76,-242.473,-35.604
113.79,-241.034,-35.478
113.82,-239.279,-35.455
113.86,-237.77,-35.272
113.89,-236.191,-34.985
113.92,-234.541,-34.619
113.95,-232.927,-34.412
113.99,-231.207,-34.012
114.02,-229.277,-33.542
114.05,-227.171,-33.393
114.08,-225.557,-33.233
114.12,-223.872,-32.728
114.15,-221.381,-32.11
114.18,-219.064,-31.732
114.21,-216.818,-31.297
114.25,-214.993,-30.941
114.28,-213.309,-30.689
114.31,-211.554,-30.495
114.34,-209.764,-30.277
114.38,-207.869,-30.014
114.41,-205.693,-29.532
114.44,-203.131,-29.086
114.47,-200.885,-28.742
114.51,-199.341,-28.352
114.54,-197.797,-27.917
114.57,-195.831,-27.688
114.6,-193.375,-27.505
114.64,-190.497,-27.173
114.67,-187.549,-26.657
114.7,-184.882,-26.245
114.73,-182.881,-25.981
114.77,-180.846,-25.523
114.8,-178.319,-25.111
114.83,-176.564,-25.007
114.87,-175.195,-24.629
114.9,-172.633,-23.828
114.93,-168.562,-23.14
114.96,-165.018,-22.728
115.0,-162.912,-22.304
115.03,-160.526,-21.662
115.06,-157.402,-21.113
115.09,-154.419,-21.032
115.13,-152.383,-20.769
115.16,-149.962,-19.978
115.19,-146.066,-19.383
115.22,-142.451,-19.165
115.26,-139.854,-18.34
115.29,-134.029,-15.568
115.32,-123.149,-13.025
115.35,-112.445,-11.891
115.39,-108.199,-12.418
115.42,-109.848,-13.036
115.45,-110.585,-12.601
115.48,-107.111,-12.521
115.52,-102.548,-13.151
115.55,-101.32,-13.85
115.58,-102.864,-13.77
115.61,-103.566,-13.529
115.65,-101.987,-13.311
115.68,-99.179,-13.025
115.71,-96.231,-12.532
115.74,-93.529,-11.834
115.78,-90.616,-11.066
115.81,-87.387,-10.436
115.84,-84.018,-9.909
115.87,-80.684,-9.359
115.91,-77.315,-8.637
115.94,-73.84,-8.065
115.97,-70.541,-7.572
116.0,-67.172,-6.896
116.04,-63.452,-6.243
116.07,-59.732,-5.9
116.1,-56.433,-5.648
116.13,-53.52,-5.189
116.17,-50.362,-4.674
116.2,-46.852,-4.445
116.23,-43.553,-4.204
116.26,-40.219,-3.563
116.3,-36.745,-3.082
116.33,-33.2,-2.818
116.36,-29.866,-2.577
116.39,-26.743,-2.199
116.43,-23.373,-1.776
116.46,-19.794,-1.478
116.49,-16.284,-1.272
116.52,-12.599,-1.02
116.56,-8.809,-0.916
116.59,-5.334,-0.779
116.62,-1.614,-0.63
