Trigger_Date,2023/06/22
Trigger_Time,T 11:04:30.913 PDT
Samples_Per_Cycle,512
Microseconds_Per_Sample,32.514
Time (ms),Voltage (V),Current (A)
-16.65,-80.228,-12.383
-16.61,-83.702,-12.704
-16.58,-86.966,-12.991
-16.55,-90.16,-13.22
-16.52,-93.248,-13.563
-16.48,-96.512,-13.953
-16.45,-99.811,-14.285
-16.42,-102.829,-14.629
-16.39,-105.917,-15.11
-16.35,-109.357,-15.58
-16.32,-113.042,-16.106
-16.29,-116.762,-16.656
-16.26,-120.131,-17.218
-16.22,-122.868,-17.321
-16.19,-125.009,-17.493
-16.16,-127.747,-18.214
-16.13,-131.186,-18.443
-16.09,-134.274,-18.695
-16.06,-137.082,-19.188
-16.03,-139.96,-19.543
-16.0,-142.838,-19.841
-15.96,-145.294,-19.978
-15.93,-147.47,-20.414
-15.9,-150.945,-21.227
-15.87,-154.98,-21.594
-15.83,-158.069,-21.857
-15.8,-160.771,-22.327
-15.77,-163.86,-22.842
-15.74,-167.159,-23.106
-15.7,-169.861,-23.381
-15.67,-172.388,-23.816
-15.64,-175.301,-24.125
-15.61,-178.003,-24.366
-15.57,-181.091,-24.893
-15.54,-184.25,-25.431
-15.51,-187.163,-25.844
-15.48,-189.725,-26.107
-15.44,-192.181,-26.268
-15.41,-194.498,-26.29
-15.38,-196.252,-26.405
-15.35,-197.937,-26.646
-15.31,-200.253,-26.898
-15.28,-202.57,-27.127
-15.25,-204.675,-27.367
-15.22,-206.36,-27.539
-15.18,-207.623,-27.654
-15.15,-208.992,-27.734
-15.12,-210.606,-27.837
-15.09,-212.396,-28.181
-15.05,-214.397,-28.685
-15.02,-216.292,-29.051
-14.99,-218.327,-29.532
-14.96,-220.889,-29.956
-14.92,-223.065,-30.036
-14.89,-224.539,-30.071
-14.86,-225.768,-30.3
-14.83,-227.873,-30.598
-14.79,-229.488,-30.964
-14.76,-230.646,-31.64
-14.73,-232.225,-32.293
-14.7,-234.436,-32.706
-14.66,-236.542,-32.9
-14.63,-237.63,-32.992
-14.6,-238.753,-33.301
-14.57,-240.929,-33.794
-14.53,-243.771,-34.103
-14.5,-245.877,-34.115
-14.47,-247.316,-34.332
-14.44,-248.93,-34.584
-14.4,-250.755,-34.573
-14.37,-251.878,-34.481
-14.34,-252.966,-34.664
-14.31,-254.51,-34.962
-14.27,-256.441,-35.214
-14.24,-258.371,-35.478
-14.21,-259.81,-35.833
-14.18,-261.038,-36.131
-14.14,-262.267,-36.154
-14.11,-263.495,-36.119
-14.08,-264.618,-36.222
-14.05,-265.741,-36.314
-14.01,-266.864,-36.429
-13.98,-268.092,-36.669
-13.95,-269.531,-37.001
-13.92,-271.181,-37.082
-13.88,-272.023,-37.105
-13.85,-272.62,-37.483
-13.82,-274.199,-37.551
-13.79,-275.076,-37.437
-13.75,-274.234,-38.273
-13.72,-274.76,-39.293
-13.69,-276.515,-39.407
-13.66,-277.252,-39.487
-13.62,-277.814,-39.98
-13.59,-279.182,-40.06
-13.56,-280.305,-39.797
-13.53,-280.621,-39.911
-13.49,-281.429,-40.163
-13.46,-282.867,-40.129
-13.43,-283.534,-39.98
-13.4,-283.113,-40.278
-13.36,-283.289,-40.289
-13.33,-284.692,-40.289
-13.3,-285.745,-39.693
-13.27,-283.99,-39.315
-13.23,-282.797,-39.911
-13.2,-284.552,-40.198
-13.17,-286.377,-39.739
-13.14,-285.5,-39.751
-13.1,-284.482,-40.129
-13.07,-284.622,-40.037
-13.04,-284.868,-39.602
-13.01,-284.096,-39.293
-12.97,-283.008,-39.315
-12.94,-282.797,-39.304
-12.91,-283.078,-39.052
-12.88,-282.622,-38.857
-12.84,-281.393,-38.731
-12.81,-279.604,-38.468
-12.78,-277.498,-38.365
-12.75,-276.129,-38.445
-12.71,-275.708,-38.651
-12.68,-275.462,-38.857
-12.65,-274.866,-38.949
-12.62,-273.743,-38.892
-12.58,-272.234,-38.777
-12.55,-271.075,-38.445
-12.52,-270.338,-37.918
-12.49,-269.356,-37.586
-12.45,-268.198,-37.586
-12.42,-267.075,-37.505
-12.39,-265.706,-37.322
-12.36,-264.127,-37.334
-12.32,-263.039,-37.208
-12.29,-262.161,-36.532
-12.26,-260.161,-36.016
-12.23,-257.669,-36.005
-12.19,-256.265,-35.913
-12.16,-255.458,-35.673
-12.13,-254.51,-35.604
-12.1,-253.387,-35.535
-12.06,-251.562,-35.26
-12.03,-249.352,-34.882
-12.0,-247.878,-34.573
-11.97,-246.93,-34.206
-11.93,-245.807,-33.702
-11.9,-243.701,-33.301
-11.87,-241.104,-33.026
-11.83,-239.139,-32.728
-11.8,-237.489,-32.236
-11.77,-235.384,-31.697
-11.74,-233.032,-31.377
-11.7,-231.102,-31.113
-11.67,-229.488,-30.896
-11.64,-227.803,-30.724
-11.61,-225.662,-30.655
-11.57,-223.451,-30.586
-11.54,-221.275,-30.357
-11.51,-218.994,-29.979
-11.48,-216.783,-29.83
-11.44,-215.274,-29.693
-11.41,-213.87,-29.441
-11.38,-211.975,-29.246
-11.35,-210.22,-29.086
-11.31,-208.746,-28.753
-11.28,-206.851,-28.261
-11.25,-204.079,-27.745
-11.22,-201.447,-27.333
-11.18,-199.551,-26.921
-11.15,-198.112,-26.531
-11.12,-196.533,-26.222
-11.09,-194.147,-25.947
-11.05,-191.129,-25.695
-11.02,-188.531,-25.248
-10.99,-186.636,-24.687
-10.96,-184.531,-24.194
-10.92,-181.688,-23.633
-10.89,-178.529,-23.22
-10.86,-176.003,-23.071
-10.83,-174.178,-22.785
-10.79,-171.931,-22.315
-10.76,-169.159,-21.846
-10.73,-166.422,-21.41
-10.7,-163.684,-20.975
-10.66,-160.982,-20.425
-10.63,-158.209,-20.07
-10.6,-155.928,-20.093
-10.57,-153.752,-19.474
-10.53,-150.243,-18.512
-10.5,-146.838,-18.398
-10.47,-144.276,-17.905
-10.44,-141.995,-17.355
-10.4,-138.872,-16.714
-10.37,-134.695,-16.164
-10.34,-131.186,-15.912
-10.31,-128.589,-15.488
-10.27,-126.308,-15.098
-10.24,-123.956,-14.743
-10.21,-121.254,-14.297
-10.18,-117.99,-13.758
-10.14,-114.656,-13.266
-10.11,-111.427,-12.83
-10.08,-108.128,-12.338
-10.05,-104.689,-11.719
-10.01,-100.864,-11.043
-9.98,-96.828,-10.436
-9.95,-92.932,-9.703
-9.92,-88.931,-9.05
-9.88,-85.001,-8.557
-9.85,-81.421,-8.111
-9.82,-77.911,-7.606
-9.79,-74.402,-7.114
-9.75,-70.752,-6.69
-9.72,-66.962,-6.243
-9.69,-63.277,-5.842
-9.66,-59.978,-5.499
-9.62,-57.205,-5.201
-9.59,-54.538,-4.903
-9.56,-51.45,-4.548
-9.53,-48.08,-4.124
-9.49,-44.641,-3.735
-9.46,-41.202,-3.311
-9.43,-37.727,-2.83
-9.4,-34.077,-2.451
-9.36,-30.779,-2.429
-9.33,-27.971,-2.257
-9.3,-24.707,-1.73
-9.27,-20.811,-1.352
-9.23,-16.881,-0.974
-9.2,-12.915,-0.687
-9.17,-9.09,-0.619
-9.14,-4.878,-0.458
-9.1,-0.842,-0.344
-9.07,0.351,0.309
-9.04,0.456,1.386
-9.01,0.842,2.028
-8.97,2.737,2.383
-8.94,6.142,3.379
-8.91,11.23,4.697
-8.88,16.003,5.579
-8.84,20.039,6.14
-8.81,24.321,6.724
-8.78,29.445,7.217
-8.75,34.709,7.721
-8.71,39.833,8.248
-8.68,44.255,8.477
-8.65,47.729,8.637
-8.62,50.818,8.855
-8.58,53.976,8.947
-8.55,56.679,9.05
-8.52,59.381,9.359
-8.49,62.329,9.657
-8.45,65.453,9.989
-8.42,68.752,10.528
-8.39,72.296,11.146
-8.36,75.841,11.559
-8.32,78.964,11.948
-8.29,81.982,12.509
-8.26,85.597,13.048
-8.23,89.317,13.426
-8.19,92.827,13.827
-8.16,95.915,14.308
-8.13,98.863,14.789
-8.1,102.127,15.167
-8.06,105.356,15.476
-8.03,108.76,15.923
-8.0,112.305,16.347
-7.97,115.393,16.748
-7.93,118.201,17.286
-7.9,121.359,17.768
-7.87,124.834,18.111
-7.84,127.887,18.547
-7.8,130.835,18.833
-7.77,134.239,19.131
-7.74,137.714,19.337
-7.71,140.556,19.44
-7.67,142.978,19.784
-7.64,145.329,20.116
-7.61,148.383,20.78
-7.58,151.822,20.975
-7.54,154.559,21.158
-7.51,156.63,21.571
-7.48,159.192,22.144
-7.45,162.526,22.499
-7.41,165.72,22.671
-7.38,168.176,23.071
-7.35,170.633,23.576
-7.32,173.476,23.85
-7.28,176.038,24.137
-7.25,178.74,24.641
-7.22,182.004,25.111
-7.19,185.127,25.385
-7.15,187.794,25.718
-7.12,190.567,25.993
-7.09,193.024,26.061
-7.06,194.778,26.164
-7.02,196.323,26.462
-6.99,198.358,26.863
-6.96,200.85,27.127
-6.93,203.342,27.287
-6.89,205.272,27.516
-6.86,206.816,27.803
-6.83,208.044,27.814
-6.8,209.203,28.066
-6.76,211.414,28.857
-6.73,213.66,29.189
-6.7,214.642,29.383
-6.67,215.765,29.876
-6.63,218.573,30.667
-6.6,222.083,30.964
-6.57,224.083,31.033
-6.54,225.031,31.388
-6.5,226.68,31.537
-6.47,229.102,31.629
-6.44,231.242,31.697
-6.41,232.927,31.961
-6.37,234.576,32.236
-6.34,235.91,32.316
-6.31,237.103,32.419
-6.28,238.402,32.614
-6.24,239.946,32.774
-6.21,241.209,32.694
-6.18,242.157,32.786
-6.15,243.561,33.061
-6.11,245.21,33.278
-6.08,246.579,33.439
-6.05,247.597,33.748
-6.02,248.965,34.229
-5.98,251.247,34.79
-5.95,254.16,35.214
-5.92,256.581,35.753
-5.88,259.003,36.326
-5.85,261.389,36.589
-5.82,262.723,36.818
-5.79,263.354,37.173
-5.75,264.513,37.379
-5.72,266.162,37.391
-5.69,267.426,37.437
-5.66,268.478,37.666
-5.62,269.742,38.113
-5.59,271.321,38.353
-5.56,272.62,38.319
-5.53,273.497,38.479
-5.49,274.585,38.64
-5.46,275.883,38.571
-5.43,277.042,38.571
-5.4,278.13,38.754
-5.36,279.323,38.983
-5.33,280.305,39.075
-5.3,280.832,39.189
-5.27,281.393,39.201
-5.23,281.85,39.041
-5.2,281.92,39.018
-5.17,282.271,39.098
-5.14,283.078,39.121
-5.1,283.885,39.144
-5.07,284.341,39.304
-5.04,285.008,39.407
-5.01,285.815,39.419
-4.97,286.658,39.602
-4.94,286.412,39.212
-4.91,285.254,39.075
-4.88,285.71,39.613
-4.84,288.062,39.625
-4.81,287.289,38.949
-4.78,282.938,39.579
-4.75,281.464,40.163
-4.71,283.534,40.152
-4.68,285.254,40.014
-4.65,284.271,40.243
-4.62,282.903,40.69
-4.58,283.253,40.656
-4.55,283.92,40.358
-4.52,283.604,40.117
-4.49,281.885,39.842
-4.45,279.99,39.476
-4.42,278.937,39.006
-4.39,278.621,38.662
-4.36,278.34,38.605
-4.32,277.217,38.479
-4.29,275.146,38.181
-4.26,273.392,37.838
-4.23,272.093,37.425
-4.19,270.549,37.036
-4.16,268.654,36.761
-4.13,266.969,36.658
-4.1,266.127,36.646
-4.06,265.425,36.555
-4.03,264.407,36.417
-4.0,263.144,36.211
-3.97,261.775,35.844
-3.93,260.196,35.409
-3.9,258.441,35.077
-3.87,257.002,34.813
-3.84,255.634,34.47
-3.8,253.177,34.355
-3.77,250.053,34.642
-3.74,248.123,34.653
-3.71,246.93,34.378
-3.67,245.737,34.298
-3.64,244.403,34.218
-3.61,242.999,33.897
-3.58,241.245,33.611
-3.54,239.525,33.542
-3.51,238.507,33.416
-3.48,237.384,33.164
-3.45,235.699,32.889
-3.41,233.769,32.557
-3.38,231.699,32.247
-3.35,229.628,31.927
-3.32,227.768,31.549
-3.28,226.013,31.251
-3.25,224.644,31.045
-3.22,223.241,30.758
-3.19,221.275,30.414
-3.15,218.959,30.162
-3.12,216.853,29.968
-3.09,215.414,29.681
-3.06,214.221,29.349
-3.02,212.747,29.028
-2.99,210.852,28.696
-2.96,208.571,28.272
-2.93,206.255,27.734
-2.89,203.728,27.23
-2.86,201.096,26.909
-2.83,199.06,26.6
-2.8,197.13,26.336
-2.76,194.989,26.073
-2.73,192.743,25.683
-2.7,190.146,25.168
-2.67,187.408,24.698
-2.63,184.741,24.297
-2.6,182.425,23.828
-2.57,180.214,23.381
-2.54,178.214,23.083
-2.5,175.967,22.751
-2.47,173.16,22.292
-2.44,170.071,21.766
-2.41,167.334,21.296
-2.37,164.877,20.792
-2.34,161.719,20.15
-2.31,158.63,19.738
-2.28,155.928,19.257
-2.24,152.419,18.478
-2.21,149.014,18.535
-2.18,146.698,18.375
-2.15,144.487,18.008
-2.11,141.785,17.516
-2.08,138.837,17.275
-2.05,136.38,16.943
-2.02,134.309,16.588
-1.98,132.028,16.221
-1.95,128.659,15.396
-1.92,124.588,14.697
-1.89,121.184,14.274
-1.85,118.446,13.747
-1.82,115.498,13.117
-1.79,112.024,12.635
-1.76,108.655,12.212
-1.72,105.18,11.582
-1.69,101.425,10.917
-1.66,97.635,10.31
-1.63,93.564,9.783
-1.59,89.282,9.371
-1.56,85.738,8.947
-1.53,82.579,8.466
-1.5,79.35,8.03
-1.46,76.051,7.664
-1.43,72.717,7.309
-1.4,69.629,6.873
-1.37,66.365,6.404
-1.33,62.785,5.98
-1.3,59.346,5.659
-1.27,56.293,5.235
-1.24,53.275,4.834
-1.2,50.116,4.433
-1.17,46.712,4.113
-1.14,43.343,3.677
-1.11,39.728,3.173
-1.07,35.657,2.566
-1.04,31.761,2.325
-1.01,28.568,2.085
-0.98,25.163,1.638
-0.94,21.338,1.352
-0.91,17.653,1.306
-0.88,14.073,0.974
-0.85,9.827,0.676
-0.81,5.545,0.63
-0.78,1.614,0.836
-0.75,0.14,0.676
-0.72,-0.316,-0.252
-0.68,-0.456,-1.443
-0.65,-1.93,-2.612
-0.62,-6.387,-3.528
-0.59,-11.406,-4.479
-0.55,-15.933,-5.476
-0.52,-20.074,-6.232
-0.49,-24.602,-6.69
-0.46,-29.199,-7.022
-0.42,-33.516,-7.274
-0.39,-37.166,-7.48
-0.36,-40.605,-7.71
-0.33,-44.15,-7.973
-0.29,-47.8,-8.294
-0.26,-51.274,-8.66
-0.23,-54.643,-9.05
-0.2,-58.012,-9.428
-0.16,-61.241,-9.875
-0.13,-64.54,-10.333
-0.1,-67.874,-10.791
-0.07,-71.313,-11.226
-0.03,-74.998,-11.547
0.0,-78.333,-11.845
0.03,-81.456,-12.315
0.07,-84.685,-12.716
0.1,-87.738,-13.14
0.13,-90.897,-13.575
0.16,-93.845,-14.022
0.2,-96.582,-14.514
0.23,-99.881,-14.904
0.26,-104.092,-15.179
0.29,-108.304,-15.499
0.33,-111.813,-15.763
0.36,-114.621,-16.038
0.39,-117.499,-16.37
0.42,-120.377,-16.645
0.46,-123.149,-17.046
0.49,-126.027,-17.516
0.52,-129.396,-17.939
0.55,-132.73,-18.329
0.59,-136.38,-18.902
0.62,-139.995,-19.303
0.65,-142.978,-19.532
0.68,-145.224,-19.795
0.72,-147.4,-20.15
0.75,-150.523,-20.677
0.78,-153.963,-20.895
0.81,-156.735,-21.101
0.85,-159.402,-21.559
0.88,-162.315,-22.052
0.91,-165.158,-22.373
0.94,-167.79,-22.728
0.98,-170.563,-23.129
1.01,-173.195,-23.507
1.04,-176.143,-23.747
1.07,-179.056,-24.102
1.11,-182.074,-24.698
1.14,-185.408,-25.099
1.17,-188.075,-25.363
1.2,-190.251,-25.706
1.24,-192.357,-26.084
1.27,-194.849,-26.416
1.3,-196.884,-26.21
1.33,-198.183,-26.462
1.37,-200.604,-27.001
1.4,-203.728,-27.402
1.43,-205.728,-27.276
1.46,-206.219,-27.184
1.5,-207.027,-27.333
1.53,-209.308,-27.654
1.56,-212.186,-27.757
1.59,-213.8,-27.963
1.63,-214.958,-28.49
1.66,-216.608,-28.811
1.69,-218.784,-29.063
1.72,-221.1,-29.269
1.76,-223.1,-29.464
1.79,-224.609,-29.567
1.82,-225.943,-29.865
1.85,-227.768,-30.3
1.89,-230.33,-30.655
1.92,-232.576,-30.85
1.95,-234.857,-31.445
1.98,-237.209,-31.755
2.02,-238.542,-31.583
2.05,-239.279,-31.617
2.08,-240.823,-31.869
2.11,-243.175,-31.938
2.15,-245.14,-31.995
2.18,-246.579,-32.305
2.21,-247.141,-32.958
2.24,-247.105,-33.656
2.28,-247.807,-34.195
2.31,-249.562,-34.584
2.34,-251.878,-35.077
2.37,-253.844,-35.661
2.41,-255.809,-36.074
2.44,-257.704,-36.314
2.47,-259.705,-36.555
2.5,-261.635,-36.532
2.54,-262.337,-36.474
2.57,-262.758,-36.589
2.6,-264.197,-36.715
2.63,-266.092,-36.669
2.67,-267.32,-36.807
2.7,-268.163,-37.196
2.73,-269.531,-37.631
2.76,-271.146,-37.735
2.8,-272.339,-37.666
2.83,-273.251,-37.838
2.86,-274.445,-37.964
2.89,-275.743,-37.918
2.93,-276.901,-38.147
2.96,-278.481,-38.307
2.99,-279.884,-38.307
3.02,-280.656,-38.422
3.06,-281.218,-38.548
3.09,-281.85,-38.422
3.12,-282.166,-38.193
3.15,-282.306,-38.078
3.19,-282.938,-38.193
3.22,-283.429,-38.239
3.25,-282.797,-38.628
3.28,-282.095,-38.937
3.32,-282.411,-39.189
3.35,-283.815,-39.43
3.38,-284.026,-39.041
3.41,-283.113,-38.995
3.45,-283.99,-39.785
3.48,-285.886,-39.648
3.51,-285.464,-39.396
3.54,-284.868,-39.842
3.58,-285.675,-39.877
3.61,-285.921,-39.476
3.64,-284.271,-39.063
3.67,-283.043,-38.96
3.71,-283.604,-38.903
3.74,-284.306,-38.697
3.77,-283.604,-38.548
3.8,-282.13,-38.456
3.84,-281.218,-38.078
3.87,-280.27,-37.677
3.9,-279.077,-37.54
3.93,-278.059,-37.528
3.97,-277.322,-37.528
4.0,-276.55,-37.597
4.03,-275.743,-37.563
4.06,-274.48,-37.391
4.1,-273.111,-37.082
4.13,-271.918,-36.715
4.16,-270.619,-36.303
4.19,-269.11,-36.085
4.23,-266.864,-36.303
4.26,-265.039,-36.6
4.29,-264.302,-36.623
4.32,-263.635,-36.589
4.36,-262.231,-36.394
4.39,-260.02,-36.062
4.42,-257.809,-35.89
4.45,-256.476,-35.776
4.49,-255.634,-35.615
4.52,-254.861,-35.363
4.55,-253.879,-35.157
4.58,-252.721,-34.928
4.62,-250.861,-34.321
4.65,-248.123,-33.771
4.68,-246.439,-33.874
4.71,-245.912,-33.633
4.75,-244.333,-32.992
4.78,-241.28,-32.728
4.81,-239.244,-32.706
4.84,-238.261,-32.224
4.88,-236.331,-31.537
4.91,-233.383,-31.205
4.94,-231.348,-31.193
4.97,-230.47,-31.01
5.01,-229.417,-30.735
5.04,-227.557,-30.678
5.07,-225.732,-30.621
5.1,-224.258,-30.231
5.14,-222.328,-29.704
5.17,-220.117,-29.326
5.2,-217.941,-28.983
5.23,-215.695,-28.627
5.27,-213.344,-28.341
5.3,-211.168,-28.146
5.33,-209.448,-27.894
5.36,-207.518,-27.654
5.4,-204.851,-27.333
5.43,-202.078,-26.989
5.46,-200.148,-26.726
5.49,-198.639,-26.462
5.53,-197.2,-26.21
5.56,-195.48,-26.004
5.59,-193.48,-25.683
5.62,-191.058,-25.202
5.66,-188.181,-24.675
5.69,-185.408,-24.24
5.72,-182.916,-23.793
5.75,-180.424,-23.335
5.79,-178.038,-23.037
5.82,-176.143,-22.819
5.85,-174.002,-22.384
5.88,-171.124,-21.914
5.92,-168.036,-21.468
5.95,-165.439,-20.998
5.98,-162.877,-20.448
6.02,-159.894,-19.967
6.05,-157.051,-19.818
6.08,-155.156,-19.681
6.11,-152.875,-18.65
6.15,-148.979,-18.054
6.18,-145.54,-17.871
6.21,-142.557,-17.344
6.24,-139.644,-16.954
6.28,-136.415,-16.393
6.31,-133.186,-16.198
6.34,-130.73,-15.98
6.37,-128.203,-15.58
6.41,-125.536,-15.19
6.44,-122.658,-14.732
6.47,-119.394,-14.228
6.5,-116.2,-13.724
6.54,-113.358,-13.197
6.57,-110.339,-12.624
6.6,-106.935,-12.074
6.63,-103.075,-11.478
6.67,-98.863,-10.94
6.7,-94.933,-10.344
6.73,-90.897,-9.668
6.76,-86.896,-9.096
6.8,-83.141,-8.546
6.83,-79.526,-8.065
6.86,-76.157,-7.584
6.89,-72.612,-7.114
6.93,-69.067,-6.667
6.96,-65.523,-6.22
6.99,-62.013,-5.842
7.02,-58.679,-5.579
7.06,-55.661,-5.338
7.09,-52.853,-5.006
7.12,-49.976,-4.662
7.15,-46.992,-4.296
7.19,-43.869,-3.895
7.22,-40.289,-3.471
7.25,-36.78,-3.036
7.28,-33.376,-2.566
7.32,-29.585,-2.051
7.35,-25.655,-1.707
7.38,-21.864,-1.489
7.41,-18.6,-1.558
7.45,-15.688,-1.386
7.48,-12.003,-0.939
7.51,-7.756,-0.573
7.54,-2.948,-0.607
7.58,-0.211,-0.573
7.61,0.456,0.332
7.64,0.456,1.455
7.67,1.93,2.566
7.71,6.177,3.517
7.74,11.195,4.41
7.77,15.231,5.166
7.8,18.495,5.865
7.84,22.707,6.518
7.87,27.585,7.034
7.9,32.463,7.389
7.93,36.639,7.698
7.97,40.605,8.03
8.0,44.395,8.351
8.03,48.01,8.672
8.06,51.274,8.935
8.1,54.327,9.119
8.13,57.135,9.394
8.16,59.978,9.783
8.19,63.171,10.115
8.23,66.47,10.459
8.26,69.769,10.906
8.29,73.033,11.318
8.32,76.227,11.685
8.36,79.631,12.017
8.39,83.176,12.452
8.42,86.615,12.865
8.45,89.809,13.277
8.49,93.073,13.621
8.52,96.266,13.941
8.55,99.46,14.285
8.58,102.232,14.629
8.62,105.075,15.11
8.65,108.655,15.602
8.68,112.515,16.003
8.71,115.884,16.404
8.75,118.622,16.794
8.78,121.359,17.183
8.81,124.413,17.55
8.84,127.852,17.997
8.88,131.151,18.489
8.91,134.59,19.028
8.94,138.521,19.83
8.97,143.118,20.345
9.01,145.575,19.795
9.04,146.628,20.242
9.07,149.821,21.239
9.1,153.857,21.17
9.14,155.998,21.101
9.17,157.156,21.685
9.2,160.104,22.292
9.23,164.175,22.384
9.27,167.334,22.636
9.3,169.615,23.197
9.33,172.002,23.541
9.36,174.423,23.782
9.4,177.441,24.274
9.43,180.916,24.836
9.46,184.109,25.271
9.49,186.882,25.615
9.53,189.584,25.958
9.56,192.287,26.176
9.59,194.849,26.245
9.62,196.779,26.325
9.66,198.323,26.531
9.69,200.113,26.852
9.72,202.394,26.966
9.75,204.5,27.035
9.79,206.57,27.482
9.82,208.43,27.7
9.85,209.659,27.688
9.88,210.712,27.814
9.92,212.572,28.169
9.95,214.853,28.536
9.98,216.888,28.868
10.01,218.924,29.177
10.05,221.135,29.429
10.08,223.03,29.635
10.11,224.574,29.853
10.14,226.189,30.014
10.18,227.873,30.288
10.21,229.347,30.632
10.24,230.365,31.216
10.27,231.453,31.766
10.31,233.067,32.018
10.34,234.822,32.35
10.37,236.752,32.774
10.4,238.963,33.107
10.44,241.104,33.233
10.47,242.262,33.347
10.5,243.28,33.691
10.53,245.035,33.966
10.57,247.281,34.16
10.6,249.141,34.275
10.63,250.369,34.401
10.66,251.843,34.768
10.7,254.335,35.054
10.73,256.827,35.146
10.76,258.371,35.592
10.79,259.81,36.177
10.83,261.916,36.314
10.86,264.127,36.291
10.89,265.881,36.348
10.92,267.039,36.406
10.96,267.812,36.532
10.99,269.04,36.772
11.02,270.724,36.956
11.05,271.848,36.99
11.09,272.655,37.231
11.12,273.813,37.311
11.15,274.69,37.208
11.18,275.146,37.265
11.22,274.866,37.666
11.25,274.831,38.284
11.28,275.813,38.708
11.31,276.866,38.937
11.35,277.463,39.293
11.38,278.481,39.487
11.41,279.674,39.43
11.44,280.411,39.361
11.48,280.656,39.499
11.51,281.288,39.774
11.54,282.552,39.854
11.57,283.324,39.854
11.61,283.359,40.014
11.64,283.815,40.232
11.67,284.903,40.152
11.7,285.114,39.98
11.74,284.727,40.186
11.77,285.57,40.266
11.8,286.588,40.129
11.83,286.693,39.968
11.87,286.237,39.934
11.9,286.026,39.51
11.93,284.868,38.972
11.97,283.955,39.098
12.0,284.166,39.029
12.03,284.587,38.697
12.06,284.412,38.926
12.1,284.727,39.281
12.13,283.955,38.72
12.16,282.341,38.273
12.19,280.762,37.918
12.23,278.691,38.17
12.26,276.971,38.25
12.29,275.462,38.216
12.32,274.69,38.479
12.36,274.585,38.662
12.39,273.883,38.617
12.42,272.269,38.525
12.45,270.76,38.319
12.49,269.426,37.929
12.52,268.057,37.654
12.55,266.934,37.62
12.58,266.162,37.597
12.62,265.179,37.437
12.65,263.916,37.219
12.68,262.512,36.864
12.71,260.933,36.394
12.75,259.319,35.959
12.78,257.809,35.65
12.81,256.406,35.443
12.84,254.826,35.283
12.88,253.458,35.249
12.91,252.37,35.031
12.94,251.071,34.664
12.97,249.036,34.298
13.01,247.0,34.138
13.04,245.596,33.759
13.07,243.947,33.21
13.1,242.122,33.107
13.14,240.508,32.763
13.17,238.437,32.27
13.2,235.91,32.121
13.23,233.524,32.018
13.27,231.699,31.766
13.3,230.435,31.64
13.33,229.031,31.743
13.36,227.417,31.755
13.4,225.768,31.64
13.43,224.434,31.468
13.46,223.276,30.987
13.49,221.065,30.54
13.53,218.433,30.334
13.56,216.537,30.014
13.59,214.993,29.601
13.62,213.554,29.28
13.66,211.624,28.971
13.69,209.097,28.65
13.72,206.5,28.146
13.75,203.868,27.585
13.79,201.727,27.104
13.82,199.832,26.6
13.85,197.726,26.187
13.88,195.305,25.935
13.92,192.497,25.752
13.95,190.146,25.5
13.98,188.251,25.042
14.01,185.97,24.652
14.05,183.478,24.32
14.08,180.811,23.919
14.11,178.424,23.656
14.14,176.74,23.415
14.18,174.95,22.991
14.21,172.212,22.487
14.24,169.089,21.937
14.27,166.211,21.491
14.31,163.614,20.883
14.34,160.631,20.219
14.37,157.507,19.933
14.4,154.91,19.772
14.44,152.664,19.337
14.47,150.032,18.718
14.5,147.224,18.111
14.53,144.557,17.836
14.57,141.714,17.115
14.6,138.065,16.588
14.63,134.625,16.359
14.66,131.958,16.015
14.7,129.677,15.58
14.73,126.553,14.915
14.76,122.588,14.423
14.79,119.008,14.045
14.83,116.306,13.575
14.86,113.708,12.979
14.89,110.55,12.532
14.92,106.83,12.154
14.96,103.145,11.604
14.99,99.53,10.974
15.02,95.88,10.39
15.05,92.265,9.783
15.09,88.721,9.13
15.12,84.93,8.523
15.15,81.035,8.076
15.18,77.034,7.675
15.22,73.419,7.263
15.25,70.155,6.908
15.28,67.313,6.701
15.31,64.61,6.461
15.35,61.662,6.071
15.38,58.469,5.613
15.41,55.345,5.247
15.44,52.397,4.88
15.48,49.414,4.445
15.51,46.115,3.906
15.54,42.22,3.414
15.57,38.429,3.059
15.61,35.06,2.669
15.64,31.796,2.199
15.67,27.901,1.764
15.7,23.935,1.409
15.74,20.145,1.157
15.77,16.565,0.939
15.8,12.634,0.756
15.83,8.563,0.55
15.87,3.896,0.435
15.9,0.562,0.493
15.93,-0.246,-0.172
15.96,-0.421,-1.352
16.0,-1.369,-2.406
16.03,-5.019,-3.265
16.06,-9.792,-4.181
16.09,-14.143,-5.121
16.13,-17.618,-5.9
16.16,-21.584,-6.461
16.19,-26.427,-6.805
16.22,-31.235,-7.137
16.26,-35.446,-7.4
16.29,-38.921,-7.618
16.32,-42.395,-7.859
16.35,-46.01,-8.088
16.39,-49.59,-8.305
16.42,-52.748,-8.603
16.45,-55.661,-9.027
16.48,-58.784,-9.416
16.52,-61.873,-9.863
16.55,-65.277,-10.31
16.58,-68.962,-10.642
16.61,-72.472,-10.906
16.65,-75.49,-11.204
16.68,-78.052,-11.685
16.71,-80.859,-12.246
16.74,-84.369,-12.727
16.78,-88.054,-13.231
16.81,-91.528,-13.747
16.84,-94.652,-14.171
16.87,-97.565,-14.594
16.91,-100.793,-14.995
16.94,-104.443,-15.408
16.97,-108.199,-15.866
17.0,-111.427,-16.29
17.04,-114.41,-16.782
17.07,-117.499,-17.252
17.1,-120.728,-17.607
17.13,-124.237,-18.02
17.17,-127.536,-18.398
17.2,-130.87,-18.707
17.23,-134.415,-18.936
17.26,-138.029,-19.417
17.3,-141.434,-19.692
17.33,-144.031,-19.875
17.36,-146.101,-20.173
17.39,-148.734,-20.666
17.43,-152.243,-21.124
17.46,-155.823,-21.376
17.49,-158.771,-21.697
17.52,-161.578,-22.178
17.56,-164.597,-22.545
17.59,-167.545,-22.682
17.62,-170.177,-22.854
17.65,-172.528,-23.152
17.69,-174.669,-23.438
17.72,-176.669,-23.805
17.75,-179.266,-24.389
17.78,-182.811,-24.95
17.82,-186.356,-25.282
17.85,-188.918,-25.592
17.88,-191.269,-25.878
17.92,-193.585,-26.004
17.95,-195.621,-26.142
17.98,-197.551,-26.29
18.01,-199.516,-26.497
18.05,-201.482,-26.875
18.08,-203.938,-27.402
18.11,-206.079,-27.356
18.14,-207.097,-27.287
18.18,-208.15,-27.562
18.21,-210.606,-28.02
18.24,-212.923,-27.974
18.27,-214.011,-28.249
18.31,-214.993,-29.154
18.34,-217.38,-29.979
18.37,-219.766,-30.025
18.4,-221.17,-30.254
18.44,-222.749,-30.781
18.47,-224.574,-31.022
18.5,-226.399,-31.148
18.53,-228.365,-31.594
18.57,-230.716,-31.938
18.6,-232.822,-32.076
18.63,-234.647,-32.694
18.66,-236.296,-32.958
18.7,-237.454,-32.877
18.73,-239.139,-33.084
18.76,-241.595,-33.416
18.79,-243.666,-33.588
18.83,-245.07,-33.851
18.86,-246.579,-34.275
18.89,-248.755,-34.55
18.92,-250.931,-34.516
18.96,-252.264,-34.504
18.99,-253.107,-34.642
19.02,-254.335,-34.768
19.05,-255.984,-34.882
19.09,-257.669,-35.123
19.12,-259.424,-35.398
19.15,-261.003,-35.569
19.18,-261.565,-35.73
19.22,-261.459,-36.096
19.25,-262.337,-36.452
19.28,-264.232,-36.669
19.31,-265.881,-36.91
19.35,-267.32,-37.276
19.38,-268.619,-37.643
19.41,-270.023,-37.998
19.44,-271.356,-38.113
19.48,-272.479,-38.17
19.51,-273.567,-38.284
19.54,-274.69,-38.376
19.57,-275.989,-38.456
19.61,-277.182,-38.674
19.64,-278.516,-38.914
19.67,-279.814,-38.983
19.7,-280.551,-38.995
19.74,-281.078,-39.063
19.77,-281.815,-38.926
19.8,-282.271,-38.491
19.83,-281.885,-38.525
19.87,-282.481,-38.903
19.9,-283.71,-38.685
19.93,-284.131,-38.456
19.96,-284.096,-38.594
20.0,-284.798,-38.892
20.03,-285.675,-38.754
20.06,-284.798,-38.273
20.09,-283.569,-38.181
20.13,-284.798,-38.892
20.16,-287.009,-38.777
20.19,-285.359,-38.674
20.22,-281.148,-39.487
20.26,-280.13,-40.129
20.29,-281.92,-40.026
20.32,-282.411,-39.774
20.35,-281.393,-40.186
20.39,-281.078,-40.564
20.42,-281.534,-40.507
20.45,-281.85,-40.358
20.48,-281.639,-40.209
20.52,-280.305,-39.911
20.55,-278.867,-39.602
20.58,-278.2,-39.293
20.61,-277.989,-39.063
20.65,-277.463,-38.983
20.68,-276.55,-38.846
20.71,-275.252,-38.536
20.74,-273.672,-38.239
20.78,-272.444,-37.815
20.81,-271.111,-37.299
20.84,-269.742,-36.933
20.87,-268.584,-36.784
20.91,-267.075,-36.715
20.94,-265.601,-36.646
20.97,-264.337,-36.555
21.0,-263.179,-36.44
21.04,-261.565,-36.131
21.07,-259.599,-35.821
21.1,-258.02,-35.604
21.13,-256.792,-35.409
21.17,-255.458,-35.237
21.2,-253.528,-35.226
21.23,-251.492,-35.34
21.26,-250.053,-35.237
21.3,-248.404,-34.699
21.33,-246.228,-34.47
21.36,-245.456,-34.653
21.39,-244.965,-34.149
21.43,-242.824,-33.656
21.46,-239.876,-33.485
21.49,-237.805,-33.267
21.52,-236.647,-32.969
21.56,-235.454,-32.717
21.59,-233.559,-32.396
21.62,-230.716,-31.812
21.65,-228.119,-31.766
21.69,-227.592,-31.789
21.72,-227.347,-31.331
21.75,-225.522,-31.045
21.78,-222.82,-30.896
21.82,-220.363,-30.414
21.85,-218.503,-29.91
21.88,-217.134,-29.624
21.91,-215.59,-29.361
21.95,-213.519,-29.017
21.98,-211.063,-28.753
22.01,-208.957,-28.57
22.04,-207.062,-28.226
22.08,-204.921,-27.585
22.11,-202.464,-27.069
22.14,-199.902,-26.737
22.17,-197.551,-26.416
22.21,-195.375,-26.222
22.24,-193.69,-26.038
22.27,-191.971,-25.718
22.3,-189.83,-25.237
22.34,-186.952,-24.721
22.37,-184.145,-24.377
22.4,-181.723,-23.942
22.43,-179.547,-23.484
22.47,-177.547,-23.232
22.5,-175.406,-22.968
22.53,-173.055,-22.43
22.56,-170.247,-21.857
22.6,-167.264,-21.41
22.63,-164.491,-20.906
22.66,-161.508,-20.288
22.69,-158.42,-19.875
22.73,-155.893,-19.875
22.76,-154.349,-19.555
22.79,-151.12,-18.443
22.82,-146.663,-18.168
22.86,-143.294,-17.894
22.89,-141.293,-17.47
22.92,-139.328,-17.011
22.95,-136.064,-16.393
22.99,-132.239,-16.175
23.02,-129.115,-15.854
23.05,-126.694,-15.385
23.08,-124.202,-14.904
23.12,-121.219,-14.4
23.15,-117.674,-13.85
23.18,-114.13,-13.38
23.21,-110.69,-12.991
23.25,-107.848,-12.475
23.28,-104.935,-11.799
23.31,-101.495,-11.181
23.34,-97.6,-10.585
23.38,-93.353,-9.898
23.41,-89.247,-9.268
23.44,-85.632,-8.763
23.47,-82.368,-8.248
23.51,-78.789,-7.71
23.54,-74.683,-7.332
23.57,-70.787,-7.057
23.6,-67.734,-6.747
23.64,-64.891,-6.369
23.67,-61.803,-6.014
23.7,-58.574,-5.67
23.73,-55.591,-5.304
23.77,-52.608,-4.892
23.8,-49.695,-4.433
23.83,-46.501,-3.987
23.87,-43.097,-3.517
23.9,-39.307,-2.967
23.93,-35.236,-2.486
23.96,-31.235,-2.165
24.0,-27.515,-1.902
24.03,-23.935,-1.546
24.06,-20.18,-1.386
24.09,-16.565,-1.294
24.13,-12.95,-1.031
24.16,-8.984,-0.825
24.19,-5.194,-0.756
24.22,-1.369,-0.733
24.26,0.211,-0.206
24.29,0.456,0.813
24.32,0.772,2.016
24.35,3.615,3.185
24.39,8.704,3.998
24.42,13.196,4.8
24.45,16.74,5.682
24.48,20.776,6.266
24.52,25.479,6.541
24.55,30.042,6.931
24.58,34.113,7.354
24.61,37.938,7.652
24.65,41.412,7.916
24.68,44.992,8.294
24.71,48.502,8.637
24.74,51.976,8.878
24.78,55.345,9.187
24.81,58.714,9.508
24.84,61.838,9.806
24.87,64.575,10.207
24.91,67.558,10.642
24.94,70.787,11.089
24.97,74.191,11.478
25.0,77.28,11.879
25.04,80.403,12.338
25.07,83.807,12.853
25.1,87.247,13.323
25.13,90.686,13.792
25.17,93.95,14.171
25.2,96.898,14.571
25.23,99.881,14.984
25.26,103.391,15.305
25.3,107.005,15.625
25.33,110.76,15.992
25.36,114.34,16.29
25.39,117.358,16.714
25.43,120.236,17.092
25.46,123.079,17.401
25.49,126.167,17.813
25.52,129.326,18.191
25.56,132.344,18.592
25.59,135.468,19.016
25.62,138.837,19.612
25.65,142.908,20.334
25.69,146.277,20.242
25.72,148.663,20.712
25.75,151.752,21.181
25.78,155.016,21.353
25.82,157.788,21.64
25.85,160.315,21.972
25.88,163.193,22.384
25.91,165.965,22.602
25.95,168.282,22.842
25.98,170.493,23.289
26.01,172.984,23.69
26.04,175.792,23.965
26.08,178.845,24.366
26.11,181.828,24.927
26.14,184.601,25.42
26.17,187.198,25.764
26.21,189.76,26.153
26.24,192.252,26.416
26.27,194.708,26.531
26.3,196.954,26.634
26.34,199.2,26.829
26.37,201.482,26.989
26.4,203.377,27.104
26.43,204.886,27.31
26.47,206.5,27.596
26.5,208.15,27.539
26.53,208.852,27.39
26.56,210.396,28.261
26.6,213.765,28.753
26.63,216.257,28.708
26.66,217.661,29.131
26.69,219.31,29.647
26.73,221.661,29.876
26.76,223.872,29.888
26.79,225.417,30.162
26.82,226.855,30.506
26.86,228.996,30.793
26.89,231.628,30.884
26.92,233.348,31.159
26.95,234.612,31.629
26.99,236.191,31.697
27.02,237.595,31.549
27.05,238.858,31.709
27.08,240.753,31.995
27.12,242.648,32.076
27.15,243.947,32.156
27.18,244.789,32.454
27.21,246.123,32.866
27.25,247.702,33.393
27.28,248.404,33.897
27.31,249.176,34.538
27.34,251.492,35.226
27.38,254.686,35.718
27.41,257.213,36.165
27.44,259.248,36.738
27.47,261.038,37.173
27.51,262.933,37.299
27.54,264.513,37.219
27.57,265.601,37.127
27.6,266.653,37.059
27.64,267.812,37.013
27.67,269.04,37.116
27.7,270.268,37.334
27.73,271.532,37.357
27.77,272.409,37.379
27.8,273.146,37.494
27.83,273.848,37.563
27.86,274.76,37.586
27.9,275.638,37.631
27.93,276.515,37.906
27.96,277.849,38.136
27.99,279.884,38.811
28.03,282.973,39.739
28.06,286.026,40.266
28.09,288.026,40.942
28.12,290.623,41.618
28.16,293.396,41.652
28.19,295.116,41.515
28.22,295.467,41.721
28.25,294.765,41.698
28.29,293.536,40.919
28.32,291.817,40.14
28.35,290.483,39.728
28.38,289.851,39.419
28.42,289.044,39.293
28.45,288.483,39.671
28.48,288.623,40.129
28.51,288.693,40.232
28.55,287.851,40.358
28.58,287.044,40.598
28.61,287.079,40.518
28.64,287.325,40.209
28.68,287.254,40.163
28.71,287.325,40.255
28.74,287.114,40.129
28.77,286.096,39.774
28.81,284.447,39.304
28.84,282.762,38.754
28.87,281.534,38.227
28.9,280.376,37.838
28.94,278.902,37.78
28.97,277.919,37.895
29.0,277.393,37.861
29.03,276.129,37.631
29.07,274.164,37.242
29.1,271.848,36.818
29.13,269.952,36.44
29.16,268.373,36.2
29.2,267.32,36.131
29.23,266.408,36.119
29.26,264.478,36.28
29.29,262.091,36.497
29.33,260.301,36.383
29.36,259.108,36.108
29.39,258.125,35.902
29.42,257.072,35.776
29.46,255.739,35.695
29.49,254.44,35.627
29.52,253.563,35.627
29.55,253.177,35.638
29.59,252.229,35.272
29.62,250.089,34.813
29.65,247.913,34.481
29.68,246.509,34.218
29.72,245.737,33.92
29.75,244.579,33.496
29.78,242.648,33.187
29.82,240.402,32.992
29.85,238.437,32.534
29.88,236.296,32.007
29.91,234.225,31.686
29.95,232.611,31.468
29.98,231.172,31.216
30.01,229.347,30.93
30.04,227.382,30.793
30.08,225.557,30.38
30.11,223.346,29.853
30.14,220.995,29.475
30.17,218.854,29.257
30.21,217.064,28.891
30.24,214.467,28.605
30.27,211.519,28.662
30.3,209.273,28.696
30.34,207.729,28.387
30.37,206.044,28.032
30.4,204.008,27.619
30.43,201.517,27.241
30.47,199.2,27.035
30.5,197.516,26.783
30.53,196.042,26.577
30.56,194.427,26.497
30.6,192.603,26.05
30.63,189.76,25.443
30.66,186.812,24.985
30.69,184.531,24.675
30.73,179.828,22.281
30.76,167.966,18.272
30.79,154.84,17.229
30.82,149.786,17.71
30.86,151.401,17.951
30.89,153.612,18.718
30.92,153.05,19.555
30.95,150.629,20.082
30.99,149.611,20.769
31.02,151.225,21.319
31.05,153.05,21.239
31.08,152.068,20.735
31.12,148.944,20.253
31.15,146.101,19.784
31.18,143.89,19.028
31.21,141.469,18.065
31.25,138.135,17.149
31.28,134.555,16.519
31.31,131.607,16.118
31.34,129.396,15.706
31.38,127.115,15.35
31.41,124.869,15.03
31.44,122.096,14.537
31.47,118.762,13.907
31.51,115.218,13.392
31.54,112.059,13.048
31.57,109.532,12.716
31.6,106.9,12.246
31.64,103.566,11.73
31.67,99.846,11.284
31.7,96.231,10.722
31.73,92.546,9.932
31.77,88.58,9.313
31.8,84.825,8.89
31.83,81.772,8.454
31.86,78.648,7.881
31.9,75.139,7.458
31.93,71.489,7.034
31.96,67.769,6.541
31.99,64.049,6.014
32.03,60.574,5.693
32.06,57.521,5.407
32.09,54.538,5.098
32.12,51.274,4.8
32.16,48.291,4.548
32.19,45.413,4.135
32.22,42.079,3.723
32.25,38.605,3.196
32.29,34.955,2.658
32.32,31.305,2.28
32.35,27.725,1.913
32.38,23.83,1.569
32.42,19.934,1.34
32.45,16.249,1.18
32.48,12.915,1.111
32.51,9.546,1.123
32.55,6.036,0.974
32.58,1.93,0.687
32.61,-0.211,0.046
32.64,-0.351,-1.249
32.68,-1.193,-2.555
32.71,-4.984,-3.654
32.74,-10.529,-4.639
32.77,-15.582,-5.693
32.81,-20.039,-6.404
32.84,-24.356,-6.759
32.87,-28.743,-7.137
32.9,-33.411,-7.469
32.94,-37.482,-7.538
32.97,-40.675,-7.698
33.0,-43.729,-7.996
33.03,-46.782,-8.351
33.07,-49.87,-8.592
33.1,-52.748,-8.775
33.13,-55.696,-9.061
33.16,-58.784,-9.565
33.2,-62.119,-10.035
33.23,-65.663,-10.356
33.26,-69.208,-10.677
33.29,-72.542,-11.066
33.33,-75.876,-11.398
33.36,-78.964,-11.776
33.39,-82.298,-12.292
33.42,-85.843,-12.784
33.46,-89.598,-13.266
33.49,-93.108,-13.609
33.52,-96.126,-13.987
33.55,-98.969,-14.354
33.59,-101.952,-14.697
33.62,-105.11,-15.11
33.65,-108.374,-15.488
33.68,-111.533,-15.935
33.72,-114.937,-16.485
33.75,-118.271,-16.771
33.78,-120.903,-17.011
33.81,-123.5,-17.47
33.85,-126.553,-17.848
33.88,-129.887,-18.203
33.91,-133.081,-18.684
33.94,-136.31,-19.268
33.98,-139.784,-19.852
34.01,-143.329,-20.15
34.04,-146.312,-20.471
34.07,-149.365,-21.021
34.11,-152.91,-21.41
34.14,-156.068,-21.605
34.17,-158.49,-22.075
34.2,-161.017,-22.739
34.24,-164.807,-23.106
34.27,-168.738,-23.186
34.3,-171.51,-23.541
34.33,-173.862,-23.873
34.37,-176.213,-24.011
34.4,-178.81,-24.263
34.43,-182.109,-24.721
34.46,-185.478,-25.088
34.5,-188.04,-25.385
34.53,-190.005,-25.672
34.56,-192.216,-25.912
34.59,-194.533,-26.027
34.63,-196.603,-26.153
34.66,-198.148,-26.371
34.69,-199.797,-26.691
34.72,-201.938,-27.035
34.76,-204.219,-27.367
34.79,-206.079,-27.631
34.82,-207.764,-27.837
34.85,-209.413,-27.929
34.89,-210.992,-28.078
34.92,-212.712,-28.33
34.95,-214.888,-28.605
34.98,-217.204,-28.948
35.02,-219.521,-29.383
35.05,-221.661,-29.681
35.08,-223.381,-29.842
35.11,-224.89,-29.945
35.15,-226.82,-30.094
35.18,-229.066,-30.38
35.21,-230.576,-30.793
35.24,-231.734,-31.4
35.28,-233.453,-31.812
35.31,-235.384,-31.927
35.34,-237.138,-32.179
35.37,-238.823,-32.499
35.41,-240.437,-32.809
35.44,-242.227,-33.129
35.47,-244.403,-33.45
35.5,-246.228,-33.714
35.54,-247.983,-33.966
35.57,-249.632,-34.218
35.6,-251.141,-34.378
35.63,-252.44,-34.321
35.67,-253.773,-34.481
35.7,-255.739,-34.779
35.73,-257.669,-34.928
35.77,-259.213,-35.008
35.8,-260.406,-35.02
35.83,-261.635,-35.077
35.86,-262.828,-35.134
35.9,-263.776,-35.214
35.93,-264.618,-35.443
35.96,-265.987,-35.753
35.99,-267.601,-36.062
36.03,-268.9,-36.326
36.06,-269.812,-36.658
36.09,-271.251,-36.875
36.12,-272.549,-36.772
36.16,-273.497,-36.772
36.19,-274.059,-37.093
36.22,-273.953,-37.895
36.25,-274.655,-38.605
36.29,-275.778,-38.914
36.32,-277.112,-39.029
36.35,-277.954,-39.304
36.38,-279.007,-39.522
36.42,-280.2,-39.522
36.45,-280.937,-39.487
36.48,-281.218,-39.579
36.51,-281.99,-39.636
36.55,-282.867,-39.396
36.58,-283.464,-39.51
36.61,-284.236,-39.487
36.64,-284.517,-39.373
36.68,-284.727,-39.522
36.71,-285.254,-39.384
36.74,-284.833,-39.041
36.77,-283.675,-39.052
36.81,-283.92,-39.35
36.84,-284.973,-39.293
36.87,-285.043,-39.178
36.9,-284.306,-39.419
36.94,-284.061,-39.476
36.97,-284.061,-39.132
37.0,-283.71,-38.903
37.03,-283.71,-39.052
37.07,-284.271,-39.063
37.1,-284.166,-38.88
37.13,-283.359,-38.777
37.16,-282.692,-38.433
37.2,-281.007,-38.01
37.23,-277.989,-38.055
37.26,-275.954,-38.227
37.29,-275.673,-38.25
37.33,-275.883,-38.342
37.36,-275.111,-38.525
37.39,-273.392,-38.571
37.42,-271.742,-38.376
37.46,-270.689,-37.987
37.49,-270.023,-37.574
37.52,-268.829,-37.276
37.55,-267.25,-37.288
37.59,-266.338,-37.231
37.62,-265.53,-37.024
37.65,-264.267,-36.944
37.68,-262.793,-36.749
37.72,-261.108,-36.222
37.75,-259.564,-35.764
37.78,-258.16,-35.615
37.81,-256.757,-35.466
37.85,-255.493,-35.169
37.88,-254.23,-34.928
37.91,-253.142,-34.756
37.94,-251.633,-34.355
37.98,-249.211,-33.908
38.01,-246.965,-33.748
38.04,-245.877,-33.53
38.07,-245.351,-33.026
38.11,-243.736,-32.614
38.14,-241.35,-32.465
38.17,-239.104,-32.27
38.2,-237.56,-31.755
38.24,-235.384,-31.033
38.27,-233.102,-30.987
38.3,-231.523,-30.804
38.33,-228.716,-30.449
38.37,-224.82,-30.598
38.4,-222.574,-30.964
38.43,-221.977,-30.747
38.46,-220.363,-30.449
38.5,-218.187,-30.506
38.53,-216.116,-30.025
38.56,-214.432,-29.75
38.59,-213.765,-29.888
38.63,-213.203,-29.601
38.66,-211.133,-29.131
38.69,-208.325,-28.96
38.72,-206.29,-28.501
38.76,-203.973,-27.803
38.79,-201.447,-27.436
38.82,-199.516,-27.024
38.85,-197.411,-26.577
38.89,-195.34,-26.302
38.92,-193.515,-25.993
38.95,-191.409,-25.592
38.98,-188.531,-25.111
39.02,-185.478,-24.698
39.05,-182.846,-24.354
39.08,-180.811,-23.885
39.11,-178.81,-23.484
39.15,-176.915,-23.22
39.18,-174.634,-22.808
39.21,-171.721,-22.281
39.24,-168.422,-21.8
39.28,-165.404,-21.445
39.31,-162.947,-20.906
39.34,-160.42,-20.265
39.37,-157.578,-19.852
39.41,-155.261,-19.841
39.44,-152.524,-19.222
39.47,-148.909,-18.707
39.5,-145.786,-18.386
39.54,-143.294,-17.882
39.57,-140.977,-17.39
39.6,-138.1,-16.805
39.63,-134.695,-16.381
39.67,-131.467,-15.98
39.7,-128.519,-15.476
39.73,-125.465,-14.892
39.76,-121.991,-14.342
39.8,-118.411,-13.77
39.83,-114.832,-13.208
39.86,-111.427,-12.807
39.89,-108.444,-12.521
39.93,-105.882,-12.177
39.96,-103.075,-11.662
39.99,-99.846,-11.169
40.02,-96.266,-10.585
40.06,-92.125,-9.898
40.09,-88.019,-9.245
40.12,-84.334,-8.649
40.15,-81.0,-8.099
40.19,-77.49,-7.629
40.22,-73.805,-7.228
40.25,-70.296,-6.85
40.28,-67.102,-6.427
40.32,-63.663,-5.968
40.35,-60.153,-5.636
40.38,-57.135,-5.327
40.41,-54.468,-4.926
40.45,-51.66,-4.479
40.48,-48.466,-4.055
40.51,-44.852,-3.723
40.54,-41.518,-3.265
40.58,-37.938,-2.772
40.61,-34.218,-2.474
40.64,-30.779,-2.165
40.67,-27.094,-1.867
40.71,-23.584,-1.604
40.74,-20.074,-1.294
40.77,-16.6,-1.031
40.8,-12.915,-0.836
40.84,-8.844,-0.561
40.87,-4.071,-0.355
40.9,-0.456,-0.16
40.93,0.316,0.538
40.97,0.597,1.673
41.0,2.702,2.807
41.03,7.335,3.677
41.06,12.073,4.491
41.1,15.758,5.338
41.13,19.267,6.003
41.16,23.514,6.427
41.19,27.971,6.759
41.23,32.217,7.057
41.26,35.973,7.274
41.29,39.412,7.469
41.32,42.641,7.778
41.36,46.291,8.099
41.39,49.8,8.363
41.42,53.029,8.649
41.45,55.872,9.084
41.49,58.784,9.588
41.52,62.083,10.035
41.55,65.663,10.436
41.59,69.243,10.883
41.62,72.752,11.341
41.65,76.227,11.673
41.68,79.28,11.994
41.72,82.228,12.509
41.75,85.597,12.991
41.78,89.037,13.38
41.81,92.476,13.896
41.85,95.599,14.297
41.88,98.302,14.675
41.91,101.18,15.121
41.94,104.689,15.534
41.98,108.199,15.992
42.01,111.673,16.473
42.04,114.937,16.885
42.07,117.885,17.332
42.11,120.903,17.71
42.14,123.851,18.031
42.17,126.624,18.478
42.2,130.203,19.062
42.24,134.239,19.211
42.27,137.889,19.589
42.3,141.434,19.978
42.33,144.136,20.196
42.37,146.628,20.483
42.4,149.365,20.849
42.43,152.383,21.204
42.46,155.472,21.422
42.5,157.928,21.628
42.53,160.315,22.006
42.56,163.052,22.373
42.59,166.035,22.671
42.63,168.773,23.049
42.66,171.335,23.495
42.69,173.932,23.793
42.72,176.494,24.148
42.76,179.477,24.733
42.79,182.846,25.328
42.82,186.18,25.683
42.85,188.953,26.038
42.89,191.479,26.359
42.92,193.655,26.474
42.95,195.551,26.577
42.98,197.516,26.795
43.02,199.692,27.035
43.05,201.903,27.23
43.08,203.833,27.447
43.11,205.798,27.677
43.15,207.799,27.791
43.18,209.203,27.791
43.21,209.94,27.94
43.24,210.957,28.33
43.28,213.028,28.811
43.31,215.52,29.2
43.34,217.941,29.567
43.37,219.556,30.082
43.41,221.451,30.54
43.44,223.486,30.495
43.47,225.101,30.598
43.5,227.663,31.377
43.54,230.681,31.64
43.57,232.576,31.697
43.6,233.734,31.904
43.63,235.103,32.167
43.67,237.103,32.167
43.7,239.034,32.098
43.73,240.332,32.087
43.76,241.245,32.442
43.8,242.894,32.992
43.83,244.965,33.313
43.86,247.0,33.599
43.89,248.895,34.012
43.93,250.755,34.309
43.96,252.089,34.241
43.99,253.282,34.39
44.02,255.318,34.71
44.06,257.704,34.836
44.09,259.003,35.088
44.12,259.81,35.581
44.15,261.6,35.936
44.19,264.127,35.867
44.22,264.864,35.741
44.25,263.46,36.28
44.28,263.319,36.944
44.32,265.425,37.105
44.35,267.917,37.127
44.38,268.864,37.471
44.41,269.391,38.124
44.45,270.97,38.422
44.48,272.549,38.216
44.51,273.427,38.307
44.54,274.55,38.72
44.58,276.55,39.132
44.61,278.831,39.636
44.64,281.183,40.346
44.67,283.359,40.77
44.71,284.973,40.919
44.74,285.991,40.885
44.77,286.938,40.415
44.8,286.938,39.487
44.84,285.851,38.674
44.87,284.973,38.296
44.9,284.587,37.815
44.93,283.675,37.242
44.97,281.779,36.944
45.0,280.621,37.162
45.03,280.762,37.357
45.06,280.867,37.517
45.1,280.692,37.952
45.13,282.025,39.029
45.16,284.096,39.373
45.19,283.99,39.075
45.23,282.166,39.671
45.26,281.85,40.392
45.29,282.867,40.152
45.32,282.271,39.854
45.36,280.902,40.278
45.39,281.042,40.507
45.42,281.534,40.198
45.45,281.148,40.129
45.49,280.692,40.198
45.52,280.2,39.865
45.55,279.182,39.476
45.58,278.2,39.224
45.62,277.428,38.914
45.65,276.585,38.662
45.68,275.673,38.479
45.71,274.725,38.216
45.75,273.532,37.883
45.78,271.953,37.574
45.81,270.374,37.276
45.84,268.864,36.979
45.88,267.601,36.749
45.91,266.302,36.612
45.94,264.899,36.486
45.97,263.46,36.383
46.01,262.477,36.222
46.04,261.179,35.925
46.07,259.459,35.684
46.1,257.915,35.558
46.14,256.932,35.363
46.17,255.879,35.123
46.2,254.335,35.008
46.23,252.299,35.1
46.27,250.72,34.985
46.3,249.246,34.561
46.33,247.421,34.206
46.36,245.456,34.069
46.4,243.947,33.794
46.43,242.262,33.187
46.46,239.981,33.003
46.49,238.121,33.003
46.53,236.121,32.396
46.56,233.594,31.915
46.59,231.453,31.766
46.62,230.154,31.652
46.66,228.645,31.182
46.69,226.645,31.01
46.72,224.609,30.781
46.75,222.539,30.472
46.79,220.854,30.529
46.82,219.977,30.334
46.85,218.819,29.842
46.88,216.643,29.658
46.92,214.888,29.601
46.95,213.274,29.12
46.98,211.098,28.742
47.01,209.308,28.605
47.05,207.939,28.089
47.08,205.693,27.413
47.11,202.675,27.058
47.14,200.218,26.703
47.18,198.218,26.21
47.21,196.007,25.844
47.24,193.48,25.638
47.27,190.988,25.523
47.31,188.847,25.225
47.34,186.566,24.813
47.37,184.18,24.526
47.4,181.969,24.206
47.44,180.038,23.816
47.47,178.003,23.564
47.5,175.687,23.152
47.54,172.668,22.43
47.57,168.948,21.743
47.6,165.755,21.388
47.63,163.544,20.952
47.67,161.298,20.219
47.7,158.35,19.864
47.73,155.717,19.669
47.76,152.769,19.131
47.8,150.102,19.062
47.83,147.821,18.512
47.86,145.154,18.077
47.89,142.381,17.619
47.93,139.047,16.897
47.96,136.134,16.725
47.99,133.958,16.507
48.02,131.396,16.003
48.06,127.992,15.534
48.09,124.623,15.11
48.12,121.851,14.457
48.15,118.938,13.747
48.19,115.393,13.094
48.22,111.392,12.567
48.25,107.707,12.189
48.28,104.549,11.65
48.32,101.144,10.974
48.35,97.319,10.356
48.38,92.967,9.772
48.41,88.756,9.119
48.45,84.474,8.534
48.48,80.614,8.065
48.51,77.209,7.778
48.54,74.086,7.423
48.58,70.892,6.988
48.61,67.593,6.644
48.64,64.47,6.278
48.67,61.206,5.877
48.71,57.802,5.522
48.74,54.643,5.224
48.77,51.871,4.869
48.8,49.168,4.456
48.84,45.94,4.032
48.87,42.184,3.631
48.9,38.184,3.196
48.93,34.674,2.807
48.97,31.375,2.348
49.0,27.69,1.993
49.03,23.935,1.741
49.06,20.285,1.501
49.1,16.565,1.18
49.13,12.599,0.905
49.16,8.669,0.802
49.19,4.703,0.779
49.23,1.123,0.745
49.26,-0.14,0.16
49.29,-0.386,-0.882
49.32,-0.737,-2.096
49.36,-3.79,-3.242
49.39,-8.774,-4.055
49.42,-13.266,-4.857
49.45,-16.811,-5.739
49.49,-20.882,-6.358
49.52,-25.655,-6.564
49.55,-30.042,-6.782
49.58,-33.691,-7.091
49.62,-37.131,-7.309
49.65,-40.289,-7.538
49.68,-43.413,-7.939
49.71,-46.852,-8.305
49.75,-50.397,-8.649
49.78,-53.731,-9.119
49.81,-57.065,-9.634
49.84,-60.609,-10.115
49.88,-64.47,-10.539
49.91,-68.33,-10.963
49.94,-71.77,-11.272
49.97,-74.648,-11.662
50.01,-77.35,-12.154
50.04,-80.719,-12.67
50.07,-84.615,-13.082
50.1,-88.37,-13.54
50.14,-91.704,-14.022
50.17,-94.827,-14.423
50.2,-97.67,-14.778
50.23,-100.899,-15.167
50.27,-104.794,-15.488
50.3,-108.76,-15.889
50.33,-112.27,-16.187
50.36,-115.218,-16.588
50.4,-118.341,-17.057
50.43,-121.535,-17.424
50.46,-124.237,-17.687
50.49,-127.185,-18.26
50.53,-130.624,-18.443
50.56,-133.467,-18.81
50.59,-136.485,-19.348
50.62,-140.311,-20.013
50.66,-144.136,-20.414
50.69,-146.733,-20.654
50.72,-148.839,-20.861
50.75,-151.26,-21.204
50.79,-154.524,-21.754
50.82,-157.718,-21.926
50.85,-160.28,-22.224
50.88,-162.877,-22.728
50.92,-166.281,-23.163
50.95,-169.545,-23.427
50.98,-172.002,-23.782
51.01,-174.248,-24.102
51.05,-176.74,-24.389
51.08,-179.547,-24.836
51.11,-182.811,-25.431
51.14,-186.145,-25.867
51.18,-188.847,-26.153
51.21,-191.023,-26.416
51.24,-193.515,-26.577
51.27,-195.901,-26.565
51.31,-197.656,-26.657
51.34,-199.095,-26.84
51.37,-200.92,-27.104
51.4,-203.026,-27.356
51.44,-204.956,-27.619
51.47,-206.535,-27.883
51.5,-208.08,-28.089
51.53,-209.518,-28.192
51.57,-211.028,-28.41
51.6,-212.888,-28.765
51.63,-215.309,-29.131
51.66,-217.661,-29.441
51.7,-220.152,-29.773
51.73,-221.837,-30.002
51.76,-223.135,-30.22
51.79,-224.715,-30.357
51.83,-226.575,-30.621
51.86,-228.961,-30.907
51.89,-231.032,-31.033
51.92,-232.33,-31.159
51.96,-234.015,-31.675
51.99,-236.612,-31.881
52.02,-238.261,-31.812
52.05,-239.209,-32.03
52.09,-240.823,-32.305
52.12,-242.999,-32.362
52.15,-244.649,-32.557
52.18,-245.737,-33.072
52.22,-247.351,-33.599
52.25,-248.65,-33.966
52.28,-249.422,-34.435
52.31,-250.404,-34.848
52.35,-251.984,-35.214
52.38,-254.195,-35.558
52.41,-256.476,-35.925
52.44,-258.266,-36.257
52.48,-259.669,-36.646
52.51,-261.003,-36.864
52.54,-262.267,-36.956
52.57,-263.6,-37.047
52.61,-265.074,-37.105
52.64,-266.548,-37.07
52.67,-267.741,-37.196
52.7,-269.286,-37.483
52.74,-270.97,-37.609
52.77,-272.198,-37.563
52.8,-272.655,-37.906
52.83,-273.532,-38.273
52.87,-274.971,-38.09
52.9,-275.813,-37.929
52.93,-276.585,-38.296
52.96,-277.744,-38.64
53.0,-278.867,-38.846
53.03,-280.06,-38.857
53.06,-281.078,-38.651
53.09,-281.744,-38.514
53.13,-281.955,-38.422
53.16,-282.095,-38.422
53.19,-282.622,-38.559
53.22,-282.587,-38.88
53.26,-281.709,-39.487
53.29,-281.604,-39.762
53.32,-281.99,-39.957
53.35,-283.078,-40.358
53.39,-283.324,-39.934
53.42,-282.341,-39.98
53.45,-283.113,-40.518
53.49,-284.938,-40.278
53.52,-285.008,-40.289
53.55,-284.447,-40.77
53.58,-284.938,-40.736
53.62,-285.535,-40.301
53.65,-284.903,-39.968
53.68,-283.569,-39.785
53.71,-283.043,-39.739
53.75,-283.289,-39.739
53.78,-283.64,-39.556
53.81,-282.832,-39.258
53.84,-281.113,-38.972
53.88,-279.463,-38.674
53.91,-278.305,-38.319
53.94,-277.533,-38.078
53.97,-276.971,-38.078
54.01,-276.059,-38.09
54.04,-274.936,-37.987
54.07,-273.848,-37.746
54.1,-272.76,-37.322
54.14,-271.181,-36.887
54.17,-269.25,-36.566
54.2,-267.812,-36.394
54.23,-266.689,-36.348
54.27,-264.513,-36.612
54.3,-262.477,-36.921
54.33,-261.705,-36.921
54.36,-260.968,-36.715
54.4,-259.669,-36.52
54.43,-257.599,-36.348
54.46,-256.16,-36.131
54.49,-255.107,-35.879
54.53,-253.773,-35.707
54.56,-252.686,-35.501
54.59,-251.598,-35.203
54.62,-249.773,-34.63
54.66,-246.684,-34.092
54.69,-244.508,-34.252
54.72,-244.228,-34.046
54.75,-243.14,-33.496
54.79,-240.648,-33.313
54.82,-238.332,-33.164
54.85,-236.963,-32.809
54.88,-235.559,-32.442
54.92,-233.734,-32.121
54.95,-231.769,-31.858
54.98,-229.979,-31.652
55.01,-228.294,-31.457
55.05,-226.785,-31.193
55.08,-225.381,-30.964
55.11,-223.767,-30.621
55.14,-221.802,-30.14
55.18,-219.696,-29.693
55.21,-217.169,-29.223
55.24,-214.888,-29.143
55.27,-213.274,-28.983
55.31,-211.519,-28.639
55.34,-209.413,-28.341
55.37,-207.237,-28.112
55.4,-205.061,-27.642
55.44,-202.394,-27.161
55.47,-199.902,-26.852
55.5,-197.867,-26.543
55.53,-195.937,-26.29
55.57,-194.006,-26.13
55.6,-191.936,-25.844
55.63,-189.619,-25.5
55.66,-187.093,-25.053
55.7,-184.566,-24.526
55.73,-182.144,-24.022
55.76,-179.828,-23.53
55.79,-177.617,-23.152
55.83,-175.23,-22.888
55.86,-172.704,-22.499
55.89,-170.001,-21.995
55.92,-167.159,-21.479
55.96,-164.246,-21.044
55.99,-161.368,-20.574
56.02,-158.455,-20.059
56.05,-155.858,-19.807
56.09,-154.138,-19.749
56.12,-151.892,-18.856
56.15,-148.137,-18.226
56.18,-144.698,-18.031
56.22,-142.136,-17.481
56.25,-139.995,-17.172
56.28,-137.152,-16.588
56.31,-133.467,-16.233
56.35,-130.379,-15.969
56.38,-127.817,-15.465
56.41,-125.15,-14.858
56.44,-121.956,-14.274
56.48,-118.376,-13.644
56.51,-114.586,-13.048
56.54,-111.252,-12.532
56.57,-108.199,-12.12
56.61,-105.251,-11.685
56.64,-101.846,-11.112
56.67,-97.845,-10.619
56.7,-93.739,-10.092
56.74,-89.809,-9.508
56.77,-85.913,-8.912
56.8,-82.333,-8.454
56.83,-78.859,-8.042
56.87,-75.279,-7.664
56.9,-72.05,-7.24
56.93,-69.138,-6.816
56.96,-65.874,-6.358
57.0,-62.154,-5.9
57.03,-58.679,-5.476
57.06,-55.45,-5.155
57.09,-52.362,-4.88
57.13,-49.274,-4.468
57.16,-45.94,-4.044
57.19,-42.465,-3.746
57.22,-39.377,-3.368
57.26,-36.288,-2.956
57.29,-32.884,-2.555
57.32,-29.234,-2.165
57.35,-25.549,-1.764
57.39,-21.724,-1.386
57.42,-17.688,-1.123
57.45,-13.547,-0.859
57.48,-9.406,-0.619
57.52,-4.948,-0.481
57.55,-0.912,-0.584
57.58,0.175,-0.149
57.61,0.456,0.745
57.65,0.772,1.947
57.68,3.825,3.173
57.71,8.914,3.929
57.74,13.231,4.685
57.78,16.635,5.522
57.81,20.425,6.117
57.84,24.883,6.415
57.87,29.129,6.782
57.91,33.165,7.171
57.94,36.745,7.423
57.97,40.114,7.732
58.0,43.834,8.076
58.04,47.484,8.385
58.07,50.713,8.741
58.1,53.731,9.153
58.13,56.854,9.611
58.17,60.294,10.047
58.2,63.768,10.482
58.23,67.278,10.86
58.26,70.717,11.215
58.3,74.261,11.559
58.33,77.771,11.879
58.36,81.14,12.166
58.39,84.334,12.578
58.43,87.422,12.991
58.46,90.475,13.414
58.49,93.915,13.838
58.52,97.495,14.136
58.56,100.618,14.377
58.59,103.11,14.823
58.62,106.058,15.259
58.65,109.532,15.717
58.69,113.007,16.187
58.72,116.446,16.691
58.75,119.745,17.08
58.78,122.798,17.481
58.82,125.641,17.756
58.85,128.378,18.317
58.88,131.888,18.867
58.91,135.573,19.131
58.95,138.942,19.635
58.98,142.276,20.253
59.01,145.54,20.483
59.04,148.102,20.54
59.08,150.664,20.998
59.11,153.647,21.319
59.14,156.49,21.64
59.17,158.981,21.903
59.21,161.684,22.545
59.24,165.158,22.9
59.27,168.141,23.026
59.3,170.352,23.381
59.34,172.423,23.816
59.37,174.95,24.045
59.4,177.863,24.412
59.44,181.302,24.927
59.47,184.846,25.351
59.5,187.479,25.66
59.53,189.795,26.038
59.57,192.146,26.245
59.6,194.463,26.313
59.63,196.638,26.416
59.66,198.534,26.669
59.7,200.464,26.966
59.73,202.534,27.173
59.76,204.605,27.356
59.79,206.535,27.654
59.83,208.115,27.871
59.86,209.413,27.974
59.89,210.992,28.158
59.92,212.958,28.513
59.96,215.344,28.914
59.99,217.485,29.235
60.02,219.345,29.578
60.05,221.31,29.91
60.09,223.521,29.979
60.12,224.96,29.693
60.15,226.259,30.048
60.18,228.54,30.735
60.22,230.119,30.93
60.25,230.786,31.423
60.28,231.944,31.904
60.31,233.945,32.316
60.35,236.682,32.591
60.38,238.647,32.763
60.41,239.314,33.141
60.44,240.402,33.622
60.48,242.859,33.92
60.51,245.807,34.103
60.54,248.018,34.344
60.57,249.702,34.676
60.61,251.036,34.825
60.64,252.335,34.848
60.67,254.16,35.031
60.7,256.335,35.329
60.74,258.266,35.489
60.77,259.599,35.684
60.8,260.722,36.005
60.83,262.512,36.222
60.87,264.127,36.062
60.9,264.828,35.948
60.93,265.425,36.028
60.96,266.302,36.119
61.0,267.601,36.2
61.03,269.075,36.394
61.06,270.338,36.681
61.09,271.251,37.001
61.13,272.444,37.196
61.16,273.778,37.116
61.19,273.813,37.494
61.22,273.497,38.422
61.26,274.831,39.029
61.29,276.831,39.121
61.32,278.2,39.361
61.35,279.218,39.819
61.39,280.27,40.106
61.42,281.288,40.049
61.45,281.92,39.682
61.48,281.429,39.441
61.52,281.429,39.338
61.55,282.516,39.212
61.58,283.148,39.018
61.61,283.008,39.075
61.65,282.867,39.304
61.68,283.499,39.567
61.71,284.587,39.693
61.74,284.587,39.258
61.78,283.64,39.327
61.81,284.868,40.037
61.84,286.377,39.43
61.87,285.184,39.132
61.91,284.377,39.59
61.94,285.219,39.613
61.97,285.5,38.983
62.0,283.92,38.72
62.04,282.692,39.098
62.07,283.113,39.155
62.1,283.78,38.788
62.13,283.289,38.64
62.17,282.201,38.536
62.2,279.674,38.388
62.23,276.936,38.479
62.26,275.638,38.525
62.3,275.708,38.514
62.33,275.919,38.548
62.36,274.655,38.617
62.39,272.234,38.708
62.43,270.619,38.617
62.46,270.058,38.262
62.49,269.637,37.861
62.52,268.268,37.574
62.56,266.408,37.471
62.59,265.46,37.253
62.62,264.793,36.967
62.65,263.881,36.772
62.69,262.337,36.543
62.72,260.301,36.165
62.75,258.301,35.856
62.78,257.002,35.695
62.82,256.055,35.501
62.85,254.651,35.283
62.88,252.896,35.214
62.91,251.633,35.157
62.95,250.685,34.813
62.98,249.316,34.378
63.01,247.351,34.115
63.04,245.245,33.931
63.08,243.42,33.622
63.11,241.666,33.152
63.14,240.262,32.992
63.17,239.034,32.66
63.21,236.296,32.121
63.24,232.26,31.686
63.27,229.733,31.846
63.3,229.172,31.778
63.34,228.189,31.434
63.37,225.978,31.411
63.4,224.223,31.571
63.43,223.592,31.411
63.47,222.714,30.999
63.5,220.784,30.712
63.53,218.538,30.426
63.56,216.713,29.933
63.6,214.923,29.383
63.63,212.642,29.04
63.66,210.22,28.765
63.69,208.22,28.398
63.73,206.325,27.86
63.76,203.693,27.436
63.79,200.745,27.195
63.82,198.358,26.898
63.86,196.744,26.531
63.89,195.27,26.21
63.92,193.55,25.901
63.95,191.199,25.569
63.99,188.426,25.122
64.02,185.583,24.641
64.05,183.162,24.286
64.08,180.916,23.85
64.12,178.459,23.484
64.15,176.213,23.255
64.18,174.072,22.945
64.21,171.475,22.441
64.25,168.562,21.983
64.28,165.895,21.628
64.31,163.509,21.021
64.34,160.28,20.391
64.38,157.086,20.104
64.41,154.559,19.83
64.44,152.524,19.36
64.47,149.857,18.718
64.51,146.277,18.237
64.54,142.873,17.871
64.57,139.925,17.183
64.6,136.871,16.496
64.64,133.257,16.015
64.67,130.028,15.98
64.7,127.606,15.522
64.73,124.728,14.927
64.77,121.535,14.583
64.8,118.622,14.171
64.83,115.849,13.621
64.86,112.796,13.105
64.9,109.392,12.75
64.93,106.023,12.269
64.96,102.408,11.65
64.99,98.793,11.055
65.03,95.108,10.413
65.06,91.283,9.772
65.09,87.422,9.187
65.12,83.913,8.569
65.16,80.017,8.088
65.19,76.051,7.732
65.22,72.682,7.286
65.25,69.559,6.828
65.29,66.576,6.541
65.32,63.663,6.209
65.35,60.504,5.774
65.39,57.205,5.373
65.42,54.117,4.995
65.45,50.923,4.559
65.48,47.554,4.17
65.52,44.255,3.746
65.55,41.026,3.402
65.58,37.833,3.116
65.61,34.569,2.761
65.65,31.2,2.303
65.68,27.304,1.787
65.71,23.373,1.375
65.74,19.408,1.065
65.78,15.302,0.768
65.81,11.125,0.55
65.84,6.879,0.378
65.87,2.071,0.389
65.91,0.035,0.115
65.94,-0.281,-0.687
65.97,-0.351,-1.604
66.0,-2.211,-2.635
66.04,-6.808,-3.654
66.07,-11.827,-4.468
66.1,-15.372,-5.086
66.13,-18.074,-5.751
66.17,-21.689,-6.369
66.2,-26.532,-6.816
66.23,-31.551,-7.171
66.26,-35.762,-7.515
66.3,-39.482,-7.847
66.33,-43.132,-8.065
66.36,-46.782,-8.34
66.39,-50.502,-8.66
66.43,-54.082,-8.981
66.46,-57.416,-9.302
66.49,-60.399,-9.691
66.52,-63.242,-10.127
66.56,-66.435,-10.585
66.59,-70.12,-10.997
66.62,-73.735,-11.364
66.65,-77.034,-11.673
66.69,-80.052,-12.086
66.72,-83.0,-12.601
66.75,-86.159,-13.082
66.78,-89.528,-13.575
66.82,-92.792,-14.079
66.85,-96.056,-14.491
66.88,-99.179,-14.846
66.91,-102.197,-15.202
66.95,-105.531,-15.602
66.98,-109.041,-15.958
67.01,-112.234,-16.336
67.04,-115.288,-16.885
67.08,-118.517,-17.39
67.11,-121.675,-17.779
67.14,-124.693,-18.237
67.17,-127.887,-18.695
67.21,-131.607,-19.073
67.24,-135.432,-19.36
67.27,-139.363,-19.91
67.3,-143.224,-20.23
67.34,-145.645,-20.196
67.37,-147.084,-20.265
67.4,-149.12,-20.368
67.43,-152.629,-20.987
67.47,-156.665,-21.33
67.5,-159.297,-21.525
67.53,-161.017,-22.063
67.56,-163.684,-22.774
67.6,-167.264,-23.129
67.63,-170.598,-23.415
67.66,-173.335,-23.747
67.69,-175.757,-24.011
67.73,-178.143,-24.24
67.76,-180.881,-24.721
67.79,-183.969,-25.259
67.82,-186.812,-25.672
67.86,-189.233,-25.981
67.89,-191.479,-26.279
67.92,-193.655,-26.497
67.95,-195.761,-26.669
67.99,-197.867,-26.806
68.02,-200.288,-26.955
68.05,-202.499,-27.161
68.08,-204.254,-27.402
68.12,-205.869,-27.619
68.15,-207.623,-27.768
68.18,-209.554,-27.883
68.21,-211.414,-27.997
68.25,-212.958,-28.192
68.28,-214.432,-28.582
68.31,-216.502,-28.925
68.34,-218.643,-29.315
68.38,-220.328,-29.865
68.41,-221.977,-30.254
68.44,-223.486,-30.449
68.47,-225.066,-30.758
68.51,-227.171,-31.228
68.54,-229.909,-31.468
68.57,-232.085,-31.571
68.6,-233.348,-31.995
68.64,-234.647,-32.373
68.67,-236.647,-32.499
68.7,-238.788,-32.488
68.73,-240.297,-32.66
68.77,-241.876,-33.015
68.8,-243.842,-33.255
68.83,-246.017,-33.416
68.86,-247.807,-33.668
68.9,-249.141,-34.012
68.93,-250.159,-34.16
68.96,-251.387,-34.218
68.99,-252.896,-34.39
69.03,-254.686,-34.699
69.06,-256.16,-34.997
69.09,-257.634,-35.295
69.12,-259.494,-35.569
69.16,-261.53,-35.776
69.19,-263.144,-35.799
69.22,-262.933,-35.993
69.25,-262.442,-36.52
69.29,-263.495,-36.91
69.32,-265.601,-37.116
69.35,-267.566,-37.402
69.38,-268.9,-37.792
69.42,-270.128,-38.136
69.45,-271.602,-38.17
69.48,-272.83,-38.158
69.51,-273.708,-38.353
69.55,-274.831,-38.456
69.58,-276.164,-38.456
69.61,-277.638,-38.502
69.64,-278.551,-38.8
69.68,-279.393,-39.224
69.71,-280.586,-39.155
69.74,-281.323,-38.903
69.77,-281.534,-38.914
69.81,-281.85,-38.8
69.84,-282.411,-38.628
69.87,-283.043,-38.731
69.9,-283.64,-38.811
69.94,-283.85,-38.88
69.97,-284.131,-38.903
70.0,-284.763,-39.098
70.03,-285.394,-38.983
70.07,-284.622,-38.422
70.1,-284.096,-38.64
70.13,-285.043,-38.892
70.16,-285.851,-38.777
70.2,-284.798,-38.983
70.23,-282.587,-39.43
70.26,-281.709,-39.693
70.29,-282.06,-39.556
70.33,-282.06,-39.441
70.36,-281.323,-39.785
70.39,-281.323,-40.129
70.42,-281.744,-40.083
70.46,-281.534,-39.968
70.49,-280.692,-39.854
70.52,-279.709,-39.51
70.55,-278.867,-39.063
70.59,-278.024,-38.708
70.62,-277.042,-38.64
70.65,-276.515,-38.628
70.68,-276.094,-38.433
70.72,-274.901,-38.262
70.75,-273.883,-37.918
70.78,-272.585,-37.311
70.81,-270.444,-36.91
70.85,-268.268,-36.726
70.88,-266.899,-36.646
70.91,-266.478,-36.532
70.94,-265.987,-36.36
70.98,-264.653,-36.222
71.01,-262.688,-35.982
71.04,-260.371,-35.673
71.07,-258.757,-35.409
71.11,-258.02,-35.134
71.14,-256.862,-34.939
71.17,-254.686,-34.894
71.2,-252.089,-35.065
71.24,-250.615,-35.18
71.27,-249.773,-35.043
71.3,-247.878,-34.607
71.34,-245.456,-34.435
71.37,-244.438,-34.516
71.4,-243.771,-34.092
71.43,-241.806,-33.725
71.47,-239.56,-33.507
71.5,-237.981,-33.198
71.53,-236.682,-32.9
71.56,-235.103,-32.557
71.6,-233.032,-32.259
71.63,-230.962,-32.11
71.66,-229.453,-31.869
71.69,-228.294,-31.411
71.73,-226.399,-31.033
71.76,-224.329,-30.884
71.79,-222.433,-30.369
71.82,-220.187,-29.968
71.86,-217.801,-29.498
71.89,-215.52,-29.154
71.92,-214.011,-29.074
71.95,-212.677,-28.753
71.99,-210.396,-28.387
72.02,-208.22,-28.135
72.05,-206.535,-27.688
72.08,-204.324,-27.104
72.12,-201.622,-26.749
72.15,-199.306,-26.439
72.18,-197.375,-26.061
72.21,-195.41,-25.867
72.25,-192.953,-25.718
72.28,-190.462,-25.512
72.31,-188.075,-25.179
72.34,-185.724,-24.801
72.38,-183.232,-24.389
72.41,-180.6,-23.919
72.44,-178.284,-23.518
72.47,-176.178,-23.335
72.51,-174.318,-23.014
72.54,-171.791,-22.441
72.57,-168.738,-21.926
72.6,-165.685,-21.479
72.64,-162.772,-21.055
72.67,-160.034,-20.54
72.7,-157.367,-20.059
72.73,-155.156,-20.001
72.77,-153.366,-19.555
72.8,-150.032,-18.524
72.83,-146.066,-18.249
72.86,-142.873,-17.756
72.9,-140.381,-17.435
72.93,-138.31,-17.0
72.96,-135.503,-16.359
72.99,-132.133,-16.141
73.03,-129.045,-15.751
73.06,-126.132,-15.259
73.09,-123.219,-14.732
73.12,-120.026,-14.171
73.16,-116.692,-13.529
73.19,-112.936,-12.968
73.22,-109.286,-12.613
73.25,-106.339,-12.2
73.29,-103.355,-11.639
73.32,-99.916,-11.123
73.35,-96.126,-10.596
73.38,-92.055,-9.978
73.42,-87.949,-9.348
73.45,-84.158,-8.786
73.48,-80.754,-8.282
73.51,-77.385,-7.801
73.55,-73.735,-7.4
73.58,-70.12,-7.08
73.61,-66.927,-6.724
73.64,-63.768,-6.289
73.68,-60.399,-5.957
73.71,-57.17,-5.648
73.74,-54.152,-5.292
73.77,-51.239,-4.892
73.81,-48.045,-4.479
73.84,-44.887,-4.09
73.87,-41.553,-3.643
73.9,-38.043,-3.093
73.94,-34.323,-2.715
73.97,-30.743,-2.44
74.0,-27.269,-2.096
74.03,-23.654,-1.764
74.07,-19.829,-1.455
74.1,-15.828,-1.203
74.13,-11.722,-0.962
74.16,-7.756,-0.779
74.2,-3.615,-0.687
74.23,-0.456,-0.596
74.26,0.386,0.115
74.29,0.491,1.168
74.33,1.263,2.406
74.36,5.124,3.505
74.39,10.458,4.353
74.42,14.88,5.212
74.46,18.355,6.071
74.49,22.496,6.575
74.52,27.164,6.862
74.55,31.726,7.206
74.59,35.692,7.503
74.62,39.307,7.687
74.65,42.535,7.939
74.68,45.834,8.248
74.72,49.098,8.557
74.75,52.432,8.867
74.78,55.661,9.233
74.81,59.03,9.657
74.85,62.329,10.069
74.88,65.382,10.459
74.91,68.365,10.871
74.94,71.454,11.272
74.98,74.612,11.719
75.01,77.876,12.166
75.04,81.456,12.704
75.07,84.966,13.208
75.11,88.159,13.586
75.14,91.353,14.148
75.17,94.968,14.629
75.2,98.477,14.938
75.24,101.987,15.236
75.27,105.531,15.488
75.3,108.971,15.763
75.33,112.27,16.141
75.37,115.463,16.473
75.4,118.481,16.897
75.43,121.254,17.275
75.46,124.062,17.607
75.5,127.045,17.882
75.53,130.344,18.512
75.56,133.888,18.833
75.59,137.117,19.211
75.63,140.416,19.784
75.66,143.504,20.104
75.69,146.066,20.46
75.72,148.804,20.918
75.76,152.032,21.193
75.79,154.875,21.41
75.82,157.332,21.743
75.85,159.683,22.121
75.89,162.35,22.556
75.92,165.088,22.991
75.95,168.071,23.323
75.98,170.773,23.667
76.02,173.37,24.057
76.05,176.283,24.366
76.08,179.337,24.824
76.11,182.565,25.385
76.15,185.829,25.786
76.18,188.742,26.119
76.21,190.953,26.428
76.24,192.918,26.68
76.28,194.778,26.852
76.31,196.849,27.081
76.34,199.376,27.367
76.37,201.622,27.631
76.41,203.447,27.883
76.44,205.202,28.112
76.47,207.202,28.318
76.5,208.852,28.341
76.54,210.045,28.478
76.57,211.624,28.765
76.6,213.87,29.086
76.63,216.257,29.395
76.67,218.327,29.716
76.7,220.328,30.071
76.73,222.083,30.334
76.76,223.241,30.288
76.8,224.329,30.54
76.83,226.54,31.022
76.86,229.312,31.262
76.89,231.488,31.537
76.93,232.962,31.904
76.96,234.19,32.076
76.99,235.91,32.373
77.02,237.946,32.591
77.06,239.876,32.74
77.09,241.28,32.981
77.12,242.929,33.347
77.15,245.0,33.622
77.19,247.07,33.828
77.22,248.86,34.183
77.25,249.773,34.63
77.29,250.439,34.848
77.32,251.457,35.123
77.35,253.282,35.615
77.38,255.844,35.993
77.42,257.88,36.211
77.45,259.248,36.509
77.48,260.863,36.784
77.51,262.793,36.784
77.55,263.741,36.6
77.58,263.986,36.738
77.61,265.109,36.898
77.64,267.004,36.83
77.68,268.198,36.921
77.71,269.18,37.368
77.74,270.549,37.712
77.77,271.672,37.849
77.81,272.655,37.998
77.84,273.953,37.998
77.87,274.725,38.078
77.9,275.743,38.388
77.94,277.393,38.514
77.97,278.867,38.582
78.0,279.884,38.823
78.03,280.692,39.018
78.07,281.358,38.903
78.1,281.99,38.628
78.13,282.06,38.296
78.16,281.815,38.296
78.2,282.06,38.491
78.23,281.779,38.96
78.26,281.148,39.35
78.29,280.727,39.693
78.33,280.972,39.831
78.36,281.499,40.072
78.39,282.552,40.553
78.42,282.797,40.209
78.46,282.692,40.736
78.49,284.096,41.022
78.52,284.798,40.495
78.55,284.236,40.679
78.59,284.587,40.942
78.62,285.289,40.564
78.65,284.657,40.14
78.68,283.815,40.129
78.72,284.061,40.209
78.75,284.517,39.934
78.78,283.815,39.613
78.81,282.095,39.51
78.85,281.007,39.224
78.88,280.376,38.685
78.91,279.358,38.342
78.94,278.165,38.216
78.98,277.147,38.147
79.01,276.164,38.021
79.04,274.936,37.883
79.07,273.743,37.643
79.11,272.198,37.265
79.14,270.409,36.921
79.17,268.549,36.635
79.2,267.075,36.452
79.24,265.53,36.44
79.27,263.249,36.692
79.3,261.53,36.944
79.33,260.968,36.979
79.37,260.406,36.772
79.4,258.862,36.589
79.43,257.037,36.532
79.46,256.02,36.291
79.5,255.177,35.97
79.53,253.493,35.844
79.56,251.808,35.799
79.59,250.334,35.615
79.63,248.93,35.283
79.66,247.527,34.951
79.69,246.088,34.63
79.72,244.438,34.39
79.76,242.754,33.897
79.79,240.964,33.485
79.82,239.139,33.313
79.85,237.454,32.797
79.89,235.068,32.19
79.92,232.716,31.927
79.95,231.102,31.801
79.98,229.768,31.423
80.02,227.908,31.205
80.05,226.083,31.01
80.08,224.258,30.735
80.11,222.433,30.667
80.15,221.065,30.437
80.18,219.415,29.933
80.21,216.888,29.635
80.24,214.432,29.613
80.28,212.677,29.326
80.31,210.852,28.994
80.34,208.922,28.857
80.37,206.886,28.524
80.41,204.535,27.986
80.44,202.219,27.551
80.47,200.148,27.184
80.5,198.218,26.76
80.54,196.217,26.451
80.57,194.041,26.199
80.6,191.901,25.97
80.63,189.584,25.603
80.67,187.163,25.111
80.7,184.496,24.664
80.73,182.004,24.206
80.76,179.547,23.793
80.8,177.406,23.53
80.83,175.23,23.22
80.86,173.019,22.762
80.89,170.387,22.189
80.93,167.404,21.743
80.96,164.456,21.273
80.99,161.578,20.643
81.02,158.63,20.162
81.06,155.998,19.944
81.09,153.612,19.589
81.12,150.804,19.085
81.15,147.716,18.547
81.19,144.522,18.214
81.22,141.679,17.687
81.25,139.188,17.229
81.28,136.345,16.656
81.32,132.941,16.221
81.35,129.993,15.923
81.38,127.29,15.339
81.41,124.202,14.789
81.45,120.833,14.331
81.48,117.534,13.815
81.51,114.13,13.311
81.54,110.866,12.853
81.58,107.672,12.429
81.61,104.373,11.914
81.64,101.706,11.994
81.67,101.039,12.28
81.71,100.092,11.834
81.74,97.108,11.215
81.77,93.143,10.745
81.8,89.493,10.127
81.84,86.053,9.348
81.87,82.509,8.683
81.9,78.368,7.893
81.93,72.998,6.747
81.97,66.891,5.774
82.0,61.417,5.098
82.03,57.135,4.491
82.06,53.099,3.941
82.1,49.309,3.78
82.13,46.115,3.643
82.16,43.132,3.322
82.19,39.201,2.99
82.23,35.411,2.875
82.26,32.463,2.623
82.29,29.445,2.28
82.32,26.041,1.982
82.36,22.496,1.787
82.39,19.162,1.569
82.42,15.758,1.226
82.45,11.757,0.836
82.49,7.545,0.607
82.52,3.229,0.642
82.55,0.386,0.561
82.58,-0.281,-0.241
82.62,-0.351,-1.352
82.65,-1.474,-2.429
82.68,-5.334,-3.334
82.71,-10.178,-4.216
82.75,-14.494,-5.189
82.78,-18.285,-6.026
82.81,-22.707,-6.679
82.84,-27.936,-7.332
82.88,-33.411,-7.732
82.91,-37.727,-7.859
82.94,-41.132,-8.111
82.97,-44.817,-8.477
83.01,-48.361,-8.511
83.04,-51.134,-8.637
83.07,-53.941,-8.993
83.1,-56.995,-9.405
83.14,-60.048,-9.68
83.17,-62.891,-10.058
83.2,-66.435,-10.516
83.24,-70.401,-10.848
83.27,-73.805,-11.032
83.3,-76.157,-11.318
83.33,-78.719,-11.891
83.37,-82.298,-12.532
83.4,-86.264,-12.991
83.43,-89.809,-13.346
83.46,-92.792,-13.907
83.5,-95.95,-14.434
83.53,-99.495,-14.64
83.56,-102.689,-14.801
83.59,-105.637,-15.316
83.63,-109.181,-15.889
83.66,-112.971,-16.21
83.69,-116.2,-16.542
83.72,-119.043,-17.092
83.76,-122.131,-17.516
83.79,-124.904,-17.79
83.82,-127.606,-18.157
83.85,-131.046,-18.627
83.89,-135.081,-19.096
83.92,-138.31,-19.463
83.95,-140.627,-19.864
83.98,-143.118,-20.402
84.02,-146.452,-20.803
84.05,-149.857,-21.021
84.08,-152.699,-21.261
84.11,-153.05,-20.162
84.15,-148.979,-18.26
84.18,-145.329,-18.226
84.21,-147.084,-18.776
84.24,-151.015,-18.799
84.28,-153.787,-19.738
84.31,-155.402,-20.574
84.34,-156.981,-21.422
84.37,-161.227,-22.877
84.41,-167.86,-24.091
84.44,-174.318,-25.156
84.47,-179.372,-26.348
84.5,-183.723,-27.207
84.54,-187.549,-27.539
84.57,-191.269,-27.86
84.6,-195.164,-27.986
84.63,-198.288,-27.871
84.67,-200.394,-27.86
84.7,-202.464,-28.009
84.73,-204.781,-28.066
84.76,-206.956,-28.066
84.8,-208.501,-28.078
84.83,-209.729,-28.249
84.86,-211.308,-28.249
84.89,-213.028,-28.272
84.93,-214.677,-28.524
84.96,-216.432,-28.868
84.99,-218.398,-29.143
85.02,-220.433,-29.452
85.06,-222.083,-29.807
85.09,-223.381,-30.208
85.12,-225.171,-30.414
85.15,-227.347,-30.563
85.19,-229.102,-30.953
85.22,-230.26,-31.342
85.25,-231.383,-31.697
85.28,-233.348,-32.098
85.32,-235.559,-32.339
85.35,-237.454,-32.534
85.38,-238.963,-32.832
85.41,-240.964,-33.255
85.45,-243.666,-33.588
85.48,-245.912,-33.714
85.51,-247.141,-34.057
85.54,-248.86,-34.561
85.58,-251.212,-34.687
85.61,-252.896,-34.573
85.64,-253.949,-34.653
85.67,-255.072,-34.894
85.71,-256.371,-35.1
85.74,-257.88,-35.306
85.77,-259.599,-35.524
85.8,-261.354,-35.707
85.84,-262.863,-35.776
85.87,-263.986,-35.661
85.9,-264.723,-35.615
85.93,-265.39,-35.741
85.97,-266.443,-35.936
86.0,-267.952,-36.142
86.03,-269.426,-36.44
86.06,-270.584,-36.795
86.1,-271.672,-37.082
86.13,-273.006,-37.116
86.16,-273.988,-37.093
86.19,-273.602,-37.769
86.23,-273.672,-38.571
86.26,-274.936,-38.937
86.29,-276.445,-39.041
86.32,-277.603,-39.27
86.36,-278.445,-39.602
86.39,-279.253,-39.797
86.42,-279.919,-39.923
86.45,-280.27,-39.923
86.49,-280.481,-39.911
86.52,-281.323,-39.923
86.55,-282.341,-39.854
86.58,-282.832,-39.911
86.62,-283.043,-40.06
86.65,-283.569,-40.163
86.68,-283.92,-40.037
86.71,-283.955,-39.671
86.75,-283.534,-39.315
86.78,-283.64,-39.338
86.81,-284.306,-39.361
86.84,-284.201,-39.247
86.88,-283.499,-39.464
86.91,-283.534,-39.499
86.94,-283.92,-39.212
86.97,-283.815,-38.8
87.01,-282.867,-38.708
87.04,-282.341,-38.892
87.07,-282.446,-38.914
87.1,-282.587,-38.8
87.14,-282.095,-38.731
87.17,-281.007,-38.525
87.2,-278.445,-38.399
87.23,-275.919,-38.628
87.27,-275.427,-38.777
87.3,-276.27,-38.823
87.33,-276.375,-38.857
87.36,-274.936,-38.983
87.4,-273.392,-38.926
87.43,-272.269,-38.502
87.46,-271.251,-38.055
87.49,-270.058,-37.712
87.53,-268.794,-37.517
87.56,-267.882,-37.368
87.59,-267.145,-37.15
87.62,-265.811,-37.024
87.66,-264.478,-36.91
87.69,-262.758,-36.474
87.72,-260.477,-36.074
87.75,-258.722,-35.902
87.79,-257.88,-35.684
87.82,-256.827,-35.363
87.85,-254.967,-35.146
87.88,-252.966,-35.111
87.92,-251.984,-34.962
87.95,-251.036,-34.47
87.98,-249.176,-34.115
88.01,-247.035,-34.012
88.05,-245.631,-33.782
88.08,-244.579,-33.359
88.11,-243.315,-33.026
88.14,-241.666,-32.877
88.18,-239.735,-32.694
88.21,-237.7,-32.213
88.24,-235.419,-31.778
88.27,-233.418,-31.526
88.31,-231.032,-31.377
88.34,-228.365,-31.285
88.37,-226.154,-31.067
88.4,-224.574,-30.804
88.44,-223.065,-30.632
88.47,-221.205,-30.346
88.5,-218.854,-29.991
88.53,-216.397,-29.75
88.57,-214.397,-29.464
88.6,-212.466,-29.131
88.63,-210.466,-28.879
88.66,-208.571,-28.685
88.7,-206.851,-28.444
88.73,-205.096,-27.974
88.76,-202.745,-27.516
88.79,-200.323,-27.264
88.83,-198.674,-26.932
88.86,-197.27,-26.531
88.89,-195.656,-26.21
88.92,-193.48,-25.878
88.96,-190.918,-25.454
88.99,-188.11,-24.939
89.02,-185.338,-24.492
89.05,-182.916,-24.057
89.09,-180.46,-23.644
89.12,-177.898,-23.358
89.15,-175.652,-23.14
89.19,-173.441,-22.716
89.22,-170.879,-22.281
89.25,-167.896,-21.72
89.28,-164.597,-21.101
89.32,-161.859,-20.838
89.35,-159.543,-20.253
89.38,-156.841,-19.967
89.41,-154.314,-19.887
89.45,-152.032,-19.429
89.48,-149.435,-18.856
89.51,-146.487,-18.306
89.54,-143.224,-17.619
89.58,-139.644,-17.034
89.61,-136.24,-16.542
89.64,-133.151,-16.038
89.67,-130.168,-15.602
89.71,-127.045,-15.213
89.74,-124.062,-14.789
89.77,-120.973,-14.262
89.8,-117.639,-13.735
89.84,-114.2,-13.3
89.87,-110.971,-12.945
89.9,-108.234,-12.567
89.93,-105.566,-12.086
89.97,-102.197,-11.559
90.0,-98.407,-11.089
90.03,-94.652,-10.425
90.06,-91.002,-9.657
90.1,-87.106,-8.981
90.13,-83.316,-8.489
90.16,-79.315,-8.03
90.19,-75.314,-7.675
90.23,-72.086,-7.286
90.26,-69.278,-6.942
90.29,-66.33,-6.484
90.32,-62.856,-6.049
90.36,-59.346,-5.648
90.39,-56.293,-5.304
90.42,-53.45,-4.926
90.45,-50.397,-4.502
90.49,-47.168,-4.101
90.52,-43.939,-3.735
90.55,-40.5,-3.219
90.58,-36.815,-2.749
90.62,-32.919,-2.417
90.65,-29.269,-2.062
90.68,-26.041,-1.695
90.71,-22.566,-1.363
90.75,-18.565,-1.146
90.78,-14.635,-0.997
90.81,-10.704,-0.905
90.84,-7.089,-0.745
90.88,-3.018,-0.63
90.91,-0.175,-0.378
90.94,0.386,0.481
90.97,0.562,1.695
91.01,2.702,2.944
91.04,7.686,3.918
91.07,12.88,4.823
91.1,17.162,5.728
91.14,21.022,6.392
91.17,25.198,6.736
91.2,29.726,7.022
91.23,34.113,7.297
91.27,37.973,7.469
91.3,40.956,7.687
91.33,44.044,7.973
91.36,47.659,8.156
91.4,51.134,8.34
91.43,54.257,8.615
91.46,57.205,8.981
91.49,60.118,9.394
91.53,63.206,9.863
91.56,66.47,10.241
91.59,69.629,10.688
91.62,72.928,11.123
91.66,76.262,11.456
91.69,79.666,11.937
91.72,83.211,12.498
91.75,86.615,12.887
91.79,89.703,13.403
91.82,92.757,13.976
91.85,96.161,14.434
91.88,99.706,14.846
91.92,103.25,15.247
91.95,106.584,15.614
91.98,109.883,16.118
92.01,113.428,16.462
92.05,116.762,16.828
92.08,119.569,17.16
92.11,122.166,17.527
92.14,125.114,17.871
92.18,128.027,18.317
92.21,131.256,18.799
92.24,134.59,19.154
92.27,138.1,19.704
92.31,141.574,20.047
92.34,144.382,20.242
92.37,146.944,20.574
92.4,149.892,21.021
92.44,153.015,21.296
92.47,155.893,21.594
92.5,158.63,22.006
92.53,161.438,22.453
92.57,164.386,22.808
92.6,167.123,23.197
92.63,169.65,23.576
92.66,172.142,23.931
92.7,175.02,24.217
92.73,178.354,24.549
92.76,181.477,24.985
92.79,184.32,25.408
92.83,186.812,25.718
92.86,189.128,26.107
92.89,191.444,26.382
92.92,193.936,26.485
92.96,195.972,26.634
92.99,197.832,26.966
93.02,200.148,27.276
93.05,202.675,27.447
93.09,204.991,27.654
93.12,207.097,27.883
93.15,208.501,27.848
93.18,209.132,27.986
93.22,209.975,28.421
93.25,211.975,28.925
93.28,214.397,29.28
93.31,216.467,29.681
93.35,218.362,30.174
93.38,220.609,30.552
93.41,222.328,30.644
93.44,223.592,30.758
93.48,225.311,31.067
93.51,227.838,31.4
93.54,230.611,31.583
93.57,232.681,31.789
93.61,233.734,32.156
93.64,235.033,32.591
93.67,237.419,32.66
93.7,239.735,32.683
93.74,241.104,32.946
93.77,242.122,33.278
93.8,243.596,33.496
93.83,245.842,33.748
93.87,248.334,34.0
93.9,250.124,34.241
93.93,250.931,34.344
93.96,251.703,34.39
94.0,253.493,34.607
94.03,255.984,34.825
94.06,257.704,35.054
94.09,259.003,35.352
94.13,260.161,35.627
94.16,261.81,35.799
94.19,262.372,35.844
94.22,261.494,36.257
94.26,261.67,36.864
94.29,263.846,37.265
94.32,266.267,37.494
94.35,267.145,37.929
94.39,267.601,38.64
94.42,269.531,39.132
94.45,271.777,38.834
94.48,272.444,38.823
94.52,273.427,39.212
94.55,275.076,39.201
94.58,276.48,39.212
94.61,277.638,39.613
94.65,279.007,39.911
94.68,280.165,39.865
94.71,280.762,39.808
94.74,280.937,39.888
94.78,281.078,39.785
94.81,281.323,39.464
94.84,282.025,39.396
94.87,282.867,39.373
94.91,283.148,39.453
94.94,283.113,39.659
94.97,283.64,39.613
95.0,283.604,39.361
95.04,283.885,39.911
95.07,284.657,39.648
95.1,284.412,39.464
95.14,284.763,40.106
95.17,285.5,39.854
95.2,284.201,39.774
95.23,282.727,40.266
95.27,283.324,40.392
95.3,283.745,39.934
95.33,282.867,39.888
95.36,282.411,40.312
95.4,283.078,40.335
95.43,282.973,40.083
95.46,282.376,40.014
95.49,281.92,39.693
95.53,281.007,39.144
95.56,279.428,38.777
95.59,278.094,38.571
95.62,277.393,38.388
95.66,276.936,38.273
95.69,275.813,38.136
95.72,274.199,37.952
95.75,272.479,37.62
95.79,271.005,37.253
95.82,269.882,36.83
95.85,268.303,36.566
95.88,266.583,36.6
95.92,265.215,36.635
95.95,264.337,36.509
95.98,263.811,36.303
96.01,262.793,36.028
96.05,260.793,35.695
96.08,258.617,35.478
96.11,257.178,35.317
96.14,256.371,35.054
96.18,255.493,34.722
96.21,253.177,34.687
96.24,250.053,34.962
96.27,247.878,35.031
96.31,246.579,34.813
96.34,245.316,34.745
96.37,243.736,34.859
96.4,242.227,34.642
96.44,241.069,34.264
96.47,240.262,34.126
96.5,238.823,33.737
96.53,235.98,33.175
96.57,233.313,32.832
96.6,232.05,32.557
96.63,231.242,32.098
96.66,229.242,31.812
96.7,226.82,31.675
96.73,224.504,31.308
96.76,222.749,31.171
96.79,221.977,30.93
96.83,220.398,30.46
96.86,217.766,30.128
96.89,215.765,29.933
96.92,214.713,29.498
96.96,213.098,29.051
96.99,210.957,28.811
97.02,208.676,28.444
97.05,206.219,27.837
97.09,203.517,27.344
97.12,201.096,27.058
97.15,199.025,26.714
97.18,196.884,26.474
97.22,194.778,26.313
97.25,192.918,26.13
97.28,191.023,25.809
97.31,188.847,25.363
97.35,186.356,24.881
97.38,183.723,24.412
97.41,181.056,23.908
97.44,178.635,23.598
97.48,176.775,23.358
97.51,174.809,22.9
97.54,171.791,22.247
97.57,168.141,21.823
97.61,165.193,21.514
97.64,162.912,20.895
97.67,160.21,20.276
97.7,157.332,20.001
97.74,154.173,19.314
97.77,150.909,18.925
97.8,148.453,18.833
97.83,146.066,18.432
97.87,143.259,18.088
97.9,139.995,17.458
97.93,136.871,17.206
97.96,134.59,16.966
98.0,132.66,16.565
98.03,130.133,16.038
98.06,126.553,15.511
98.09,122.833,14.972
98.13,119.534,14.342
98.16,116.165,13.77
98.19,113.007,13.277
98.22,110.164,12.887
98.26,107.181,12.532
98.29,103.987,12.051
98.32,100.723,11.524
98.35,97.284,10.86
98.39,93.248,10.092
98.42,88.861,9.348
98.45,84.369,8.637
98.48,80.017,8.007
98.52,75.946,7.4
98.55,72.05,6.873
98.58,68.365,6.438
98.61,64.961,6.094
98.65,61.732,5.877
98.68,58.995,5.716
98.71,56.644,5.476
98.74,53.941,5.178
98.78,50.713,4.869
98.81,47.484,4.513
98.84,44.466,4.101
98.87,41.377,3.608
98.91,37.833,3.127
98.94,34.077,2.772
98.97,30.392,2.486
99.0,26.953,2.085
99.04,23.479,1.684
99.07,19.724,1.398
99.1,15.758,1.111
99.13,11.476,0.871
99.17,7.545,0.687
99.2,3.194,0.71
99.23,0.351,0.607
99.26,-0.281,-0.183
99.3,-0.421,-1.398
99.33,-1.649,-2.726
99.36,-6.107,-3.769
99.39,-11.441,-4.639
99.43,-16.003,-5.636
99.46,-19.899,-6.427
99.49,-24.286,-6.713
99.52,-28.778,-6.965
99.56,-33.235,-7.274
99.59,-36.955,-7.446
99.62,-39.973,-7.572
99.65,-42.886,-7.927
99.69,-46.255,-8.294
99.72,-49.765,-8.511
99.75,-52.888,-8.832
99.78,-55.942,-9.336
99.82,-59.241,-9.749
99.85,-62.54,-10.104
99.88,-65.768,-10.573
99.91,-69.348,-10.997
99.95,-72.928,-11.364
99.98,-75.946,-11.708
100.01,-78.859,-12.109
100.04,-82.053,-12.613
100.08,-85.492,-13.128
100.11,-88.756,-13.644
100.14,-92.02,-14.159
100.17,-95.389,-14.629
100.21,-99.004,-15.041
100.24,-102.829,-15.259
100.27,-106.549,-15.488
100.3,-110.023,-15.797
100.34,-113.322,-16.129
100.37,-116.411,-16.404
100.4,-119.359,-16.771
100.43,-122.026,-17.172
100.47,-125.15,-17.71
100.5,-128.589,-18.042
100.53,-131.502,-18.317
100.56,-134.555,-18.787
100.6,-137.784,-19.108
100.63,-140.802,-19.658
100.66,-143.961,-19.967
100.69,-146.523,-20.07
100.73,-148.488,-20.334
100.76,-150.734,-20.425
100.79,-152.664,-20.551
100.82,-155.086,-20.964
100.86,-158.034,-21.456
100.89,-160.982,-21.972
100.92,-163.86,-22.43
100.95,-166.737,-22.911
100.99,-169.896,-23.45
101.02,-173.37,-24.022
101.05,-176.845,-24.549
101.09,-180.67,-25.237
101.12,-184.706,-25.821
101.15,-188.356,-26.164
101.18,-191.444,-26.451
101.22,-193.866,-26.749
101.25,-196.077,-26.84
101.28,-198.183,-26.863
101.31,-199.973,-27.024
101.35,-201.833,-27.299
101.38,-204.079,-27.447
101.41,-206.114,-27.482
101.44,-207.378,-27.562
101.48,-208.501,-27.596
101.51,-209.764,-27.551
101.54,-211.203,-27.654
101.57,-212.712,-27.894
101.61,-214.362,-28.181
101.64,-215.976,-28.49
101.67,-217.625,-28.857
101.7,-219.731,-29.246
101.74,-221.907,-29.59
101.77,-223.978,-29.842
101.8,-225.627,-30.151
101.83,-227.417,-30.563
101.87,-229.733,-30.781
101.9,-231.523,-30.77
101.93,-233.138,-31.285
101.96,-235.349,-31.675
102.0,-237.314,-31.675
102.03,-238.437,-31.743
102.06,-239.735,-32.144
102.09,-241.911,-32.316
102.13,-243.877,-32.259
102.16,-244.894,-32.545
102.19,-246.263,-32.981
102.22,-247.772,-33.336
102.26,-248.79,-33.771
102.29,-249.597,-34.218
102.32,-250.896,-34.676
102.35,-252.896,-35.1
102.39,-255.388,-35.489
102.42,-257.318,-35.902
102.45,-258.827,-36.257
102.48,-260.687,-36.406
102.52,-262.056,-36.348
102.55,-262.968,-36.417
102.58,-264.091,-36.532
102.61,-265.53,-36.589
102.65,-266.899,-36.658
102.68,-268.584,-36.83
102.71,-269.987,-36.979
102.74,-270.97,-37.253
102.78,-271.742,-37.494
102.81,-273.076,-37.586
102.84,-274.409,-37.517
102.87,-275.006,-37.391
102.91,-275.322,-37.769
102.94,-276.936,-38.239
102.97,-278.867,-38.044
103.0,-279.393,-37.941
103.04,-280.13,-38.365
103.07,-281.709,-38.399
103.1,-282.657,-38.021
103.13,-281.885,-37.769
103.17,-281.569,-38.273
103.2,-282.762,-38.594
103.23,-282.376,-38.8
103.26,-281.183,-39.327
103.3,-281.393,-39.842
103.33,-282.762,-40.152
103.36,-283.113,-39.739
103.39,-282.13,-40.014
103.43,-283.183,-40.644
103.46,-285.359,-40.369
103.49,-285.394,-40.289
103.52,-285.114,-40.908
103.56,-286.026,-40.839
103.59,-286.412,-40.312
103.62,-285.605,-39.945
103.65,-284.587,-39.625
103.69,-284.341,-39.43
103.72,-284.482,-39.361
103.75,-284.026,-39.304
103.78,-283.359,-39.052
103.82,-282.201,-38.697
103.85,-280.937,-38.399
103.88,-279.779,-38.067
103.91,-278.551,-37.792
103.95,-277.287,-37.815
103.98,-276.936,-37.872
104.01,-276.55,-37.631
104.04,-275.427,-37.379
104.08,-273.743,-37.105
104.11,-271.637,-36.738
104.14,-269.496,-36.463
104.17,-268.198,-36.291
104.21,-267.671,-36.177
104.24,-266.022,-36.28
104.27,-263.074,-36.715
104.3,-261.214,-37.047
104.34,-260.898,-36.887
104.37,-260.442,-36.658
104.4,-259.038,-36.658
104.43,-257.143,-36.566
104.47,-255.598,-36.406
104.5,-254.651,-36.142
104.53,-253.809,-35.833
104.56,-252.615,-35.501
104.6,-250.65,-35.123
104.63,-247.948,-34.516
104.66,-246.053,-34.241
104.69,-245.175,-34.115
104.73,-244.017,-33.611
104.76,-241.701,-33.233
104.79,-239.174,-33.003
104.82,-237.805,-32.786
104.86,-236.823,-32.328
104.89,-234.927,-31.915
104.92,-232.506,-31.686
104.95,-230.54,-31.526
104.99,-228.996,-31.308
105.02,-227.487,-31.01
105.05,-225.908,-30.804
105.08,-224.223,-30.598
105.12,-222.118,-30.22
105.15,-219.556,-29.876
105.18,-217.59,-29.601
105.21,-216.046,-29.292
105.25,-214.081,-29.005
105.28,-211.729,-28.834
105.31,-209.589,-28.708
105.34,-207.799,-28.456
105.38,-205.518,-28.043
105.41,-203.307,-27.906
105.44,-201.236,-27.241
105.47,-199.06,-26.909
105.51,-197.621,-27.024
105.54,-196.463,-26.772
105.57,-194.533,-26.325
105.6,-192.076,-26.084
105.64,-189.725,-25.615
105.67,-187.268,-24.973
105.7,-184.566,-24.458
105.73,-181.442,-23.896
105.77,-178.6,-23.45
105.8,-176.424,-23.243
105.83,-174.318,-22.842
105.86,-171.405,-22.315
105.9,-168.141,-21.949
105.93,-165.404,-21.548
105.96,-162.877,-21.101
105.99,-160.139,-20.54
106.03,-157.227,-20.15
106.06,-154.98,-20.104
106.09,-152.734,-19.406
106.12,-149.33,-18.776
106.16,-145.926,-18.489
106.19,-143.153,-18.008
106.22,-140.486,-17.527
106.25,-137.643,-17.069
106.29,-134.695,-16.737
106.32,-132.239,-16.381
106.35,-130.028,-15.843
106.38,-127.185,-15.339
106.42,-123.886,-14.835
106.45,-120.377,-14.251
106.48,-116.832,-13.644
106.51,-113.393,-13.128
106.55,-110.374,-12.693
106.58,-107.321,-12.212
106.61,-103.812,-11.685
106.64,-100.021,-11.192
106.68,-96.407,-10.619
106.71,-92.686,-9.921
106.74,-88.615,-9.302
106.77,-84.755,-8.752
106.81,-80.93,-8.282
106.84,-77.525,-7.847
106.87,-74.367,-7.377
106.9,-70.927,-7.034
106.94,-67.453,-6.713
106.97,-64.049,-6.289
107.0,-60.609,-5.888
107.04,-57.275,-5.602
107.07,-54.398,-5.292
107.1,-51.555,-4.869
107.13,-48.291,-4.445
107.17,-45.203,-4.078
107.2,-42.079,-3.563
107.23,-38.324,-3.024
107.26,-34.323,-2.738
107.3,-30.779,-2.429
107.33,-27.444,-2.028
107.36,-23.9,-1.661
107.39,-20.004,-1.386
107.43,-16.039,-1.088
107.46,-11.827,-0.779
107.49,-7.721,-0.619
107.52,-3.369,-0.63
107.56,-0.386,-0.596
107.59,0.351,0.115
107.62,0.526,1.329
107.65,1.685,2.543
107.69,5.791,3.46
107.72,10.739,4.353
107.75,15.056,5.304
107.78,18.811,6.037
107.82,22.812,6.404
107.85,26.813,6.896
107.88,31.41,7.4
107.91,35.657,7.664
107.95,39.272,7.881
107.98,42.676,8.111
108.01,46.185,8.454
108.04,49.098,8.58
108.08,51.45,8.786
108.11,54.082,9.29
108.14,57.556,9.783
108.17,61.241,10.092
108.21,64.54,10.505
108.24,68.26,10.871
108.27,71.98,11.1
108.3,75.279,11.398
108.34,78.297,11.753
108.37,81.421,12.28
108.4,84.93,12.784
108.43,88.545,13.254
108.47,92.02,13.678
108.5,95.213,14.113
108.53,98.407,14.549
108.56,101.741,14.881
108.6,104.865,15.224
108.63,108.163,15.717
108.66,111.497,16.164
108.69,114.656,16.622
108.73,118.025,17.034
108.76,121.289,17.367
108.79,124.377,17.642
108.82,127.396,17.974
108.86,130.695,18.512
108.89,133.888,18.787
108.92,136.836,19.314
108.95,140.1,19.887
108.99,143.294,20.196
109.02,145.856,20.437
109.05,148.312,20.861
109.08,151.26,21.261
109.12,154.384,21.536
109.15,157.227,21.88
109.18,160.034,22.315
109.21,163.017,22.739
109.25,166.035,23.094
109.28,168.597,23.427
109.31,171.194,23.805
109.34,173.827,24.102
109.38,176.494,24.435
109.41,179.442,24.939
109.44,182.881,25.363
109.47,186.145,25.66
109.51,188.567,26.073
109.54,190.462,26.439
109.57,192.322,26.6
109.6,194.322,26.749
109.64,196.568,27.047
109.67,199.306,27.321
109.7,202.078,27.459
109.73,204.079,27.608
109.77,205.518,27.894
109.8,207.027,28.1
109.83,208.606,28.078
109.86,210.115,28.181
109.9,211.589,28.605
109.93,213.589,29.028
109.96,215.836,29.326
109.99,217.836,29.67
110.03,219.626,30.197
110.06,221.837,30.392
110.09,223.557,30.174
110.12,224.715,30.449
110.16,226.575,30.976
110.19,229.242,31.159
110.22,230.962,31.48
110.25,231.874,31.995
110.29,233.278,32.442
110.32,235.208,32.797
110.35,237.489,33.164
110.38,239.525,33.221
110.42,241.104,33.404
110.45,243.245,33.931
110.48,245.421,34.172
110.51,247.035,34.229
110.55,247.948,34.653
110.58,249.738,35.031
110.61,251.527,34.871
110.64,252.65,34.997
110.68,254.37,35.455
110.71,256.441,35.615
110.74,258.125,35.661
110.77,259.319,35.982
110.81,260.828,36.268
110.84,262.372,36.234
110.87,263.284,36.119
110.9,264.267,36.245
110.94,265.811,36.326
110.97,267.004,36.394
111.0,267.987,36.669
111.03,269.496,37.024
111.07,271.111,37.162
111.1,272.058,37.288
111.13,272.62,37.597
111.16,273.637,37.803
111.2,274.515,37.826
111.23,274.339,38.399
111.26,274.866,39.201
111.29,276.34,39.487
111.33,277.779,39.453
111.36,278.551,39.625
111.39,279.042,39.991
111.42,279.744,40.129
111.46,280.095,39.98
111.49,280.2,40.152
111.52,281.358,40.289
111.55,282.552,40.163
111.59,282.657,40.186
111.62,282.903,40.553
111.65,283.464,40.278
111.68,283.99,40.117
111.72,284.377,40.072
111.75,284.482,40.278
111.78,285.394,40.598
111.81,285.64,40.266
111.85,285.114,40.289
111.88,285.605,40.472
111.91,286.623,40.117
111.94,286.061,39.716
111.98,284.482,39.579
112.01,283.675,39.487
112.04,284.271,39.373
112.07,284.412,39.144
112.11,283.289,39.075
112.14,281.779,38.857
112.17,280.13,38.559
112.2,277.989,38.536
112.24,276.234,38.628
112.27,275.182,38.754
112.3,274.796,39.018
112.33,274.655,39.132
112.37,273.672,39.098
112.4,272.269,38.937
112.43,270.97,38.617
112.46,269.952,38.181
112.5,268.864,37.792
112.53,267.355,37.666
112.56,266.057,37.643
112.59,265.215,37.46
112.63,264.407,37.242
112.66,263.109,37.059
112.69,261.53,36.761
112.72,259.705,36.348
112.76,257.985,36.142
112.79,256.757,35.993
112.82,255.458,35.718
112.86,253.668,35.535
112.89,252.264,35.398
112.92,251.176,35.077
112.95,249.702,34.607
112.99,247.842,34.16
113.02,245.631,33.851
113.05,243.912,33.542
113.08,242.332,33.049
113.12,240.332,33.003
113.15,238.718,32.969
113.18,236.647,32.499
113.21,233.839,32.236
113.25,232.12,32.224
113.28,231.032,32.03
113.31,229.523,31.789
113.34,227.628,31.663
113.38,225.978,31.445
113.41,224.294,31.159
113.44,222.574,30.941
113.47,220.363,30.311
113.51,217.836,30.059
113.54,216.397,30.117
113.57,215.344,29.704
113.6,213.589,29.257
113.64,211.378,29.109
113.67,209.694,28.902
113.7,207.799,28.375
113.73,205.553,27.791
113.77,202.815,27.425
113.8,200.148,27.069
113.83,198.007,26.703
113.86,196.252,26.474
113.9,194.673,26.199
113.93,192.567,25.867
113.96,189.725,25.5
113.99,186.882,25.099
114.03,184.671,24.675
114.06,182.811,24.183
114.09,180.565,23.679
114.12,178.108,23.381
114.16,175.757,23.083
114.19,173.019,22.625
114.22,169.791,22.063
114.25,166.772,21.651
114.29,164.035,21.181
114.32,161.227,20.631
114.35,158.315,20.219
114.38,155.858,20.047
114.42,153.612,19.669
114.45,150.839,19.165
114.48,147.435,18.592
114.51,144.417,18.386
114.55,141.96,17.79
114.58,139.153,16.989
114.61,135.889,16.702
114.64,132.906,16.439
114.68,130.168,16.038
114.71,127.361,15.568
114.74,124.272,15.053
114.77,121.114,14.445
114.81,117.709,13.838
114.84,114.059,13.3
114.87,110.55,12.853
114.9,107.532,12.475
114.94,104.338,11.96
114.97,100.758,11.398
115.0,97.144,10.848
115.03,93.494,10.184
115.07,89.738,9.565
115.1,85.843,8.947
115.13,81.877,8.351
115.16,77.876,7.881
115.2,74.191,7.469
115.23,70.927,6.954
115.26,67.628,6.472
115.29,64.154,6.129
115.33,60.785,5.785
115.36,57.697,5.35
115.39,54.608,4.949
115.42,51.45,4.685
115.46,48.361,4.387
115.49,45.378,4.009
115.52,42.43,3.551
115.55,39.061,3.185
115.59,35.657,2.818
115.62,32.358,2.451
115.65,28.989,2.131
115.68,25.584,1.833
115.72,22.285,1.558
115.75,18.811,1.34
115.78,15.302,1.077
115.81,11.441,0.779
115.85,7.405,0.481
115.88,2.737,0.435
115.91,0.105,0.195
115.94,-0.316,-0.722
115.98,-0.667,-1.97
116.01,-3.194,-3.036
116.04,-8.037,-3.918
116.07,-12.915,-4.892
116.11,-17.126,-5.9
116.14,-21.338,-6.495
116.17,-25.865,-6.759
116.2,-30.428,-7.091
116.24,-34.674,-7.332
116.27,-38.078,-7.469
116.3,-41.026,-7.641
116.33,-44.325,-7.939
116.37,-47.835,-8.133
116.4,-51.169,-8.385
116.43,-54.503,-8.763
116.46,-57.521,-9.199
116.5,-60.469,-9.68
