Trigger_Date,2023/09/13
Trigger_Time,T 08:32:17.051 PDT
Samples_Per_Cycle,512
Microseconds_Per_Sample,32.496
Time (ms),Voltage (V),Current (A)
-16.64,-79.35,-14.445
-16.61,-82.298,-14.892
-16.57,-86.053,-15.316
-16.54,-89.879,-15.683
-16.51,-93.108,-16.095
-16.48,-96.126,-16.278
-16.44,-99.074,-16.53
-16.41,-101.846,-16.908
-16.38,-104.233,-17.332
-16.35,-106.619,-17.813
-16.31,-109.462,-18.375
-16.28,-112.656,-19.016
-16.25,-116.13,-19.635
-16.22,-119.113,-20.127
-16.18,-122.026,-20.54
-16.15,-125.255,-20.746
-16.12,-128.448,-21.044
-16.09,-131.818,-21.536
-16.05,-134.871,-21.892
-16.02,-137.503,-22.281
-15.99,-140.591,-22.9
-15.96,-144.978,-23.713
-15.92,-148.523,-23.828
-15.89,-150.488,-24.068
-15.86,-152.805,-24.538
-15.83,-156.349,-24.893
-15.79,-159.824,-25.145
-15.76,-162.386,-25.603
-15.73,-164.807,-26.004
-15.7,-167.439,-26.199
-15.66,-170.001,-26.348
-15.63,-172.388,-26.6
-15.6,-174.879,-26.909
-15.57,-177.617,-27.081
-15.53,-180.46,-27.379
-15.5,-182.776,-27.952
-15.47,-185.162,-28.501
-15.44,-187.935,-28.708
-15.4,-190.321,-28.868
-15.37,-192.146,-29.177
-15.34,-194.006,-29.418
-15.31,-195.937,-29.383
-15.27,-198.183,-29.762
-15.24,-201.271,-30.266
-15.21,-203.517,-30.38
-15.18,-204.289,-30.598
-15.14,-205.518,-30.941
-15.11,-208.044,-31.067
-15.08,-210.255,-31.251
-15.05,-212.01,-31.697
-15.01,-213.905,-32.11
-14.98,-216.257,-32.431
-14.95,-218.994,-32.66
-14.92,-221.486,-32.935
-14.88,-223.276,-33.164
-14.85,-224.995,-33.381
-14.82,-226.996,-33.53
-14.79,-229.102,-33.782
-14.75,-231.172,-33.943
-14.72,-232.822,-34.126
-14.69,-234.155,-34.332
-14.66,-235.84,-34.607
-14.62,-238.226,-35.008
-14.59,-240.894,-35.249
-14.56,-242.824,-35.386
-14.53,-243.456,-35.329
-14.49,-244.649,-35.478
-14.46,-246.93,-35.501
-14.43,-249.597,-35.97
-14.4,-251.633,-36.555
-14.36,-252.861,-36.772
-14.33,-253.984,-36.841
-14.3,-255.809,-37.047
-14.27,-257.95,-37.185
-14.23,-259.354,-37.357
-14.2,-260.757,-37.735
-14.17,-262.968,-37.964
-14.14,-264.864,-38.136
-14.1,-265.952,-38.273
-14.07,-266.969,-38.158
-14.04,-268.233,-38.044
-14.01,-269.531,-38.101
-13.97,-270.83,-38.388
-13.94,-272.128,-38.674
-13.91,-273.076,-38.892
-13.88,-274.409,-39.155
-13.84,-275.848,-39.144
-13.81,-276.726,-39.235
-13.78,-277.814,-39.419
-13.75,-279.077,-39.43
-13.71,-280.305,-39.533
-13.68,-281.429,-39.865
-13.65,-282.797,-40.198
-13.62,-283.99,-40.358
-13.58,-284.938,-40.301
-13.55,-285.71,-40.14
-13.52,-286.237,-39.98
-13.49,-286.447,-39.785
-13.45,-286.623,-39.751
-13.42,-287.325,-40.003
-13.39,-288.202,-40.06
-13.36,-288.132,-39.762
-13.32,-287.535,-39.59
-13.29,-288.132,-40.106
-13.26,-288.799,-39.636
-13.23,-287.57,-39.201
-13.19,-287.009,-39.819
-13.16,-289.114,-39.968
-13.13,-289.781,-39.304
-13.1,-288.202,-39.59
-13.06,-287.605,-39.739
-13.03,-287.746,-39.315
-13.0,-286.938,-39.029
-12.97,-285.991,-39.052
-12.93,-285.886,-39.018
-12.9,-286.061,-39.075
-12.87,-286.166,-39.247
-12.84,-286.096,-39.315
-12.8,-285.464,-38.995
-12.77,-284.201,-38.651
-12.74,-282.867,-38.399
-12.71,-281.99,-38.101
-12.67,-281.323,-37.849
-12.64,-280.551,-37.815
-12.61,-279.428,-37.78
-12.58,-277.989,-37.677
-12.54,-276.726,-37.357
-12.51,-275.603,-36.852
-12.48,-274.059,-36.429
-12.45,-272.058,-36.119
-12.41,-270.163,-35.993
-12.38,-269.321,-35.902
-12.35,-268.584,-35.753
-12.32,-267.145,-35.65
-12.28,-265.074,-35.489
-12.25,-262.968,-35.146
-12.22,-261.53,-34.756
-12.19,-260.231,-34.424
-12.15,-258.371,-34.401
-12.12,-256.511,-34.367
-12.09,-255.002,-34.355
-12.06,-254.686,-34.493
-12.02,-253.914,-34.183
-11.99,-251.106,-33.633
-11.96,-247.491,-33.141
-11.93,-246.053,-32.866
-11.89,-245.982,-32.408
-11.86,-244.473,-32.076
-11.83,-241.876,-32.098
-11.8,-239.806,-32.064
-11.76,-238.507,-31.571
-11.73,-236.507,-31.182
-11.7,-234.296,-31.022
-11.67,-232.646,-30.701
-11.63,-230.681,-30.266
-11.6,-228.294,-29.991
-11.57,-225.768,-29.704
-11.54,-223.311,-29.372
-11.5,-221.135,-29.097
-11.47,-219.275,-28.902
-11.44,-217.38,-28.696
-11.41,-215.239,-28.582
-11.37,-213.484,-28.49
-11.34,-211.975,-28.226
-11.31,-210.291,-28.169
-11.28,-208.887,-28.089
-11.24,-207.202,-27.654
-11.21,-204.851,-27.23
-11.18,-202.675,-26.783
-11.15,-200.394,-26.268
-11.11,-197.586,-26.004
-11.08,-195.34,-25.844
-11.05,-193.761,-25.512
-11.02,-191.83,-25.248
-10.98,-189.444,-25.007
-10.95,-186.847,-24.687
-10.92,-184.46,-24.297
-10.89,-182.425,-23.931
-10.85,-180.6,-23.61
-10.82,-178.389,-23.289
-10.79,-175.932,-22.877
-10.76,-173.3,-22.453
-10.72,-170.598,-22.018
-10.69,-168.001,-21.594
-10.66,-165.088,-21.067
-10.63,-162.21,-20.677
-10.59,-159.508,-20.185
-10.56,-156.735,-19.83
-10.53,-154.103,-19.566
-10.5,-151.436,-19.199
-10.46,-148.909,-18.867
-10.43,-145.786,-18.214
-10.4,-141.609,-17.63
-10.37,-137.468,-17.115
-10.33,-134.38,-16.702
-10.3,-131.888,-16.29
-10.27,-128.694,-15.923
-10.24,-125.711,-15.717
-10.2,-123.325,-15.305
-10.17,-120.692,-14.835
-10.14,-117.744,-14.468
-10.11,-114.34,-14.148
-10.07,-111.041,-13.735
-10.04,-108.023,-13.288
-10.01,-105.215,-12.853
-9.98,-102.338,-12.429
-9.94,-99.039,-11.994
-9.91,-95.494,-11.318
-9.88,-91.353,-10.528
-9.85,-87.247,-9.921
-9.81,-83.737,-9.382
-9.78,-79.947,-8.832
-9.75,-75.841,-8.511
-9.72,-72.401,-8.237
-9.68,-69.769,-7.813
-9.65,-66.786,-7.274
-9.62,-62.961,-6.759
-9.59,-58.995,-6.278
-9.55,-55.661,-5.728
-9.52,-52.608,-5.144
-9.49,-49.133,-4.628
-9.46,-45.273,-4.17
-9.42,-40.991,-3.735
-9.39,-36.92,-3.311
-9.36,-33.2,-2.978
-9.33,-29.655,-2.726
-9.29,-26.076,-2.474
-9.26,-22.426,-2.177
-9.23,-18.706,-1.925
-9.2,-15.302,-1.661
-9.16,-11.546,-1.398
-9.13,-7.932,-1.1
-9.1,-3.264,-0.939
-9.07,-0.07,-0.745
-9.03,0.526,0.172
-9.0,0.807,1.42
-8.97,2.281,2.669
-8.94,6.317,3.391
-8.9,10.599,4.525
-8.87,14.459,6.278
-8.84,18.32,7.572
-8.81,22.777,8.271
-8.77,27.444,9.084
-8.74,32.568,9.932
-8.71,37.061,10.47
-8.68,40.816,10.917
-8.64,44.606,11.295
-8.61,48.642,11.524
-8.58,52.678,11.559
-8.55,55.872,11.616
-8.51,58.434,11.868
-8.48,61.592,12.28
-8.45,65.382,12.567
-8.42,68.646,12.842
-8.38,70.787,13.357
-8.35,73.349,14.045
-8.32,76.999,14.434
-8.29,80.684,14.915
-8.25,84.264,15.557
-8.22,87.808,16.038
-8.19,91.248,16.53
-8.16,94.968,16.989
-8.12,98.618,17.16
-8.09,101.39,17.401
-8.06,104.303,17.733
-8.03,107.321,17.962
-7.99,109.883,18.363
-7.96,112.936,18.936
-7.93,116.586,19.417
-7.9,119.675,19.864
-7.86,122.202,20.196
-7.83,124.623,20.448
-7.8,127.606,21.055
-7.77,130.73,21.388
-7.73,133.467,21.846
-7.7,136.626,22.189
-7.67,139.819,22.338
-7.64,142.451,22.693
-7.6,145.364,23.152
-7.57,148.558,23.484
-7.54,151.366,23.816
-7.51,154.208,24.481
-7.47,157.613,24.973
-7.44,160.841,25.259
-7.41,163.333,25.809
-7.38,166.071,26.336
-7.34,168.983,26.508
-7.31,171.265,26.772
-7.28,173.792,27.161
-7.25,176.353,27.356
-7.21,178.951,27.619
-7.18,181.653,28.055
-7.15,184.496,28.433
-7.12,187.198,28.685
-7.08,189.584,28.902
-7.05,191.479,29.109
-7.02,193.831,29.235
-6.99,196.252,29.338
-6.95,198.323,29.67
-6.92,200.323,30.071
-6.89,202.359,30.323
-6.86,204.359,30.621
-6.82,206.43,30.919
-6.79,208.501,30.873
-6.76,209.975,30.953
-6.73,211.589,31.445
-6.69,214.397,32.167
-6.66,217.274,32.385
-6.63,218.854,32.522
-6.6,221.065,33.381
-6.56,224.96,33.737
-6.53,227.452,33.336
-6.5,227.136,33.221
-6.47,228.189,33.576
-6.43,231.348,33.519
-6.4,233.839,33.393
-6.37,234.19,33.748
-6.34,234.892,34.241
-6.3,237.419,34.39
-6.27,239.946,34.378
-6.24,241.174,34.756
-6.21,242.157,35.191
-6.17,243.947,35.421
-6.14,246.579,35.581
-6.11,249.001,35.867
-6.08,250.264,36.268
-6.04,251.212,36.543
-6.01,253.001,36.543
-5.98,255.142,36.532
-5.95,256.721,36.658
-5.91,257.88,36.875
-5.88,259.178,37.185
-5.85,261.038,37.46
-5.82,263.214,37.654
-5.78,264.688,37.861
-5.75,265.671,38.113
-5.72,267.039,38.342
-5.69,269.286,38.353
-5.65,271.426,38.365
-5.62,272.69,38.548
-5.59,273.813,38.72
-5.56,275.006,38.754
-5.52,276.024,38.846
-5.49,277.112,38.96
-5.46,278.235,38.96
-5.43,279.288,39.086
-5.39,280.411,39.304
-5.36,281.464,39.602
-5.33,282.341,39.991
-5.3,283.604,40.163
-5.26,284.727,40.014
-5.23,285.184,40.094
-5.2,285.921,40.186
-5.17,286.447,40.014
-5.13,286.798,40.049
-5.1,287.36,39.968
-5.07,287.64,39.705
-5.04,288.342,40.266
-5.0,289.465,40.278
-4.97,288.869,39.785
-4.94,288.448,40.163
-4.91,289.185,39.819
-4.87,289.325,39.293
-4.84,289.255,39.682
-4.81,290.273,39.98
-4.78,290.448,39.602
-4.74,289.711,39.625
-4.71,289.5,39.602
-4.68,289.886,39.659
-4.65,288.974,38.788
-4.61,286.237,38.319
-4.58,285.289,38.651
-4.55,286.938,38.823
-4.52,287.289,38.41
-4.48,285.114,38.445
-4.45,283.394,38.594
-4.42,283.78,38.571
-4.39,283.394,37.689
-4.35,280.446,37.322
-4.32,278.867,37.62
-4.29,279.779,37.62
-4.26,279.744,37.105
-4.22,277.428,37.162
-4.19,275.006,37.07
-4.16,273.567,36.635
-4.13,272.69,36.131
-4.09,271.181,35.764
-4.06,269.145,35.535
-4.03,267.706,35.512
-4.0,267.215,35.409
-3.96,266.618,35.18
-3.93,264.618,35.02
-3.9,262.442,35.214
-3.87,261.319,34.859
-3.83,259.88,34.298
-3.8,258.231,34.378
-3.77,257.564,34.756
-3.74,257.529,34.768
-3.7,256.371,34.275
-3.67,253.387,33.485
-3.64,250.369,32.958
-3.61,248.79,32.602
-3.57,247.702,32.041
-3.54,245.386,31.629
-3.51,241.771,31.297
-3.48,239.384,30.964
-3.44,238.472,30.712
-3.41,237.138,30.46
-3.38,234.401,30.403
-3.35,231.628,30.38
-3.31,230.049,30.197
-3.28,228.926,29.945
-3.25,227.382,29.853
-3.22,225.452,29.796
-3.18,223.1,29.567
-3.15,220.644,29.257
-3.12,218.748,28.948
-3.09,217.415,28.582
-3.05,215.625,28.318
-3.02,213.379,28.135
-2.99,211.659,27.848
-2.96,210.08,27.574
-2.92,208.115,27.264
-2.89,205.623,26.852
-2.86,203.166,26.428
-2.83,201.236,26.096
-2.79,199.551,25.809
-2.76,197.446,25.66
-2.73,195.164,25.466
-2.7,193.164,25.202
-2.66,191.234,24.836
-2.63,188.953,24.423
-2.6,186.391,23.988
-2.57,183.478,23.587
-2.53,180.846,23.266
-2.5,178.915,23.049
-2.47,176.88,22.797
-2.44,173.897,22.441
-2.4,170.352,22.018
-2.37,167.65,21.468
-2.34,165.263,20.964
-2.31,162.456,20.528
-2.27,159.192,20.299
-2.24,156.49,20.173
-2.21,154.384,19.818
-2.18,151.997,19.383
-2.14,148.979,18.993
-2.11,146.101,18.569
-2.08,143.469,18.031
-2.05,140.346,17.332
-2.01,136.977,16.92
-1.98,133.994,16.725
-1.95,131.818,16.507
-1.92,129.221,15.935
-1.88,125.43,15.305
-1.85,121.64,14.904
-1.82,118.797,14.4
-1.79,115.744,13.792
-1.75,111.954,13.254
-1.72,108.409,12.83
-1.69,104.9,12.097
-1.66,101.601,11.834
-1.62,99.004,11.673
-1.59,96.021,11.135
-1.56,91.809,10.505
-1.53,87.492,10.047
-1.49,84.193,9.577
-1.46,81.386,9.073
-1.43,78.017,8.786
-1.4,74.297,8.454
-1.36,70.647,7.95
-1.33,67.242,7.48
-1.3,64.365,7.068
-1.27,61.452,6.564
-1.23,57.732,6.197
-1.2,54.222,5.945
-1.17,50.993,5.487
-1.14,47.835,5.235
-1.1,44.992,4.949
-1.07,41.588,4.273
-1.04,37.341,3.654
-1.01,33.13,3.07
-0.97,29.199,2.52
-0.94,25.339,2.062
-0.91,21.724,1.787
-0.88,17.723,1.26
-0.84,12.775,0.733
-0.81,8.107,0.504
-0.78,3.123,0.63
-0.75,0.035,0.355
-0.71,-0.316,-0.458
-0.68,-0.562,-1.42
-0.65,-2.597,-2.463
-0.62,-7.44,-3.574
-0.58,-11.897,-4.502
-0.55,-13.582,-5.487
-0.52,-14.915,-6.69
-0.49,-19.232,-7.744
-0.45,-25.374,-8.489
-0.42,-29.901,-9.176
-0.39,-32.849,-10.012
-0.36,-37.306,-10.425
-0.32,-43.132,-10.528
-0.29,-48.01,-10.883
-0.26,-51.134,-11.238
-0.23,-54.117,-11.364
-0.19,-57.697,-11.57
-0.16,-61.452,-11.834
-0.13,-64.716,-12.189
-0.1,-67.769,-12.521
-0.06,-70.576,-12.945
-0.03,-73.349,-13.414
0.0,-76.332,-13.907
0.03,-79.491,-14.434
0.06,-83.141,-14.915
0.1,-86.615,-15.362
0.13,-89.703,-15.912
0.16,-92.967,-16.404
0.19,-96.477,-16.805
0.23,-99.811,-17.126
0.26,-102.724,-17.493
0.29,-105.847,-17.962
0.32,-109.497,-18.432
0.36,-112.761,-18.959
0.39,-115.814,-19.543
0.42,-119.394,-20.001
0.45,-123.114,-20.276
0.49,-126.027,-20.517
0.52,-128.062,-20.849
0.55,-130.554,-21.181
0.58,-133.923,-21.491
0.62,-137.117,-21.949
0.65,-139.995,-22.545
0.68,-142.873,-23.129
0.71,-146.066,-23.587
0.75,-148.663,-23.759
0.78,-151.19,-24.389
0.81,-154.489,-24.824
0.84,-157.683,-24.973
0.88,-160.28,-25.42
0.91,-162.877,-25.924
0.94,-165.895,-26.107
0.97,-168.633,-26.302
1.01,-171.194,-26.588
1.04,-173.511,-26.726
1.07,-175.511,-26.966
1.1,-177.968,-27.402
1.14,-180.986,-27.894
1.17,-184.039,-28.352
1.2,-186.671,-28.799
1.23,-189.128,-29.12
1.27,-191.339,-29.303
1.3,-193.34,-29.532
1.33,-195.972,-29.647
1.36,-198.288,-29.796
1.4,-200.183,-30.162
1.43,-202.219,-30.54
1.46,-204.57,-30.747
1.49,-206.851,-30.941
1.53,-208.36,-31.113
1.56,-209.869,-31.216
1.59,-211.905,-31.274
1.62,-213.94,-31.537
1.66,-216.046,-31.972
1.69,-218.257,-32.35
1.72,-220.468,-32.74
1.75,-222.82,-33.084
1.79,-224.364,-33.152
1.82,-225.452,-33.278
1.85,-227.733,-33.782
1.88,-230.505,-33.954
1.92,-232.12,-33.943
1.95,-233.067,-34.195
1.98,-235.068,-34.676
2.01,-237.77,-34.756
2.05,-239.104,-34.71
2.08,-239.876,-35.065
2.11,-242.262,-35.272
2.14,-245.175,-35.352
2.18,-246.895,-35.81
2.21,-248.72,-36.268
2.24,-250.475,-36.257
2.27,-251.562,-36.337
2.31,-253.072,-36.738
2.34,-255.002,-36.921
2.37,-256.827,-36.967
2.4,-258.231,-37.173
2.44,-259.705,-37.448
2.47,-261.53,-37.551
2.5,-263.074,-37.712
2.53,-264.793,-37.906
2.57,-266.759,-37.975
2.6,-268.268,-37.998
2.63,-269.496,-38.136
2.66,-270.865,-38.284
2.7,-272.409,-38.25
2.73,-273.146,-38.422
2.76,-274.269,-38.777
2.79,-275.392,-38.869
2.83,-276.305,-38.983
2.86,-277.428,-39.098
2.89,-278.586,-39.235
2.92,-279.919,-39.419
2.96,-281.569,-39.625
2.99,-282.903,-39.865
3.02,-283.99,-40.266
3.05,-285.184,-40.255
3.09,-285.57,-40.14
3.12,-285.921,-40.198
3.15,-286.623,-40.037
3.18,-287.184,-39.911
3.22,-287.816,-40.106
3.25,-288.518,-40.22
3.28,-289.009,-40.163
3.31,-289.149,-40.209
3.35,-289.29,-40.278
3.38,-289.746,-40.117
3.41,-289.29,-39.682
3.44,-287.991,-39.671
3.48,-288.448,-39.842
3.51,-289.185,-39.327
3.54,-288.658,-39.499
3.57,-288.307,-39.716
3.61,-287.921,-39.235
3.64,-287.044,-38.937
3.67,-286.833,-39.098
3.7,-287.289,-39.041
3.74,-287.044,-39.075
3.77,-286.517,-39.327
3.8,-286.166,-39.327
3.83,-285.605,-38.903
3.87,-284.552,-38.536
3.9,-283.675,-38.262
3.93,-283.008,-37.975
3.96,-282.201,-37.792
4.0,-281.569,-37.861
4.03,-280.902,-37.815
4.06,-279.709,-37.609
4.09,-278.024,-37.231
4.13,-276.27,-36.795
4.16,-274.129,-36.234
4.19,-272.479,-36.062
4.22,-272.093,-36.268
4.26,-271.672,-36.085
4.29,-270.023,-35.879
4.32,-268.163,-35.856
4.35,-266.969,-35.673
4.39,-265.355,-35.088
4.42,-263.109,-34.664
4.45,-260.757,-34.516
4.48,-259.389,-34.401
4.52,-258.406,-34.126
4.55,-256.476,-34.012
4.58,-254.16,-33.943
4.61,-252.58,-33.679
4.65,-251.176,-33.118
4.68,-249.457,-32.923
4.71,-247.527,-32.786
4.74,-245.421,-32.488
4.78,-243.666,-32.373
4.81,-242.087,-32.19
4.84,-240.543,-32.098
4.87,-238.858,-32.087
4.91,-237.068,-31.789
4.94,-235.033,-31.423
4.97,-232.857,-31.171
5.0,-231.172,-30.827
5.04,-229.558,-30.483
5.07,-228.189,-30.266
5.1,-226.399,-30.128
5.13,-224.399,-29.933
5.17,-222.293,-29.578
5.2,-220.187,-29.177
5.23,-218.187,-28.879
5.26,-216.467,-28.605
5.3,-214.677,-28.387
5.33,-212.607,-28.284
5.36,-210.957,-28.032
5.39,-209.238,-27.642
5.43,-206.781,-27.264
5.46,-203.903,-26.898
5.49,-201.517,-26.531
5.52,-199.551,-26.279
5.56,-197.972,-26.13
5.59,-196.393,-25.901
5.62,-194.147,-25.672
5.65,-191.515,-25.385
5.69,-188.882,-24.939
5.72,-186.391,-24.481
5.75,-183.934,-23.965
5.78,-181.126,-23.45
5.82,-178.284,-23.186
5.85,-175.827,-22.968
5.88,-173.37,-22.579
5.91,-170.738,-22.166
5.95,-167.86,-21.766
5.98,-165.158,-21.41
6.01,-162.842,-20.929
6.04,-160.385,-20.448
6.08,-157.718,-20.208
6.11,-155.191,-19.978
6.14,-152.734,-19.555
6.17,-149.892,-19.257
6.21,-146.628,-18.925
6.24,-143.539,-18.295
6.27,-141.118,-18.077
6.3,-138.416,-17.252
6.34,-134.485,-16.84
6.37,-131.396,-16.897
6.4,-129.15,-16.175
6.43,-125.676,-15.499
6.47,-121.745,-15.11
6.5,-118.446,-14.583
6.53,-115.428,-13.918
6.56,-112.375,-13.575
6.6,-109.567,-13.3
6.63,-106.444,-12.842
6.66,-102.969,-12.349
6.69,-99.319,-11.948
6.73,-95.67,-11.444
6.76,-92.055,-10.917
6.79,-88.475,-10.459
6.82,-85.036,-10.115
6.86,-81.947,-9.703
6.89,-79.245,-9.153
6.92,-75.806,-8.672
6.95,-71.735,-8.294
6.99,-68.015,-7.755
7.02,-64.575,-7.194
7.05,-61.276,-6.736
7.08,-57.697,-6.369
7.12,-54.538,-5.888
7.15,-51.555,-5.189
7.18,-47.694,-4.662
7.21,-43.694,-4.17
7.25,-39.868,-3.54
7.28,-35.902,-2.956
7.31,-31.621,-2.612
7.34,-27.76,-2.486
7.38,-24.216,-2.268
7.41,-20.601,-2.005
7.44,-16.881,-1.867
7.47,-13.266,-1.695
7.51,-9.546,-1.386
7.54,-5.229,-1.088
7.57,-1.123,-1.111
7.6,0.456,-0.515
7.64,0.807,0.756
7.67,1.579,2.463
7.7,5.896,3.792
7.73,11.16,4.571
7.77,14.284,5.888
7.8,17.162,7.286
7.83,21.198,7.847
7.86,25.163,8.214
7.9,29.445,9.164
7.93,33.762,9.68
7.96,37.061,9.714
7.99,40.114,10.161
8.03,44.711,10.791
8.06,49.554,10.883
8.09,52.818,11.215
8.12,55.626,11.914
8.16,59.065,12.212
8.19,62.575,12.315
8.22,65.523,12.842
8.25,68.541,13.403
8.29,71.98,13.838
8.32,75.735,14.342
8.35,79.245,14.835
8.38,83.035,15.179
8.42,86.79,15.454
8.45,89.738,15.877
8.48,92.897,16.313
8.51,96.582,16.565
8.55,99.741,17.046
8.58,102.408,17.676
8.61,105.04,18.134
8.64,108.199,18.661
8.68,112.024,19.245
8.71,115.533,19.589
8.74,118.376,20.013
8.77,121.745,20.46
8.81,125.009,20.586
8.84,127.536,20.769
8.87,130.273,21.273
8.9,133.818,21.777
8.94,137.398,22.281
8.97,139.749,22.625
9.0,141.82,23.232
9.03,144.768,23.633
9.07,147.856,23.679
9.1,150.032,23.782
9.13,151.576,23.942
9.16,153.296,24.206
9.2,155.963,24.549
9.23,159.683,25.099
9.26,163.158,25.695
9.29,165.825,26.199
9.33,168.211,26.554
9.36,170.984,26.886
9.39,173.932,27.15
9.42,176.459,27.447
9.46,179.231,27.952
9.49,182.46,28.41
9.52,185.443,28.788
9.55,188.04,29.154
9.59,190.462,29.383
9.62,192.953,29.521
9.65,195.34,29.647
9.68,197.375,29.933
9.72,199.657,30.277
9.75,202.078,30.54
9.78,204.324,30.747
9.81,206.149,30.964
9.85,207.693,31.079
9.88,209.308,31.056
9.91,211.273,31.171
9.94,213.519,31.64
9.98,215.976,32.362
10.01,219.064,33.049
10.04,222.188,33.29
10.07,224.153,33.519
10.11,225.522,33.714
10.14,226.75,33.668
10.17,228.014,33.668
10.2,229.979,33.794
10.24,232.19,34.023
10.27,234.015,34.057
10.3,234.962,34.206
10.33,236.121,34.596
10.37,237.946,34.642
10.4,239.069,34.676
10.43,240.332,35.191
10.46,243.245,35.695
10.5,245.702,35.89
10.53,247.351,36.383
10.56,249.422,36.83
10.59,252.264,37.013
10.63,253.914,37.013
10.66,254.51,37.127
10.69,255.634,37.253
10.72,257.95,37.311
10.76,260.582,37.448
10.79,262.337,37.712
10.82,263.319,37.987
10.85,264.232,38.262
10.89,265.811,38.296
10.92,267.215,38.17
10.95,267.952,38.319
10.98,269.04,38.628
11.02,270.795,38.914
11.05,272.339,39.178
11.08,273.708,39.373
11.11,275.006,39.567
11.15,276.375,39.602
11.18,277.568,39.59
11.21,278.796,39.636
11.24,280.13,39.625
11.28,281.042,39.911
11.31,282.411,40.255
11.34,283.64,40.358
11.37,284.447,40.553
11.41,285.5,40.507
11.44,286.272,40.243
11.47,286.517,40.198
11.5,286.974,40.175
11.54,287.535,40.014
11.57,287.851,40.129
11.6,288.026,40.335
11.63,288.448,40.232
11.67,288.588,40.014
11.7,288.412,39.957
11.73,288.728,39.774
11.76,288.939,39.774
11.8,289.079,40.106
11.83,289.536,40.243
11.86,289.676,40.106
11.89,289.29,40.049
11.93,288.693,39.751
11.96,287.746,39.338
11.99,286.658,39.144
12.02,286.237,39.235
12.06,286.728,39.338
12.09,286.798,39.384
12.12,286.131,39.476
12.15,285.429,39.396
12.19,284.587,39.086
12.22,283.71,38.846
12.25,282.727,38.697
12.28,282.376,38.525
12.32,282.13,38.319
12.35,281.534,38.262
12.38,280.305,38.101
12.41,278.761,37.769
12.45,277.042,37.368
12.48,275.357,37.013
12.51,274.094,36.681
12.54,272.655,36.452
12.58,270.97,36.497
12.61,269.812,36.474
12.64,269.005,36.2
12.67,267.426,36.085
12.71,265.53,35.879
12.74,263.705,35.352
12.77,261.951,35.054
12.8,260.722,34.939
12.84,259.81,34.71
12.87,258.055,34.401
12.9,255.388,34.309
12.93,253.668,34.298
12.97,252.896,33.817
13.0,251.212,33.416
13.03,248.93,33.336
13.06,246.719,33.221
13.1,245.105,32.958
13.13,243.806,32.717
13.16,242.473,32.763
13.19,242.017,32.992
13.23,241.666,33.084
13.26,240.402,32.958
13.29,238.577,32.797
13.32,237.56,32.499
13.36,236.366,32.03
13.39,234.366,31.629
13.42,231.944,31.171
13.45,229.207,30.667
13.49,226.891,30.162
13.52,224.855,29.727
13.55,222.223,29.223
13.58,218.608,28.444
13.62,214.993,27.894
13.65,212.888,27.848
13.68,211.589,27.677
13.71,209.413,27.379
13.75,206.851,27.447
13.78,205.939,27.734
13.81,205.623,27.803
13.84,204.254,27.791
13.88,202.219,27.826
13.91,201.166,27.871
13.94,200.394,27.528
13.97,197.726,26.646
14.01,193.901,25.924
14.04,191.374,25.271
14.07,189.374,24.561
14.1,186.18,23.908
14.14,182.214,23.53
14.17,179.337,23.22
14.2,177.196,22.556
14.23,173.967,21.662
14.27,169.229,21.158
14.3,165.404,20.883
14.33,162.737,20.276
14.36,159.473,19.795
14.4,155.928,19.784
14.43,153.682,19.784
14.46,151.752,19.474
14.49,148.488,19.039
14.53,144.838,18.787
14.56,142.557,18.581
14.59,140.627,18.065
14.62,137.679,17.516
14.66,134.029,17.172
14.69,130.835,16.714
14.72,127.782,16.106
14.75,124.272,15.465
14.79,120.657,15.007
14.82,117.464,14.606
14.85,114.586,14.205
14.88,111.497,13.907
14.92,108.725,13.77
14.95,106.409,13.506
14.98,103.636,13.014
15.01,99.53,12.406
15.05,95.599,11.719
15.08,92.055,11.032
15.11,88.896,10.425
15.14,85.281,9.783
15.18,81.105,9.577
15.21,78.157,9.428
15.24,75.42,8.993
15.27,71.7,8.42
15.31,67.909,7.893
15.34,64.47,7.274
15.37,61.101,6.69
15.4,57.732,6.243
15.44,54.468,5.842
15.47,51.274,5.304
15.5,47.554,4.628
15.53,43.343,4.101
15.57,39.307,3.586
15.6,35.551,3.127
15.63,31.691,2.772
15.66,27.55,2.509
15.7,23.9,2.303
15.73,20.566,2.016
15.76,16.846,1.753
15.79,12.494,1.501
15.83,8.318,1.272
15.86,4.352,1.123
15.89,0.912,1.077
15.92,-0.351,0.424
15.96,-0.597,-0.79
15.99,-1.158,-2.073
16.02,-5.054,-3.368
16.05,-11.195,-4.834
16.09,-15.477,-5.9
16.12,-16.284,-6.232
16.15,-17.969,-7.377
16.18,-23.654,-8.225
16.22,-28.708,-8.133
16.25,-30.779,-8.775
16.28,-33.551,-9.691
16.31,-38.464,-9.921
16.35,-43.062,-10.069
16.38,-46.712,-10.768
16.41,-50.397,-11.249
16.44,-53.801,-11.501
16.48,-56.924,-12.04
16.51,-60.434,-12.624
16.54,-64.084,-12.991
16.57,-67.558,-13.483
16.61,-70.787,-13.93
16.64,-73.454,-14.285
16.67,-76.859,-14.858
16.7,-81.14,-15.202
16.74,-84.65,-15.408
16.77,-87.563,-15.854
16.8,-91.142,-16.324
16.83,-94.827,-16.633
16.87,-97.81,-17.0
16.9,-100.337,-17.493
16.93,-103.461,-17.939
16.96,-106.97,-18.203
17.0,-110.023,-18.581
17.03,-112.691,-19.131
17.06,-115.639,-19.658
17.09,-118.938,-19.967
17.13,-122.026,-20.242
17.16,-125.009,-20.574
17.19,-127.817,-20.906
17.22,-130.238,-21.284
17.26,-132.87,-21.834
17.29,-136.52,-22.384
17.32,-140.205,-22.819
17.35,-143.259,-23.175
17.39,-145.61,-23.576
17.42,-148.242,-24.091
17.45,-151.717,-24.423
17.48,-154.875,-24.641
17.52,-157.683,-25.007
17.55,-160.526,-25.489
17.58,-163.509,-25.912
17.61,-165.79,-26.279
17.65,-168.141,-26.737
17.68,-171.159,-27.069
17.71,-174.037,-27.287
17.74,-175.862,-27.619
17.78,-178.249,-28.135
17.81,-182.004,-28.49
17.84,-185.197,-28.788
17.87,-187.373,-29.154
17.91,-189.128,-29.464
17.94,-191.55,-29.624
17.97,-194.392,-29.727
18.0,-196.744,-29.888
18.04,-198.709,-30.174
18.07,-201.025,-30.426
18.1,-203.271,-30.621
18.13,-205.202,-30.747
18.17,-206.676,-30.85
18.2,-207.834,-30.976
18.23,-209.308,-31.239
18.26,-211.484,-31.549
18.3,-213.765,-31.904
18.33,-215.976,-32.442
18.36,-218.468,-32.923
18.39,-221.1,-33.152
18.43,-222.784,-33.393
18.46,-224.399,-33.679
18.49,-226.68,-33.702
18.52,-228.856,-33.92
18.56,-230.821,-34.424
18.59,-233.243,-34.745
18.62,-235.664,-35.02
18.65,-237.665,-35.398
18.69,-239.911,-35.547
18.72,-241.701,-35.512
18.75,-243.034,-35.684
18.78,-245.07,-35.902
18.82,-247.316,-36.062
18.85,-249.281,-36.303
18.88,-250.966,-36.566
18.91,-252.615,-36.795
18.95,-253.738,-36.933
18.98,-254.51,-37.001
19.01,-255.598,-37.093
19.04,-257.564,-37.208
19.08,-259.74,-37.402
19.11,-261.424,-37.735
19.14,-262.723,-38.113
19.17,-264.021,-38.342
19.21,-265.636,-38.353
19.24,-267.355,-38.204
19.27,-268.689,-38.158
19.3,-269.321,-38.307
19.33,-270.374,-38.617
19.37,-272.163,-38.674
19.4,-273.357,-38.731
19.43,-274.129,-39.155
19.46,-275.357,-39.315
19.5,-276.34,-39.212
19.53,-277.042,-39.419
19.56,-278.235,-39.625
19.59,-279.709,-39.671
19.63,-280.972,-39.991
19.66,-282.166,-40.472
19.69,-283.569,-40.69
19.72,-284.657,-40.633
19.76,-285.254,-40.621
19.79,-285.464,-40.61
19.82,-285.57,-40.461
19.85,-285.991,-40.312
19.89,-286.974,-40.243
19.92,-287.711,-40.094
19.95,-287.851,-40.037
19.98,-287.605,-40.094
20.02,-287.325,-40.106
20.05,-287.254,-40.014
20.08,-287.57,-39.728
20.11,-287.711,-39.716
20.15,-287.991,-40.014
20.18,-288.307,-40.232
20.21,-288.623,-40.289
20.24,-288.939,-40.232
20.28,-288.693,-40.14
20.31,-288.062,-39.934
20.34,-287.395,-39.797
20.37,-287.43,-39.842
20.41,-287.956,-39.785
20.44,-287.956,-39.716
20.47,-287.149,-39.762
20.5,-286.377,-39.59
20.54,-285.71,-39.075
20.57,-284.727,-38.651
20.6,-283.569,-38.41
20.63,-282.516,-38.239
20.67,-281.744,-38.124
20.7,-280.867,-38.044
20.73,-279.779,-37.906
20.76,-278.305,-37.643
20.8,-276.691,-37.185
20.83,-274.585,-36.749
20.86,-273.006,-36.417
20.89,-272.198,-36.188
20.93,-271.251,-36.051
20.96,-269.672,-35.982
20.99,-267.987,-35.856
21.02,-266.338,-35.524
21.06,-264.513,-35.146
21.09,-262.477,-34.905
21.12,-260.652,-34.779
21.15,-259.213,-34.745
21.19,-258.231,-34.699
21.22,-257.283,-34.561
21.25,-255.774,-34.401
21.28,-253.738,-34.103
21.32,-251.457,-33.633
21.35,-249.211,-33.301
21.38,-247.842,-33.118
21.41,-246.719,-32.912
21.45,-244.93,-32.763
21.48,-242.964,-32.671
21.51,-241.455,-32.431
21.54,-239.946,-31.938
21.58,-237.138,-31.216
21.61,-233.945,-31.159
21.64,-232.541,-31.033
21.67,-231.839,-30.357
21.71,-229.347,-30.185
21.74,-226.61,-30.346
21.77,-224.504,-29.956
21.8,-222.82,-29.624
21.84,-221.381,-29.475
21.87,-219.801,-29.292
21.9,-217.029,-28.627
21.93,-214.116,-28.456
21.97,-212.572,-28.33
22.0,-211.589,-28.066
22.03,-209.869,-27.906
22.06,-207.272,-27.619
22.1,-204.465,-27.161
22.13,-202.429,-26.806
22.16,-201.025,-26.497
22.19,-198.99,-26.256
22.23,-196.358,-26.164
22.26,-194.252,-26.027
22.29,-192.638,-25.683
22.32,-190.462,-25.282
22.36,-187.794,-24.881
22.39,-185.057,-24.423
22.42,-182.741,-23.954
22.45,-180.74,-23.518
22.49,-178.705,-23.369
22.52,-176.353,-22.957
22.55,-172.528,-22.086
22.58,-168.878,-21.972
22.62,-166.843,-21.582
22.65,-164.842,-21.078
22.68,-161.929,-20.895
22.71,-158.525,-20.643
22.75,-156.314,-20.425
22.78,-154.875,-20.024
22.81,-152.629,-19.646
22.84,-149.471,-19.337
22.88,-145.856,-18.81
22.91,-141.82,-18.168
22.94,-138.38,-17.619
22.97,-135.889,-17.08
23.01,-133.221,-16.553
23.04,-129.852,-16.106
23.07,-126.483,-15.706
23.1,-123.5,-15.179
23.14,-120.552,-14.629
23.17,-117.288,-14.159
23.2,-114.059,-13.758
23.23,-110.76,-13.392
23.27,-107.777,-13.14
23.3,-104.9,-12.773
23.33,-101.601,-12.464
23.36,-98.407,-12.028
23.4,-95.108,-11.421
23.43,-91.634,-10.791
23.46,-88.054,-10.299
23.49,-84.72,-9.829
23.53,-81.526,-9.313
23.56,-77.876,-8.901
23.59,-74.226,-8.534
23.62,-70.857,-7.996
23.66,-67.488,-7.332
23.69,-63.733,-6.782
23.72,-59.767,-6.392
23.75,-56.047,-6.003
23.79,-52.713,-5.59
23.82,-49.063,-5.212
23.85,-45.238,-4.96
23.88,-42.079,-4.571
23.92,-38.921,-3.998
23.95,-35.446,-3.597
23.98,-31.937,-3.23
24.01,-28.392,-2.83
24.05,-25.023,-2.337
24.08,-21.408,-1.902
24.11,-17.442,-1.501
24.14,-13.371,-1.294
24.18,-9.546,-0.836
24.21,-4.422,-0.332
24.24,-0.175,-0.126
24.27,0.562,0.664
24.31,1.018,1.982
24.34,3.931,3.104
24.37,8.774,3.975
24.4,12.459,5.121
24.44,15.161,6.564
24.47,18.074,7.526
24.5,21.724,7.996
24.53,25.865,8.798
24.57,30.463,9.634
24.6,34.499,10.195
24.63,38.184,10.493
24.66,42.255,10.734
24.7,46.606,11.1
24.73,50.572,11.421
24.76,54.117,11.604
24.79,58.012,11.73
24.83,61.768,11.971
24.86,65.031,12.338
24.89,67.593,12.773
24.92,70.226,13.288
24.96,73.489,13.815
24.99,76.683,14.365
25.02,79.42,14.938
25.05,82.579,15.568
25.09,86.475,16.152
25.12,90.791,16.576
25.15,94.547,16.931
25.18,97.635,17.241
25.22,100.548,17.516
25.25,103.671,17.813
25.28,106.935,18.1
25.31,109.673,18.569
25.35,112.585,19.119
25.38,115.639,19.612
25.41,119.043,20.07
25.44,122.377,20.368
25.48,124.763,20.677
25.51,126.904,21.021
25.54,130.273,21.536
25.57,134.204,21.708
25.61,136.485,22.178
25.64,138.521,23.117
25.67,142.241,23.69
25.7,146.382,23.965
25.74,150.067,24.687
25.77,153.12,25.088
25.8,155.682,25.328
25.83,157.999,25.741
25.87,161.473,26.245
25.9,164.877,26.474
25.93,166.983,26.646
25.96,169.019,26.886
26.0,171.721,27.001
26.03,174.388,27.001
26.06,176.038,27.299
26.09,177.933,27.814
26.13,181.126,28.158
26.16,184.39,28.284
26.19,186.742,28.822
26.22,189.023,29.315
26.26,191.199,29.464
26.29,192.883,29.429
26.32,195.059,30.105
26.35,198.779,30.609
26.39,201.622,30.667
26.42,202.78,30.919
26.45,204.114,31.193
26.48,206.851,31.251
26.52,209.308,31.113
26.55,210.255,31.297
26.58,211.133,31.743
26.61,213.379,32.156
26.65,216.432,32.568
26.68,219.17,33.038
26.71,221.205,33.347
26.74,222.398,33.496
26.78,223.732,33.679
26.81,226.154,33.863
26.84,228.4,34.08
26.87,230.33,34.424
26.91,231.909,34.584
26.94,233.804,34.882
26.97,236.226,35.317
27.0,238.437,35.409
27.04,239.7,35.386
27.07,240.964,35.627
27.1,242.964,35.867
27.13,244.965,35.97
27.17,246.474,36.303
27.2,248.685,36.658
27.23,250.861,36.795
27.26,252.054,36.979
27.3,252.896,36.99
27.33,254.16,36.956
27.36,255.914,37.105
27.39,257.985,37.425
27.43,259.845,37.746
27.46,261.179,38.181
27.49,262.793,38.594
27.52,264.899,38.685
27.56,266.197,38.662
27.59,267.004,38.892
27.62,268.724,39.052
27.65,271.216,39.063
27.69,272.795,39.086
27.72,273.532,39.545
27.75,274.901,39.808
27.78,276.27,39.693
27.82,277.182,39.762
27.85,278.305,39.888
27.88,279.498,39.854
27.91,280.586,39.991
27.95,281.885,40.266
27.98,283.359,40.461
28.01,284.377,40.541
28.04,285.078,40.736
28.08,285.745,40.667
28.11,285.956,40.564
28.14,286.201,40.507
28.17,286.588,40.404
28.21,286.974,40.45
28.24,287.289,40.702
28.27,287.57,40.747
28.3,287.991,40.667
28.34,288.026,40.255
28.37,287.746,40.186
28.4,287.991,40.255
28.43,288.342,40.186
28.47,288.588,40.14
28.5,288.939,40.381
28.53,288.939,40.198
28.56,288.097,40.003
28.6,287.465,39.991
28.63,288.026,40.083
28.66,288.097,39.327
28.69,285.991,38.96
28.73,284.938,39.476
28.76,286.447,39.682
28.79,286.342,39.155
28.82,283.92,39.121
28.86,282.938,39.201
28.89,283.71,39.006
28.92,283.359,38.41
28.95,280.902,38.25
28.99,279.428,38.628
29.02,279.99,38.41
29.05,279.463,37.998
29.08,277.287,37.975
29.12,275.252,37.861
29.15,274.234,37.379
29.18,273.567,37.082
29.21,273.041,37.07
29.25,271.953,36.956
29.28,270.093,36.818
29.31,268.794,36.681
29.34,267.917,36.326
29.38,266.302,35.89
29.41,263.846,35.501
29.44,262.056,35.191
29.47,260.933,34.859
29.51,259.389,34.79
29.54,257.599,34.756
29.57,255.669,34.687
29.6,253.773,34.424
29.64,251.984,34.046
29.67,249.702,33.599
29.7,247.597,33.53
29.73,246.825,33.542
29.77,246.017,33.278
29.8,244.403,33.336
29.83,242.508,33.324
29.86,240.753,32.889
29.9,238.718,32.419
29.93,236.612,32.053
29.96,234.682,31.697
29.99,232.857,31.239
30.03,230.716,30.907
30.06,228.61,30.689
30.09,226.82,30.38
30.12,224.785,29.945
30.16,222.574,29.624
30.19,220.609,29.429
30.22,218.959,29.154
30.25,216.994,28.902
30.29,214.783,28.845
30.32,212.782,28.662
30.35,210.957,28.295
30.38,208.571,27.757
30.42,204.956,27.15
30.45,201.376,26.52
30.48,198.779,25.89
30.51,196.323,25.225
30.55,193.269,24.755
30.58,190.111,24.641
30.61,187.514,24.664
30.64,185.654,24.675
30.68,184.074,24.629
30.71,182.249,24.664
30.74,180.284,24.618
30.77,178.529,24.377
30.81,176.775,24.148
30.84,174.774,23.954
30.87,172.528,23.656
30.9,170.177,23.278
30.94,167.931,22.854
30.97,165.755,22.419
31.0,163.193,21.788
31.03,160.175,21.216
31.07,157.578,20.643
31.1,155.367,20.276
31.13,153.612,20.311
31.16,150.664,19.578
31.2,146.452,19.016
31.23,142.767,18.501
31.26,139.925,17.756
31.29,136.731,17.206
31.33,132.941,16.759
31.36,129.466,16.313
31.39,126.694,15.9
31.42,124.132,15.522
31.46,120.973,15.224
31.49,117.674,14.949
31.52,114.902,14.537
31.55,112.129,14.09
31.59,108.83,13.781
31.62,105.531,13.472
31.65,102.373,13.002
31.68,99.214,12.475
31.72,95.95,11.937
31.75,92.336,11.433
31.78,88.686,10.963
31.81,85.281,10.47
31.85,82.193,9.989
31.88,79.07,9.531
31.91,75.7,9.096
31.94,72.296,8.706
31.98,69.102,8.317
32.01,65.944,7.859
32.04,62.61,7.297
32.07,59.135,6.747
32.11,55.696,6.392
32.14,52.573,5.877
32.17,49.449,5.132
32.2,45.483,4.502
32.24,41.553,4.044
32.27,37.727,3.494
32.3,33.656,2.967
32.33,29.34,2.577
32.37,25.233,2.222
32.4,20.811,1.913
32.43,16.811,1.695
32.46,13.02,1.409
32.5,9.195,1.18
32.53,4.597,1.077
32.56,0.807,1.146
32.59,-0.281,0.504
32.63,-0.632,-0.848
32.66,-1.649,-2.406
32.69,-5.826,-3.517
32.72,-10.704,-4.445
32.76,-13.898,-5.797
32.79,-16.354,-7.102
32.82,-20.355,-7.755
32.85,-24.953,-8.385
32.89,-29.41,-9.29
32.92,-33.446,-9.772
32.95,-37.552,-10.195
32.98,-41.763,-10.539
33.02,-45.168,-10.722
33.05,-48.607,-10.997
33.08,-52.362,-11.456
33.11,-56.117,-11.937
33.15,-59.697,-12.292
33.18,-62.996,-12.75
33.21,-66.4,-13.254
33.24,-69.875,-13.678
33.28,-73.244,-14.113
33.31,-76.472,-14.56
33.34,-79.666,-15.087
33.37,-83.351,-15.637
33.41,-87.317,-16.026
33.44,-91.142,-16.416
33.47,-94.547,-16.805
33.5,-97.635,-17.218
33.54,-100.829,-17.47
33.57,-103.812,-17.768
33.6,-106.514,-18.26
33.63,-109.111,-18.856
33.67,-111.708,-19.348
33.7,-114.586,-19.875
33.73,-118.306,-20.46
33.76,-122.026,-20.838
33.8,-125.009,-21.124
33.83,-127.641,-21.559
33.86,-130.8,-21.949
33.89,-134.38,-22.281
33.93,-137.714,-22.808
33.96,-140.837,-23.186
33.99,-142.943,-23.186
34.02,-145.084,-23.644
34.06,-148.172,-24.057
34.09,-151.295,-24.332
34.12,-153.436,-24.664
34.15,-155.472,-25.076
34.19,-158.56,-25.58
34.22,-162.21,-26.084
34.25,-165.088,-26.451
34.28,-167.159,-26.749
34.32,-169.791,-26.978
34.35,-173.09,-27.138
34.38,-175.932,-27.344
34.41,-178.178,-27.757
34.45,-180.495,-28.261
34.48,-183.337,-28.673
34.51,-186.356,-28.96
34.54,-188.918,-29.223
34.58,-190.848,-29.544
34.61,-192.883,-29.773
34.64,-195.129,-29.91
34.67,-197.2,-30.185
34.71,-199.13,-30.621
34.74,-201.341,-30.919
34.77,-203.447,-31.171
34.8,-205.623,-31.491
34.84,-207.553,-31.663
34.87,-209.308,-31.778
34.9,-211.273,-31.938
34.93,-213.203,-32.224
34.97,-215.309,-32.602
35.0,-217.59,-32.889
35.03,-219.591,-33.198
35.06,-221.416,-33.542
35.1,-223.276,-33.714
35.13,-225.031,-33.828
35.16,-227.136,-33.989
35.19,-229.102,-34.229
35.23,-231.032,-34.538
35.26,-232.892,-34.676
35.29,-234.857,-35.214
35.32,-237.595,-35.569
35.36,-239.279,-35.547
35.39,-239.841,-35.787
35.42,-241.56,-36.119
35.45,-244.473,-36.085
35.49,-246.404,-36.245
35.52,-247.527,-36.738
35.55,-249.001,-36.99
35.58,-250.72,-37.07
35.62,-252.194,-37.15
35.65,-253.668,-37.46
35.68,-255.353,-37.7
35.71,-257.213,-37.872
35.75,-259.143,-38.124
35.78,-261.319,-38.376
35.81,-263.249,-38.628
35.84,-264.758,-38.731
35.88,-265.811,-38.662
35.91,-266.618,-38.72
35.94,-268.233,-38.834
35.97,-269.847,-38.995
36.01,-271.075,-39.327
36.04,-272.234,-39.556
36.07,-273.427,-39.705
36.1,-274.901,-39.819
36.14,-276.164,-39.888
36.17,-277.112,-40.106
36.2,-278.41,-40.301
36.23,-279.709,-40.346
36.27,-281.042,-40.587
36.3,-282.376,-40.908
36.33,-283.71,-41.08
36.36,-284.587,-41.183
36.4,-285.429,-41.103
36.43,-286.061,-40.942
36.46,-286.307,-40.839
36.49,-286.623,-40.747
36.53,-287.43,-40.736
36.56,-288.237,-40.702
36.59,-288.412,-40.77
36.62,-288.518,-40.896
36.66,-288.834,-40.77
36.69,-288.974,-40.541
36.72,-288.623,-40.45
36.75,-288.132,-40.381
36.79,-288.518,-40.69
36.82,-289.43,-40.976
36.85,-289.536,-41.022
36.88,-288.693,-40.896
36.92,-287.886,-40.736
36.95,-287.956,-40.553
36.98,-287.991,-40.163
37.01,-287.325,-39.945
37.05,-287.149,-40.129
37.08,-287.254,-39.9
37.11,-286.798,-39.888
37.14,-286.552,-40.094
37.18,-286.061,-39.671
37.21,-284.447,-38.995
37.24,-283.043,-38.697
37.27,-282.516,-38.594
37.31,-281.674,-38.25
37.34,-279.955,-38.273
37.37,-278.551,-38.262
37.4,-277.322,-37.929
37.44,-275.778,-37.54
37.47,-274.129,-37.276
37.5,-272.549,-36.887
37.53,-270.444,-36.749
37.57,-269.11,-36.933
37.6,-268.759,-36.887
37.63,-267.847,-36.726
37.66,-266.022,-36.692
37.7,-264.197,-36.314
37.73,-262.337,-35.821
37.76,-260.793,-35.615
37.79,-259.88,-35.386
37.83,-258.301,-35.18
37.86,-256.16,-35.088
37.89,-254.581,-34.917
37.92,-253.072,-34.584
37.96,-250.966,-34.206
37.99,-248.509,-33.782
38.02,-247.105,-33.817
38.05,-246.614,-33.576
38.09,-244.684,-33.152
38.12,-241.455,-33.038
38.15,-239.244,-32.9
38.18,-238.542,-32.522
38.22,-237.384,-32.179
38.25,-235.068,-31.824
38.28,-232.401,-31.331
38.31,-230.54,-31.331
38.35,-229.874,-31.251
38.38,-228.716,-30.964
38.41,-226.154,-30.896
38.44,-223.662,-30.861
38.48,-221.802,-30.437
38.51,-219.977,-29.945
38.54,-217.871,-29.693
38.57,-216.081,-29.383
38.6,-214.151,-28.925
38.64,-212.151,-28.673
38.67,-210.326,-28.433
38.7,-207.974,-28.181
38.73,-205.342,-27.814
38.77,-203.131,-27.299
38.8,-201.306,-26.863
38.83,-199.2,-26.669
38.86,-196.954,-26.588
38.9,-194.884,-26.508
38.93,-193.129,-26.302
38.96,-191.234,-25.958
38.99,-188.567,-25.523
39.03,-185.689,-25.111
39.06,-183.443,-24.607
39.09,-181.372,-24.137
39.12,-179.126,-23.908
39.16,-176.915,-23.77
39.19,-174.564,-23.392
39.22,-171.826,-22.991
39.25,-169.019,-22.545
39.29,-166.597,-22.04
39.32,-163.93,-21.536
39.35,-160.666,-21.216
39.38,-158.42,-20.998
39.42,-156.314,-20.735
39.45,-152.699,-19.864
39.48,-148.769,-19.704
39.51,-146.698,-19.452
39.55,-144.873,-18.604
39.58,-141.469,-18.134
39.61,-136.766,-17.344
39.64,-132.906,-16.931
39.68,-130.8,-16.668
39.71,-128.694,-16.244
39.74,-125.255,-16.095
39.77,-121.675,-15.969
39.81,-119.113,-15.454
39.84,-116.692,-14.869
39.87,-113.498,-14.583
39.9,-110.304,-14.285
39.94,-107.216,-13.781
39.97,-104.128,-13.357
40.0,-101.32,-12.796
40.03,-97.635,-12.028
40.07,-93.669,-11.456
40.1,-90.37,-10.722
40.13,-86.334,-9.84
40.16,-81.596,-9.336
40.2,-77.56,-8.993
40.23,-74.507,-8.592
40.26,-71.629,-8.317
40.29,-68.436,-7.985
40.33,-64.821,-7.503
40.36,-61.171,-7.045
40.39,-58.118,-6.701
40.42,-55.556,-6.186
40.46,-52.678,-5.648
40.49,-49.028,-5.144
40.52,-44.922,-4.571
40.55,-40.921,-4.113
40.59,-37.411,-3.757
40.62,-33.797,-3.288
40.65,-29.655,-2.704
40.68,-25.269,-2.337
40.72,-21.198,-2.073
40.75,-17.618,-1.764
40.78,-13.687,-1.42
40.81,-9.406,-1.34
40.85,-5.475,-1.042
40.88,-1.123,-0.928
40.91,0.316,-0.401
40.94,0.702,0.745
40.98,1.228,2.177
41.01,4.808,3.46
41.04,10.037,4.387
41.07,13.687,5.579
41.11,15.863,6.908
41.14,18.987,7.79
41.17,23.514,8.259
41.2,28.041,9.016
41.24,32.323,9.806
41.27,36.253,10.241
41.3,39.833,10.596
41.33,43.834,10.997
41.37,47.87,11.364
41.4,51.485,11.719
41.43,55.064,12.097
41.46,58.82,12.464
41.5,62.54,12.842
41.53,65.874,13.3
41.56,68.997,13.758
41.59,72.226,14.193
41.63,75.63,14.663
41.66,78.859,15.098
41.69,82.018,15.58
41.72,85.562,16.084
41.76,89.493,16.485
41.79,93.073,16.885
41.82,96.126,17.264
41.85,98.863,17.607
41.89,101.917,17.951
41.92,105.426,18.237
41.95,108.69,18.558
41.98,111.182,19.096
42.02,114.059,19.646
42.05,117.288,20.082
42.08,120.271,20.609
42.11,123.149,21.021
42.15,126.062,21.227
42.18,128.94,21.617
42.21,131.607,22.075
42.24,134.695,22.51
42.28,138.31,22.957
42.31,141.89,23.644
42.34,144.838,23.702
42.37,147.4,24.343
42.41,151.295,25.076
42.44,154.98,24.881
42.47,156.981,25.179
42.5,159.473,25.97
42.54,162.315,26.004
42.57,164.597,26.222
42.6,167.159,26.863
42.63,169.966,27.092
42.67,171.756,26.989
42.7,173.651,27.287
42.73,176.95,27.848
42.76,180.003,27.974
42.8,181.723,28.547
42.83,183.723,29.223
42.86,187.093,29.613
42.89,190.427,29.762
42.93,192.603,30.048
42.96,194.112,30.334
42.99,196.042,30.506
43.02,198.674,30.758
43.06,201.552,31.079
43.09,203.938,31.319
43.12,205.833,31.491
43.15,207.518,31.675
43.19,209.343,31.755
43.22,211.133,31.858
43.25,213.168,32.121
43.28,215.625,32.396
43.32,217.696,32.751
43.35,219.275,33.164
43.38,221.135,33.45
43.41,222.995,33.565
43.45,225.101,33.897
43.48,226.996,34.034
43.51,227.908,34.08
43.54,229.172,34.55
43.58,231.734,34.917
43.61,234.296,35.283
43.64,236.261,35.695
43.67,237.805,35.913
43.71,239.63,35.925
43.74,241.42,36.085
43.77,243.105,36.463
43.8,245.105,36.807
43.84,247.456,36.875
43.87,248.93,37.024
43.9,250.229,37.46
43.93,252.159,37.643
43.97,254.37,37.574
44.0,256.02,37.723
44.03,257.108,38.124
44.06,258.511,38.445
44.1,260.582,38.708
44.13,263.004,38.96
44.16,265.144,39.189
44.19,266.478,39.167
44.23,267.004,39.144
44.26,268.268,39.201
44.29,270.549,39.212
44.32,272.128,39.201
44.36,272.444,39.693
44.39,273.672,40.049
44.42,275.217,39.888
44.45,276.059,39.957
44.49,276.831,40.278
44.52,278.094,40.392
44.55,279.288,40.404
44.58,280.341,40.77
44.62,281.744,41.08
44.65,283.008,41.24
44.68,284.061,41.4
44.71,284.973,41.435
44.75,285.745,41.263
44.78,286.061,41.068
44.81,286.237,41.091
44.84,286.693,41.206
44.88,287.325,41.286
44.91,287.991,41.24
44.94,288.693,41.263
44.97,289.185,41.194
45.01,289.325,41.469
45.04,289.816,41.423
45.07,289.395,40.69
45.1,288.588,40.782
45.14,289.746,41.148
45.17,290.202,40.415
45.2,288.202,40.117
45.23,287.254,40.301
45.27,287.746,40.014
45.3,287.64,39.762
45.33,286.131,39.487
45.36,284.938,39.671
45.4,285.605,40.003
45.43,286.728,40.14
45.46,285.71,39.842
45.49,283.394,39.785
45.53,283.043,39.739
45.56,283.92,39.453
45.59,282.657,38.823
45.62,280.025,38.949
45.66,279.744,39.212
45.69,280.797,38.88
45.72,279.533,38.239
45.75,276.375,38.17
45.79,274.515,37.689
45.82,273.953,37.173
45.85,273.111,36.967
45.88,271.391,36.967
45.92,269.707,36.83
45.95,268.373,36.669
45.98,267.636,36.612
46.01,266.232,36.337
46.05,264.337,36.131
46.08,262.302,35.81
46.11,260.266,35.249
46.14,258.792,35.077
46.18,257.845,34.917
46.21,256.441,34.79
46.24,254.265,34.653
46.27,251.843,34.401
46.31,249.702,33.897
46.34,248.088,33.771
46.37,247.211,33.863
46.4,246.053,33.542
46.44,243.806,33.278
46.47,241.771,33.129
46.5,240.543,32.82
46.53,239.034,32.35
46.57,236.682,31.846
46.6,233.804,31.468
46.63,231.418,31.171
46.66,229.698,30.873
46.7,227.979,30.621
46.73,225.978,30.552
46.76,224.153,30.46
46.79,222.188,30.185
46.83,220.047,29.933
46.86,217.941,29.853
46.89,216.222,29.739
46.92,214.923,29.452
46.96,213.168,29.154
46.99,210.887,28.971
47.02,208.852,28.708
47.05,206.816,28.158
47.09,204.465,27.539
47.12,201.833,27.092
47.15,199.657,26.657
47.18,197.621,26.199
47.22,195.2,26.016
47.25,192.989,25.97
47.28,191.304,25.729
47.31,189.233,25.454
47.35,186.777,25.282
47.38,184.425,25.019
47.41,182.004,24.641
47.44,179.617,24.332
47.48,177.863,24.091
47.51,175.967,23.782
47.54,173.37,23.22
47.57,170.282,22.705
47.61,167.474,22.315
47.64,165.088,21.823
47.67,162.386,21.181
47.7,159.157,20.826
47.74,155.542,20.219
47.77,152.313,19.841
47.8,150.874,19.967
47.83,149.365,19.429
47.87,145.961,18.959
47.9,141.644,18.237
47.93,137.994,17.538
47.96,135.292,16.897
48.0,132.239,16.462
48.03,128.835,16.244
48.06,125.851,15.774
48.09,122.833,15.259
48.13,119.359,14.995
48.16,116.341,14.789
48.19,113.849,14.251
48.22,111.041,13.792
48.26,108.058,13.472
48.29,104.794,13.002
48.32,101.144,12.498
48.35,97.74,11.948
48.39,94.476,11.295
48.42,90.862,10.734
48.45,86.861,10.31
48.48,83.456,9.852
48.52,80.649,9.279
48.55,77.139,8.844
48.58,72.963,8.58
48.61,69.734,8.122
48.65,67.102,7.526
48.68,63.873,7.206
48.71,60.118,6.999
48.74,56.644,6.541
48.78,53.275,6.071
48.81,50.011,5.659
48.84,46.571,5.063
48.87,42.43,4.422
48.91,38.675,4.135
48.94,35.727,3.723
48.97,32.182,2.944
49.0,27.62,2.451
49.04,23.584,2.131
49.07,20.215,1.81
49.1,16.53,1.42
49.13,12.003,1.134
49.17,7.37,0.733
49.2,2.527,0.619
49.23,0.07,0.515
49.26,-0.456,-0.389
49.3,-1.018,-1.787
49.33,-4.457,-3.013
49.36,-9.406,-3.826
49.39,-12.634,-4.949
49.43,-14.529,-6.369
49.46,-17.793,-7.435
49.49,-22.321,-8.133
49.52,-26.707,-8.935
49.56,-30.779,-9.6
49.59,-34.604,-9.909
49.62,-38.78,-10.15
49.65,-43.343,-10.459
49.69,-47.589,-10.722
49.72,-51.204,-11.02
49.75,-54.749,-11.375
49.78,-58.258,-11.753
49.82,-62.119,-12.166
49.85,-65.628,-12.647
49.88,-68.611,-13.288
49.91,-71.559,-13.838
49.95,-74.928,-14.331
49.98,-78.508,-14.778
50.01,-81.842,-15.224
50.04,-84.895,-15.797
50.08,-88.264,-16.336
50.11,-92.16,-16.737
50.14,-95.81,-17.126
50.17,-98.969,-17.481
50.21,-101.566,-17.756
50.24,-103.952,-18.1
50.27,-107.181,-18.489
50.3,-110.69,-18.856
50.34,-113.463,-19.348
50.37,-116.306,-19.898
50.4,-119.78,-20.276
50.43,-123.114,-20.528
50.47,-125.641,-20.872
50.5,-127.992,-21.273
50.53,-130.765,-21.777
50.56,-133.888,-22.419
50.6,-137.152,-22.98
50.63,-140.416,-23.598
50.66,-143.645,-24.206
50.69,-146.523,-24.538
50.73,-149.295,-24.824
50.76,-152.524,-25.191
50.79,-155.717,-25.443
50.82,-158.42,-25.752
50.86,-161.227,-26.222
50.89,-164.737,-26.497
50.92,-167.404,-26.726
50.95,-169.405,-27.184
50.99,-171.686,-27.459
51.02,-174.213,-27.619
51.05,-176.775,-27.906
51.08,-179.442,-28.33
51.12,-182.144,-28.765
51.15,-184.636,-29.166
51.18,-187.163,-29.475
51.21,-189.619,-29.693
51.25,-191.795,-29.899
51.28,-193.901,-30.105
51.31,-195.656,-30.323
51.34,-197.726,-30.678
51.38,-200.604,-30.941
51.41,-202.921,-31.182
51.44,-204.781,-31.491
51.47,-206.641,-31.697
51.51,-208.22,-31.778
51.54,-209.624,-32.007
51.57,-211.238,-32.373
51.6,-213.309,-32.774
51.64,-216.011,-33.107
51.67,-218.608,-33.462
51.7,-220.784,-33.897
51.73,-222.89,-34.16
51.77,-224.188,-34.126
51.8,-226.013,-34.447
51.83,-228.856,-34.871
51.86,-231.102,-34.813
51.9,-231.769,-34.928
51.93,-233.278,-35.386
51.96,-236.542,-35.913
51.99,-239.139,-35.936
52.03,-239.946,-36.051
52.06,-241.069,-36.394
52.09,-243.456,-36.543
52.12,-245.877,-36.566
52.16,-247.316,-36.864
52.19,-248.72,-37.276
52.22,-250.65,-37.345
52.25,-252.124,-37.334
52.29,-253.317,-37.46
52.32,-254.651,-37.54
52.35,-255.949,-37.677
52.38,-257.669,-37.987
52.42,-259.529,-38.376
52.45,-261.354,-38.823
52.48,-263.249,-39.189
52.51,-264.828,-39.373
52.55,-266.302,-39.43
52.58,-267.636,-39.556
52.61,-269.04,-39.682
52.64,-270.795,-39.785
52.68,-272.128,-39.98
52.71,-273.427,-40.175
52.74,-274.69,-40.301
52.77,-275.954,-40.381
52.81,-276.971,-40.495
52.84,-277.884,-40.69
52.87,-279.112,-40.713
52.9,-279.955,-40.885
52.94,-280.832,-41.412
52.97,-282.446,-41.572
53.0,-283.815,-41.481
53.03,-284.657,-41.481
53.07,-285.464,-41.435
53.1,-285.921,-41.263
53.13,-285.956,-41.206
53.16,-286.237,-41.217
53.2,-287.114,-41.217
53.23,-287.781,-41.045
53.26,-287.851,-41.16
53.29,-287.921,-41.263
53.33,-288.237,-41.148
53.36,-287.816,-40.644
53.39,-287.43,-40.805
53.42,-287.886,-40.896
53.46,-287.956,-40.633
53.49,-287.921,-41.057
53.52,-288.272,-41.08
53.55,-287.886,-40.564
53.59,-286.552,-40.381
53.62,-286.201,-40.484
53.65,-286.728,-40.129
53.68,-286.061,-40.026
53.72,-285.64,-40.369
53.75,-286.026,-40.312
53.78,-285.675,-40.094
53.81,-284.587,-40.094
53.85,-283.78,-39.877
53.88,-283.078,-39.464
53.91,-282.06,-39.224
53.94,-281.218,-39.178
53.98,-280.551,-39.098
54.01,-279.639,-39.018
54.04,-278.516,-38.834
54.07,-277.182,-38.491
54.11,-275.427,-38.021
54.14,-273.567,-37.735
54.17,-271.953,-37.505
54.2,-270.76,-37.368
54.24,-269.742,-37.345
54.27,-269.005,-37.231
54.3,-267.987,-36.967
54.33,-265.846,-36.726
54.37,-263.425,-36.417
54.4,-261.459,-36.074
54.43,-260.056,-35.833
54.46,-259.143,-35.673
54.5,-257.739,-35.455
54.53,-255.844,-35.306
54.56,-254.054,-35.237
54.59,-252.58,-34.917
54.63,-250.931,-34.538
54.66,-249.176,-34.16
54.69,-247.211,-33.794
54.72,-245.491,-33.496
54.76,-243.877,-33.301
54.79,-242.227,-33.095
54.82,-240.297,-32.809
54.85,-237.84,-32.557
54.89,-235.454,-32.316
54.92,-233.699,-31.961
54.95,-231.979,-31.778
54.98,-230.435,-31.697
55.02,-228.751,-31.342
55.05,-226.294,-31.067
55.08,-224.469,-31.136
55.11,-223.311,-30.873
55.15,-221.346,-30.288
55.18,-218.538,-29.991
55.21,-216.502,-29.773
55.24,-215.063,-29.338
55.28,-213.344,-29.04
55.31,-211.203,-28.925
55.34,-209.203,-28.65
55.37,-207.167,-28.158
55.41,-204.71,-27.711
55.44,-202.113,-27.39
55.47,-199.902,-27.047
55.5,-198.393,-26.68
55.54,-196.428,-26.508
55.57,-193.936,-26.451
55.6,-191.725,-26.222
55.63,-189.584,-25.912
55.67,-187.338,-25.5
55.7,-184.671,-25.099
55.73,-182.004,-24.721
55.76,-179.758,-24.377
55.8,-177.687,-24.125
55.83,-175.546,-23.896
55.86,-173.16,-23.484
55.89,-170.457,-23.014
55.93,-167.755,-22.567
55.96,-165.263,-22.109
55.99,-162.701,-21.559
56.02,-159.789,-21.17
56.06,-157.086,-21.135
56.09,-154.91,-20.712
56.12,-151.717,-19.658
56.15,-147.926,-19.406
56.19,-145.013,-18.925
56.22,-142.03,-18.375
56.25,-138.837,-17.939
56.28,-135.222,-17.412
56.32,-132.098,-17.172
56.35,-129.747,-16.782
56.38,-127.22,-16.439
56.41,-124.167,-16.118
56.45,-120.728,-15.671
56.48,-117.534,-15.121
56.51,-114.551,-14.652
56.54,-111.919,-14.205
56.58,-108.795,-13.781
56.61,-105.075,-13.369
56.64,-101.46,-12.91
56.67,-98.372,-12.315
56.71,-95.143,-11.662
56.74,-91.318,-11.215
56.77,-87.878,-10.78
56.8,-84.685,-10.333
56.84,-81.561,-9.955
56.87,-77.946,-9.623
56.9,-74.226,-9.153
56.93,-70.717,-8.569
56.97,-67.593,-7.962
57.0,-64.365,-7.32
57.03,-60.75,-6.667
57.06,-56.714,-6.163
57.1,-53.31,-5.682
57.13,-50.221,-5.121
57.16,-46.642,-4.662
57.19,-42.641,-4.181
57.23,-38.394,-3.654
57.26,-34.358,-3.276
57.29,-31.094,-2.852
57.32,-27.585,-2.497
57.36,-23.619,-2.222
57.39,-19.759,-1.936
57.42,-15.898,-1.512
57.45,-11.687,-1.249
57.49,-7.405,-1.123
57.52,-3.088,-1.123
57.55,-0.246,-1.077
57.58,0.421,-0.332
57.62,0.772,0.871
57.65,1.544,2.44
57.68,6.142,3.769
57.71,11.406,4.617
57.75,14.494,5.842
57.78,16.846,7.343
57.81,21.548,8.191
57.84,26.637,8.626
57.87,30.743,9.394
57.91,34.674,10.069
57.94,38.394,10.413
57.97,42.57,10.757
58.0,47.063,11.158
58.04,50.958,11.467
58.07,54.292,11.765
58.1,57.942,12.063
58.13,61.627,12.326
58.17,64.786,12.704
58.2,67.664,13.162
58.23,70.963,13.632
58.26,74.542,14.102
58.3,77.56,14.629
58.33,80.438,15.11
58.36,83.913,15.614
58.39,87.914,16.015
58.43,91.388,16.381
58.46,94.652,16.782
58.49,98.021,17.115
58.52,101.285,17.378
58.56,103.987,17.664
58.59,106.549,18.02
58.62,109.462,18.524
58.65,112.761,19.051
58.69,116.376,19.44
58.72,119.324,19.933
58.75,121.956,20.425
58.78,124.904,20.7
58.82,128.098,20.964
58.85,130.87,21.33
58.88,133.713,21.697
58.91,136.52,22.006
58.95,139.819,22.682
58.98,143.259,23.094
59.01,145.435,23.312
59.04,148.312,24.366
59.08,152.419,24.675
59.11,155.016,24.595
59.14,156.665,24.962
59.17,159.894,25.489
59.21,163.263,25.431
59.24,165.193,25.809
59.27,167.404,26.588
59.3,170.914,26.795
59.34,173.195,26.577
59.37,174.915,27.207
59.4,178.143,27.791
59.43,181.161,27.883
59.47,182.6,28.169
59.5,184.987,29.04
59.53,189.093,29.464
59.56,191.725,29.498
59.6,192.322,29.704
59.63,193.901,30.323
59.66,197.235,30.644
59.69,199.762,30.701
59.73,200.71,31.079
59.76,202.991,31.686
59.79,206.641,31.858
59.82,208.641,31.892
59.86,209.343,32.213
59.89,210.852,32.488
59.92,213.625,32.728
59.95,216.608,33.038
59.99,218.503,33.519
60.02,220.047,33.954
60.05,222.083,34.115
60.08,224.258,34.241
60.12,226.294,34.642
60.15,227.803,34.687
60.18,228.996,34.882
60.21,231.067,35.26
60.25,233.875,35.443
60.28,235.735,35.73
60.31,236.858,36.062
60.34,238.472,36.119
60.38,240.262,36.131
60.41,241.595,36.509
60.44,243.526,36.99
60.47,246.158,37.139
60.51,248.123,37.299
60.54,249.667,37.769
60.57,251.773,38.078
60.6,253.528,38.01
60.64,254.475,38.25
60.67,256.02,38.708
60.7,258.511,38.926
60.73,260.863,39.109
60.77,262.617,39.419
60.8,264.197,39.705
60.83,265.916,39.774
60.86,267.566,39.556
60.9,268.549,39.453
60.93,269.426,39.659
60.96,271.005,39.808
60.99,272.374,39.785
61.03,273.006,40.22
61.06,274.129,40.69
61.09,275.638,40.644
61.12,276.55,40.576
61.16,277.287,40.908
61.19,278.551,41.034
61.22,279.604,41.171
61.25,280.937,41.435
61.29,282.622,41.549
61.32,283.71,41.687
61.35,284.447,41.973
61.38,285.078,41.996
61.42,285.64,41.801
61.45,286.026,41.607
61.48,286.377,41.481
61.51,286.868,41.469
61.55,287.64,41.458
61.58,288.097,41.446
61.61,288.588,41.538
61.64,288.904,41.492
61.68,289.465,41.652
61.71,289.43,41.217
61.74,288.448,40.931
61.77,288.658,41.355
61.81,290.132,41.584
61.84,289.851,41.034
61.87,287.36,40.805
61.9,286.482,40.873
61.94,288.062,40.828
61.97,287.605,40.22
62.0,285.149,40.175
62.03,284.938,40.576
62.07,286.974,40.77
62.1,287.009,40.507
62.13,284.657,40.461
62.16,283.078,40.255
62.2,283.183,39.774
62.23,283.394,39.59
62.26,282.025,39.373
62.29,280.2,39.35
62.33,279.393,39.212
62.36,279.112,39.029
62.39,278.13,38.8
62.42,275.919,38.548
62.46,274.059,38.193
62.49,272.971,37.792
62.52,271.988,37.62
62.55,270.865,37.643
62.59,269.286,37.586
62.62,267.847,37.471
62.65,266.724,37.162
62.68,265.179,36.726
62.72,263.109,36.303
62.75,260.757,36.074
62.78,258.792,35.97
62.81,257.529,35.856
62.85,256.335,35.718
62.88,255.002,35.673
62.91,253.177,35.352
62.94,250.966,35.008
62.98,249.071,34.756
63.01,247.421,34.355
63.04,245.526,33.977
63.07,243.842,33.908
63.11,242.613,33.782
63.14,240.718,33.404
63.17,238.507,33.21
63.2,236.682,32.992
63.24,235.173,32.476
63.27,233.138,32.087
63.3,231.172,31.938
63.33,229.488,31.652
63.37,227.557,31.388
63.4,225.697,31.262
63.43,223.872,31.022
63.46,221.802,30.575
63.5,219.556,30.243
63.53,217.59,30.002
63.56,215.765,29.647
63.59,213.835,29.349
63.63,211.729,29.166
63.66,209.518,28.948
63.69,207.448,28.559
63.72,204.886,28.1
63.76,202.534,27.722
63.79,200.464,27.356
63.82,198.323,27.081
63.85,196.252,26.921
63.89,194.708,26.714
63.92,192.883,26.497
63.95,190.707,26.245
63.98,188.496,25.844
64.02,186.285,25.454
64.05,184.004,25.042
64.08,181.407,24.572
64.11,178.74,24.286
64.15,176.564,24.045
64.18,174.318,23.633
64.21,171.405,23.106
64.24,168.317,22.602
64.28,165.614,22.166
64.31,162.982,21.628
64.34,159.964,21.204
64.37,156.841,20.849
64.41,153.331,20.15
64.44,150.629,20.208
64.47,149.506,19.956
64.5,147.084,19.36
64.54,143.188,18.833
64.57,138.977,18.157
64.6,135.994,17.664
64.63,133.678,17.092
64.67,130.73,16.759
64.7,127.396,16.45
64.73,124.237,15.946
64.76,121.184,15.476
64.8,118.587,15.087
64.83,116.13,14.549
64.86,112.796,14.067
64.89,109.357,13.781
64.93,106.549,13.323
64.96,103.566,12.739
64.99,100.372,12.166
65.02,96.582,11.536
65.06,92.581,10.952
65.09,88.861,10.379
65.12,85.316,9.817
65.15,82.053,9.405
65.19,78.719,9.004
65.22,75.104,8.58
65.25,71.489,8.122
65.28,68.085,7.652
65.32,64.821,7.137
65.35,61.697,6.633
65.38,58.574,6.071
65.41,55.17,5.522
65.45,51.45,5.075
65.48,47.835,4.639
65.51,44.185,4.135
65.54,40.289,3.803
65.58,36.464,3.517
65.61,33.2,3.116
65.64,29.936,2.646
65.67,25.76,2.303
65.71,21.619,1.97
65.74,17.863,1.535
65.77,13.757,1.226
65.8,9.546,1.008
65.84,4.703,0.813
65.87,0.737,0.756
65.9,-0.316,0.137
65.93,-0.562,-1.02
65.97,-1.649,-2.36
66.0,-6.036,-3.46
66.03,-10.809,-4.387
66.06,-13.722,-5.556
66.1,-15.933,-6.85
66.13,-20.145,-7.721
66.16,-25.023,-8.385
66.19,-29.48,-9.13
66.23,-33.376,-9.691
66.26,-37.166,-10.081
66.29,-41.307,-10.367
66.32,-45.413,-10.665
66.36,-49.098,-10.952
66.39,-52.713,-11.318
66.42,-56.573,-11.662
66.45,-60.504,-12.005
66.49,-64.014,-12.418
66.52,-67.874,-13.38
66.55,-73.068,-14.423
66.58,-77.806,-14.915
66.62,-80.508,-15.328
66.65,-83.702,-15.763
66.68,-88.264,-16.038
66.71,-92.476,-16.061
66.75,-95.003,-16.118
66.78,-96.933,-16.404
66.81,-100.092,-16.656
66.84,-103.882,-16.737
66.88,-106.654,-16.84
66.91,-108.269,-17.103
66.94,-110.655,-17.424
66.97,-113.744,-17.642
67.01,-116.446,-18.031
67.04,-119.043,-18.661
67.07,-121.815,-19.234
67.1,-124.518,-19.646
67.14,-127.255,-20.013
67.17,-130.379,-20.597
67.2,-134.239,-21.376
67.23,-138.275,-21.892
67.27,-141.644,-22.304
67.3,-144.803,-22.888
67.33,-148.277,-23.335
67.36,-152.032,-23.484
67.4,-154.559,-23.61
67.43,-156.77,-24.091
67.46,-160.069,-24.687
67.49,-163.86,-24.962
67.53,-166.386,-25.237
67.56,-168.703,-25.695
67.59,-171.791,-25.901
67.62,-174.353,-26.016
67.66,-175.792,-26.268
67.69,-177.722,-26.646
67.72,-180.775,-27.001
67.75,-184.004,-27.436
67.79,-186.531,-27.814
67.82,-188.707,-28.158
67.85,-190.637,-28.444
67.88,-192.743,-28.639
67.92,-194.919,-28.719
67.95,-196.919,-29.04
67.98,-199.306,-29.464
68.01,-201.833,-29.807
68.05,-203.973,-30.059
68.08,-206.009,-30.277
68.11,-208.009,-30.414
68.14,-209.729,-30.472
68.18,-211.168,-30.506
68.21,-212.817,-30.793
68.24,-214.958,-31.274
68.27,-217.31,-31.697
68.31,-219.485,-31.995
68.34,-221.275,-32.488
68.37,-223.311,-32.855
68.4,-225.452,-32.923
68.44,-227.136,-32.923
68.47,-228.751,-33.267
68.5,-231.242,-33.668
68.53,-233.945,-34.034
68.57,-236.086,-34.367
68.6,-236.998,-34.642
68.63,-237.454,-35.043
68.66,-239.49,-35.295
68.7,-242.332,-35.272
68.73,-244.157,-35.501
68.76,-245.28,-36.074
68.79,-246.79,-36.44
68.83,-249.176,-36.578
68.86,-251.247,-37.116
68.89,-252.966,-37.631
68.92,-254.51,-37.597
68.96,-255.598,-37.528
68.99,-257.108,-37.849
69.02,-259.81,-38.204
69.05,-262.056,-38.273
69.09,-263.074,-38.662
69.12,-264.688,-39.144
69.15,-266.899,-39.189
69.18,-268.338,-38.949
69.22,-268.724,-39.041
69.25,-265.671,-36.692
69.28,-255.002,-32.007
69.31,-245.28,-30.369
69.35,-247.316,-31.148
69.38,-252.826,-30.999
69.41,-249.667,-31.743
69.44,-244.473,-34.733
69.48,-248.615,-37.036
69.51,-258.231,-38.113
69.54,-264.267,-40.22
69.57,-266.794,-43.142
69.61,-270.514,-44.482
69.64,-274.234,-44.241
69.67,-277.357,-44.218
69.7,-280.867,-44.161
69.74,-283.99,-43.634
69.77,-286.026,-43.359
69.8,-287.57,-43.107
69.83,-288.307,-42.775
69.87,-288.693,-42.534
69.9,-289.325,-41.985
69.93,-289.149,-41.355
69.96,-288.272,-40.976
70.0,-287.465,-40.656
70.03,-286.728,-40.175
70.06,-285.57,-39.911
70.09,-285.008,-40.117
70.13,-285.359,-40.289
70.16,-285.535,-40.472
70.19,-285.78,-40.873
70.22,-285.991,-41.022
70.26,-285.78,-41.011
70.29,-285.71,-40.999
70.32,-285.886,-41.148
70.35,-286.517,-41.297
70.39,-286.763,-41.343
70.42,-286.482,-41.377
70.45,-286.272,-41.332
70.48,-286.026,-40.885
70.52,-285.043,-40.324
70.55,-283.92,-39.98
70.58,-283.218,-39.693
70.61,-282.762,-39.43
70.65,-281.464,-39.293
70.68,-279.919,-39.212
70.71,-278.937,-38.869
70.74,-277.638,-38.342
70.78,-275.497,-37.929
70.81,-273.357,-37.62
70.84,-272.234,-37.357
70.87,-271.707,-37.219
70.91,-270.198,-37.242
70.94,-267.987,-37.334
70.97,-266.373,-37.276
71.0,-265.39,-36.83
71.04,-263.635,-36.348
71.07,-261.143,-36.188
71.1,-259.599,-36.016
71.13,-258.862,-35.684
71.17,-257.599,-35.432
71.2,-255.844,-35.306
71.23,-254.16,-35.043
71.26,-252.335,-34.619
71.3,-250.229,-34.355
71.33,-248.264,-34.298
71.36,-247.105,-34.172
71.39,-246.017,-33.966
71.43,-244.438,-33.794
71.46,-242.578,-33.725
71.49,-241.104,-33.542
71.52,-239.42,-33.026
71.56,-237.244,-32.465
71.59,-235.068,-32.11
71.62,-233.173,-31.846
71.65,-231.383,-31.583
71.69,-229.102,-31.228
71.72,-227.031,-31.045
71.75,-225.241,-30.815
71.78,-223.03,-30.266
71.82,-220.012,-29.704
71.85,-217.169,-29.567
71.88,-215.73,-29.464
71.91,-214.677,-29.177
71.95,-212.888,-28.983
71.98,-210.326,-28.971
72.01,-207.939,-28.696
72.04,-206.219,-28.123
72.08,-204.149,-27.688
72.11,-202.008,-27.356
72.14,-199.902,-26.978
72.17,-197.726,-26.772
72.21,-195.972,-26.565
72.24,-194.287,-26.187
72.27,-191.901,-25.764
72.3,-189.163,-25.282
72.34,-186.636,-24.847
72.37,-184.531,-24.492
72.4,-182.46,-24.194
72.43,-180.074,-23.976
72.47,-178.003,-23.759
72.5,-175.757,-23.301
72.53,-173.09,-22.797
72.56,-170.317,-22.178
72.6,-167.229,-21.662
72.63,-164.386,-21.101
72.66,-161.649,-20.425
72.69,-159.016,-20.07
72.73,-156.665,-19.818
72.76,-154.033,-19.394
72.79,-151.12,-19.085
72.82,-148.312,-18.695
72.86,-145.505,-18.18
72.89,-142.662,-17.642
72.92,-139.293,-17.057
72.95,-135.818,-16.576
72.99,-132.52,-16.095
73.02,-129.256,-15.694
73.05,-126.553,-15.19
73.08,-123.395,-14.571
73.12,-119.64,-14.056
73.15,-115.744,-13.655
73.18,-112.796,-13.277
73.21,-110.304,-12.865
73.25,-107.391,-12.544
73.28,-104.057,-12.177
73.31,-101.074,-11.719
73.34,-97.951,-11.089
73.38,-94.266,-10.539
73.41,-90.546,-10.069
73.44,-87.317,-9.588
73.47,-84.544,-9.05
73.51,-81.351,-8.546
73.54,-77.35,-8.191
73.57,-73.63,-7.755
73.6,-70.261,-7.091
73.64,-66.541,-6.495
73.67,-62.434,-6.129
73.7,-58.995,-5.693
73.73,-55.907,-5.121
73.77,-52.818,-4.605
73.8,-49.168,-4.158
73.83,-45.483,-3.792
73.86,-41.833,-3.288
73.9,-38.078,-2.807
73.93,-34.323,-2.474
73.96,-30.603,-2.165
73.99,-26.672,-1.879
74.03,-22.496,-1.604
74.06,-18.46,-1.317
74.09,-14.74,-1.088
74.12,-10.634,-0.974
74.16,-6.598,-0.699
74.19,-1.86,-0.561
74.22,0.351,-0.126
74.25,0.597,1.02
74.29,1.649,2.348
74.32,5.545,3.368
74.35,10.318,4.284
74.38,13.687,5.659
74.42,16.389,6.954
74.45,20.11,7.71
74.48,24.847,8.225
74.51,29.129,8.935
74.55,32.849,9.691
74.58,36.78,10.264
74.61,41.202,10.585
74.64,45.378,10.952
74.68,49.484,11.284
74.71,53.134,11.49
74.74,56.714,11.662
74.77,60.68,11.868
74.81,64.68,12.063
74.84,67.699,12.372
74.87,69.91,12.624
74.9,72.331,12.991
74.94,75.911,13.346
74.97,79.491,13.747
75.0,82.088,14.136
75.03,85.246,14.789
75.07,89.809,15.373
75.1,94.16,15.591
75.13,96.652,15.74
75.16,98.898,16.118
75.2,102.513,16.427
75.23,106.409,16.725
75.26,108.83,17.137
75.29,111.076,17.619
75.33,114.2,18.191
75.36,117.639,18.661
75.39,120.798,19.119
75.42,123.676,19.474
75.46,126.764,19.784
75.49,130.063,20.001
75.52,132.87,20.162
75.55,135.432,20.357
75.59,138.24,20.78
75.62,141.434,21.204
75.65,143.925,21.72
75.68,146.628,22.224
75.72,150.137,22.579
75.75,153.682,22.888
75.78,156.209,23.22
75.81,158.139,23.621
75.85,160.596,24.114
75.88,164.07,24.4
75.91,167.439,24.572
75.94,169.72,24.87
75.98,171.616,25.168
76.01,174.002,25.328
76.04,176.775,25.638
76.07,180.074,26.119
76.11,183.057,26.565
76.14,185.654,26.943
76.17,188.216,27.31
76.2,190.848,27.516
76.24,192.953,27.677
76.27,194.814,27.871
76.3,197.481,28.089
76.33,200.183,28.341
76.37,202.148,28.708
76.4,204.184,29.005
76.43,206.255,29.2
76.46,208.15,29.361
76.5,209.764,29.441
76.53,211.063,29.624
76.56,212.888,29.979
76.59,215.204,30.369
76.63,217.274,30.815
76.66,219.275,31.285
76.69,221.521,31.766
76.72,223.662,31.915
76.76,224.925,31.915
76.79,226.61,32.58
76.82,229.347,33.084
76.85,231.804,33.313
76.89,233.559,33.668
76.92,235.594,34.126
76.95,237.946,34.218
76.98,239.876,34.08
77.02,241.315,34.344
77.05,243.034,34.435
77.08,244.368,34.367
77.11,245.877,34.813
77.14,248.228,35.249
77.18,250.404,35.512
77.21,251.949,35.764
77.24,253.212,35.925
77.27,254.265,35.993
77.31,255.388,36.268
77.34,257.423,36.566
77.37,259.494,36.772
77.4,261.108,37.116
77.44,262.723,37.505
77.47,264.688,37.7
77.5,266.338,37.666
77.53,267.531,37.666
77.57,268.443,37.803
77.6,269.215,38.101
77.63,270.128,38.628
77.66,271.672,39.029
77.7,273.322,39.086
77.73,274.339,39.373
77.76,275.462,39.671
77.79,276.656,39.716
77.83,277.849,39.808
77.86,279.077,39.98
77.89,280.27,40.278
77.92,281.885,40.576
77.96,283.324,40.724
77.99,284.166,40.954
78.02,284.692,41.194
78.05,285.535,41.148
78.09,286.237,40.805
78.12,286.482,40.61
78.15,286.693,40.69
78.18,287.64,40.999
78.22,288.412,40.667
78.25,287.886,40.564
78.28,288.062,40.805
78.31,288.799,40.312
78.35,288.518,40.129
78.38,288.167,40.278
78.41,288.693,40.381
78.44,289.114,40.381
78.48,288.834,40.518
78.51,288.483,40.53
78.54,288.272,40.232
78.57,287.57,39.98
78.61,285.921,40.026
78.64,284.587,40.117
78.67,284.587,40.175
78.7,285.429,40.301
78.74,285.394,40.518
78.77,284.412,40.633
78.8,283.534,40.369
78.83,282.657,40.083
78.87,282.025,39.923
78.9,281.358,39.716
78.93,280.446,39.671
78.96,280.13,39.671
79.0,279.849,39.441
79.03,278.656,39.132
79.06,276.726,38.811
79.09,275.041,38.399
79.13,273.988,37.906
79.16,273.041,37.505
79.19,271.391,37.46
79.22,269.672,37.483
79.26,268.373,37.345
79.29,267.285,37.116
79.32,265.776,36.875
79.35,263.776,36.6
79.39,262.302,36.291
79.42,261.494,35.959
79.45,260.091,35.753
79.48,258.16,35.661
79.52,256.546,35.535
79.55,255.247,35.237
79.58,253.598,34.825
79.61,251.141,34.493
79.65,248.579,34.355
79.68,246.93,34.195
79.71,245.737,33.931
79.74,244.298,33.553
79.78,242.227,33.301
79.81,240.121,33.003
79.84,237.735,32.488
79.87,235.594,31.904
79.91,233.313,31.537
79.94,231.032,31.388
79.97,229.312,31.045
80.0,227.382,30.747
80.04,225.101,30.735
80.07,223.381,30.655
80.1,221.696,30.266
80.13,219.591,29.922
80.17,217.59,29.819
80.2,216.327,29.613
80.23,214.923,29.269
80.26,213.063,29.017
80.3,211.028,28.799
80.33,209.308,28.444
80.36,207.307,27.86
80.39,204.535,27.31
80.43,201.938,26.955
80.46,200.218,26.508
80.49,198.323,26.176
80.52,196.077,25.993
80.56,194.252,25.741
80.59,192.252,25.443
80.62,189.725,25.145
80.65,187.479,24.721
80.69,185.513,24.251
80.72,183.337,23.828
80.75,180.635,23.484
80.78,178.143,23.14
80.82,176.003,22.797
80.85,173.686,22.384
80.88,170.808,21.949
80.91,167.72,21.628
80.95,164.948,21.239
80.98,162.035,20.46
81.01,159.578,20.334
81.04,157.999,20.139
81.08,155.612,19.555
81.11,152.278,19.131
81.14,149.19,18.673
81.17,146.417,18.146
81.21,143.434,17.367
81.24,139.819,16.714
81.27,135.783,16.164
81.3,132.414,15.797
81.34,129.887,15.431
81.37,126.624,14.835
81.4,122.588,14.48
81.43,119.254,14.182
81.47,116.551,13.666
81.5,113.463,13.162
81.53,110.199,12.933
81.56,107.286,12.635
81.6,104.268,12.189
81.63,101.039,11.811
81.66,97.986,11.261
81.69,94.371,10.562
81.73,90.511,9.966
81.76,86.931,9.439
81.79,83.667,8.935
81.82,80.333,8.489
81.86,76.788,8.122
81.89,73.314,7.744
81.92,69.699,7.332
81.95,66.154,6.931
81.99,63.101,6.461
82.02,59.978,5.934
82.05,56.503,5.51
82.08,53.169,5.109
82.12,50.011,4.582
82.15,46.501,4.113
82.18,42.816,3.608
82.21,38.956,3.047
82.25,34.639,2.612
82.28,30.533,2.291
82.31,26.883,1.89
82.34,22.847,1.524
82.38,18.285,1.432
82.41,14.214,1.283
82.44,10.213,1.146
82.47,6.422,1.088
82.51,2.246,1.157
82.54,0.07,0.871
82.57,-0.386,-0.046
82.6,-0.491,-1.1
82.64,-1.72,-2.36
82.67,-6.352,-3.505
82.7,-11.336,-4.445
82.73,-14.214,-5.659
82.77,-16.916,-6.77
82.8,-21.198,-7.606
82.83,-26.216,-8.408
82.86,-31.2,-9.119
82.9,-35.657,-9.646
82.93,-40.079,-10.321
82.96,-45.027,-10.894
82.99,-49.554,-11.169
83.03,-53.38,-11.41
83.06,-56.854,-11.673
83.09,-60.434,-11.799
83.12,-63.943,-11.937
83.16,-67.102,-12.166
83.19,-69.734,-12.338
83.22,-72.015,-12.532
83.25,-75.034,-12.83
83.29,-78.368,-13.311
83.32,-81.631,-13.724
83.35,-84.93,-14.193
83.38,-88.545,-14.835
83.42,-92.792,-15.373
83.45,-96.617,-15.809
83.48,-99.635,-16.416
83.51,-102.654,-16.966
83.55,-106.128,-17.355
83.58,-109.813,-17.676
83.61,-113.182,-17.997
83.64,-116.235,-18.283
83.68,-119.148,-18.547
83.71,-122.131,-18.787
83.74,-124.939,-18.879
83.77,-127.536,-19.177
83.81,-130.028,-19.291
83.84,-132.309,-19.497
83.87,-135.257,-20.001
83.9,-138.38,-20.242
83.94,-141.399,-20.723
83.97,-144.698,-21.204
84.0,-147.786,-21.456
84.03,-150.067,-21.937
84.07,-152.84,-22.464
84.1,-156.139,-22.716
84.13,-159.087,-23.026
84.16,-161.543,-23.53
84.2,-164.316,-23.908
84.23,-167.194,-24.148
84.26,-170.036,-24.549
84.29,-172.914,-24.881
84.33,-175.441,-25.088
84.36,-177.547,-25.225
84.39,-179.758,-25.592
84.42,-182.776,-25.981
84.46,-185.724,-26.222
84.49,-187.619,-26.554
84.52,-189.409,-26.989
84.55,-192.076,-27.23
84.59,-194.708,-27.436
84.62,-196.919,-27.654
84.65,-198.92,-27.906
84.68,-201.306,-28.158
84.72,-203.728,-28.375
84.75,-205.623,-28.547
84.78,-206.781,-28.799
84.81,-207.799,-29.154
84.85,-209.308,-29.555
84.88,-211.87,-29.819
84.91,-214.081,-30.128
84.94,-215.906,-30.632
84.98,-218.047,-30.987
85.01,-220.152,-31.251
85.04,-221.977,-31.549
85.07,-224.188,-31.824
85.11,-226.294,-31.961
85.14,-227.663,-32.27
85.17,-229.312,-32.591
85.2,-231.734,-32.809
85.24,-234.225,-32.935
85.27,-235.91,-33.141
85.3,-237.946,-33.633
85.33,-240.894,-33.977
85.37,-243.456,-34.16
85.4,-244.473,-34.046
85.43,-244.965,-34.298
85.46,-247.07,-34.412
85.5,-250.229,-34.607
85.53,-252.335,-35.111
85.56,-253.247,-35.501
85.59,-254.3,-35.547
85.63,-256.195,-35.684
85.66,-258.511,-35.982
85.69,-260.231,-36.119
85.72,-261.143,-36.28
85.76,-262.231,-36.555
85.79,-263.811,-36.566
85.82,-264.513,-36.096
85.85,-263.916,-35.65
85.89,-263.425,-35.718
85.92,-264.056,-36.188
85.95,-265.495,-36.749
85.98,-267.25,-37.379
86.02,-269.286,-38.25
86.05,-271.04,-39.041
86.08,-272.585,-39.476
86.11,-274.445,-39.705
86.15,-276.445,-40.014
86.18,-278.41,-40.461
86.21,-281.042,-40.724
86.24,-283.429,-40.896
86.28,-285.184,-41.355
86.31,-286.728,-41.561
86.34,-287.746,-41.469
86.37,-288.623,-41.217
86.41,-289.044,-40.759
86.44,-288.693,-40.404
86.47,-288.237,-40.289
86.5,-289.079,-40.541
86.54,-289.676,-40.163
86.57,-288.412,-39.671
86.6,-287.781,-39.968
86.63,-288.693,-39.968
86.67,-289.29,-39.774
86.7,-288.869,-40.06
86.73,-288.693,-40.22
86.76,-288.939,-40.232
86.8,-289.22,-40.22
86.83,-289.536,-40.163
86.86,-289.5,-39.923
86.89,-288.799,-39.636
86.93,-287.886,-39.453
86.96,-287.5,-39.247
86.99,-287.219,-39.189
87.02,-287.36,-39.258
87.06,-287.219,-39.178
87.09,-286.623,-38.972
87.12,-285.886,-38.628
87.15,-284.692,-38.296
87.19,-283.324,-38.01
87.22,-282.025,-37.746
87.25,-281.042,-37.609
87.28,-280.411,-37.54
87.32,-279.463,-37.379
87.35,-278.13,-37.173
87.38,-276.901,-36.818
87.41,-275.287,-36.509
87.45,-273.462,-36.268
87.48,-271.777,-36.005
87.51,-270.76,-35.867
87.54,-270.374,-35.753
87.58,-269.426,-35.569
87.61,-267.601,-35.398
87.64,-265.039,-35.203
87.67,-261.494,-35.157
87.71,-259.003,-35.226
87.74,-257.739,-35.088
87.77,-256.651,-35.1
87.8,-255.528,-35.146
87.84,-253.914,-35.134
87.87,-252.405,-35.111
87.9,-251.527,-34.859
87.93,-249.843,-34.321
87.97,-247.597,-34.195
88.0,-246.088,-34.183
88.03,-244.789,-33.633
88.06,-242.719,-33.233
88.1,-241.209,-33.233
88.13,-240.648,-33.233
88.16,-239.455,-32.706
88.19,-236.787,-32.19
88.23,-234.261,-31.95
88.26,-232.997,-31.594
88.29,-231.628,-31.136
88.32,-229.382,-30.804
88.36,-226.505,-30.495
88.39,-223.802,-30.128
88.42,-222.188,-29.67
88.45,-220.468,-29.349
88.49,-217.941,-29.212
88.52,-215.836,-28.948
88.55,-214.046,-28.593
88.58,-212.326,-28.33
88.62,-210.01,-28.146
88.65,-207.974,-27.894
88.68,-206.255,-27.574
88.71,-204.43,-27.287
88.75,-202.394,-27.001
88.78,-200.499,-26.646
88.81,-198.814,-26.348
88.84,-197.446,-25.97
88.88,-195.375,-25.649
88.91,-192.953,-25.351
88.94,-190.497,-24.939
88.97,-188.181,-24.549
89.01,-186.005,-24.16
89.04,-183.899,-23.656
89.07,-181.232,-23.323
89.1,-178.459,-23.106
89.14,-176.108,-22.751
89.17,-174.002,-22.315
89.2,-171.475,-21.834
89.23,-168.773,-21.33
89.27,-165.72,-20.689
89.3,-162.737,-20.345
89.33,-160.455,-19.91
89.36,-157.788,-19.555
89.4,-154.84,-19.406
89.43,-151.892,-19.039
89.46,-148.944,-18.627
89.49,-146.487,-18.237
89.53,-143.68,-17.47
89.56,-140.1,-16.771
89.59,-136.415,-16.221
89.62,-133.502,-15.877
89.66,-131.01,-15.431
89.69,-127.782,-14.972
89.72,-124.237,-14.514
89.75,-120.833,-14.01
89.79,-117.534,-13.506
89.82,-114.41,-13.071
89.85,-111.357,-12.693
89.88,-108.163,-12.372
89.92,-104.794,-12.086
89.95,-101.917,-11.753
89.98,-99.109,-11.318
90.01,-96.091,-10.906
90.05,-92.757,-10.344
90.08,-89.142,-9.703
90.11,-85.738,-9.29
90.14,-82.649,-8.786
90.18,-79.034,-8.099
90.21,-75.034,-7.515
90.24,-71.208,-7.183
90.27,-67.944,-6.77
90.31,-64.54,-6.197
90.34,-60.75,-5.67
90.37,-56.96,-5.247
90.4,-53.625,-4.788
90.44,-50.607,-4.239
90.47,-47.063,-3.769
90.5,-43.167,-3.276
90.53,-38.956,-2.772
90.57,-34.464,-2.44
90.6,-30.428,-2.211
90.63,-26.883,-1.925
90.66,-23.303,-1.615
90.7,-19.127,-1.42
90.73,-15.091,-1.191
90.76,-11.09,-0.905
90.79,-6.738,-0.71
90.83,-2.036,-0.825
90.86,0.105,-0.584
90.89,0.526,0.332
90.92,0.667,1.386
90.96,2.632,2.52
90.99,7.3,3.448
91.02,11.441,4.422
91.05,13.968,5.728
91.09,16.46,6.999
91.12,21.584,7.881
91.15,27.304,8.615
91.18,31.761,9.371
91.22,35.06,9.955
91.25,39.096,10.573
91.28,44.536,11.032
91.31,49.414,11.204
91.35,52.608,11.387
91.38,55.731,11.513
91.41,59.557,11.616
91.44,63.733,11.971
91.48,67.242,12.269
91.51,69.91,12.406
91.54,72.296,12.704
91.57,75.104,13.185
91.61,78.297,13.506
91.64,81.386,13.838
91.67,84.72,14.262
91.7,88.475,14.675
91.74,92.055,15.075
91.77,95.494,15.373
91.8,98.512,15.465
91.83,101.074,15.74
91.87,104.057,16.152
91.9,107.146,16.473
91.93,109.848,16.908
91.96,113.007,17.481
92.0,116.411,17.779
92.03,119.078,17.997
92.06,121.64,18.409
92.09,124.377,18.799
92.13,127.957,19.44
92.16,131.467,19.704
92.19,134.66,20.196
92.22,137.643,20.586
92.26,140.767,20.735
92.29,143.75,20.975
92.32,146.417,21.388
92.35,148.944,21.777
92.39,151.752,22.098
92.42,154.875,22.671
92.45,158.209,23.083
92.48,161.122,23.369
92.52,163.789,23.873
92.55,166.772,24.274
92.58,169.756,24.446
92.61,172.247,24.664
92.65,174.564,24.904
92.68,177.09,25.111
92.71,180.038,25.454
92.74,182.776,25.844
92.78,184.601,26.222
92.81,186.671,26.634
92.84,189.584,26.898
92.87,192.322,27.024
92.91,194.322,27.31
92.94,196.182,27.631
92.97,198.148,27.952
93.0,200.604,28.261
93.04,203.026,28.547
93.07,205.061,28.731
93.1,206.746,28.857
93.13,208.395,28.96
93.17,210.115,29.12
93.2,212.045,29.395
93.23,213.976,29.75
93.26,216.011,30.128
93.3,218.117,30.437
93.33,220.363,30.712
93.36,222.539,30.919
93.39,224.118,31.079
93.43,225.838,31.251
93.46,227.663,31.377
93.49,229.453,31.652
93.52,231.313,32.087
93.56,233.629,32.385
93.59,235.664,32.946
93.62,237.244,33.507
93.65,238.612,33.679
93.69,240.192,33.954
93.72,242.648,34.378
93.75,245.316,34.653
93.78,247.0,34.894
93.82,248.439,35.432
93.85,250.755,35.856
93.88,253.107,35.913
93.91,254.3,36.028
93.95,255.528,36.257
93.98,257.423,36.326
94.01,259.634,36.383
94.04,261.635,36.555
94.08,263.319,36.784
94.11,264.618,36.967
94.14,265.425,37.127
94.17,266.653,37.139
94.21,268.373,37.093
94.24,269.742,37.185
94.27,270.619,37.483
94.3,271.742,37.746
94.34,273.427,37.746
94.37,274.901,37.746
94.4,276.059,37.952
94.43,277.182,38.124
94.47,278.13,38.296
94.5,279.323,38.399
94.53,280.586,38.536
94.56,281.99,38.777
94.6,283.078,39.167
94.63,284.447,39.35
94.66,285.149,39.258
94.69,285.359,39.338
94.73,285.815,39.327
94.76,286.237,39.006
94.79,285.78,39.132
94.82,284.973,39.659
94.86,284.798,39.9
94.89,285.289,40.163
94.92,286.131,40.576
94.95,286.377,40.45
94.99,286.412,40.747
95.02,287.079,41.103
95.05,287.816,40.954
95.08,288.097,41.206
95.12,289.395,41.721
95.15,290.273,41.366
95.18,289.43,41.423
95.21,288.412,41.08
95.25,288.167,40.702
95.28,288.377,40.209
95.31,287.465,39.842
95.34,286.447,39.957
95.38,286.903,40.175
95.41,287.535,39.888
95.44,286.447,39.785
95.47,284.692,39.453
95.51,283.394,39.018
95.54,282.622,38.617
95.57,281.92,38.216
95.6,280.692,38.136
95.64,279.463,38.17
95.67,278.481,37.964
95.7,277.428,37.574
95.73,275.954,37.196
95.77,274.199,36.864
95.8,272.374,36.532
95.83,270.654,36.429
95.86,269.25,36.612
95.9,268.163,36.738
95.93,267.004,36.646
95.96,265.565,36.555
95.99,264.267,36.383
96.03,262.653,36.108
96.06,261.179,35.879
96.09,259.845,35.627
96.12,258.336,35.421
96.16,256.792,35.203
96.19,255.423,35.008
96.22,254.16,34.584
96.25,252.615,34.172
96.29,250.615,33.863
96.32,248.86,33.588
96.35,247.316,33.164
96.38,245.421,32.809
96.41,242.789,32.259
96.45,240.086,31.846
96.48,237.981,31.732
96.51,236.015,31.445
96.54,233.699,31.033
96.58,231.523,30.964
96.61,230.225,30.919
96.64,228.505,30.678
96.67,226.364,30.678
96.71,225.031,30.678
96.74,224.083,30.208
96.77,222.328,29.635
96.8,219.415,29.475
96.84,217.239,29.292
96.87,215.73,28.834
96.9,214.151,28.627
96.93,212.431,28.444
96.97,210.22,28.112
97.0,207.693,27.791
97.03,205.553,27.447
97.06,203.728,27.047
97.1,201.762,26.669
97.13,199.622,26.405
97.16,197.902,26.119
97.19,196.358,25.764
97.23,194.182,25.477
97.26,191.585,25.145
97.29,189.093,24.687
97.32,186.671,24.274
97.36,184.39,23.828
97.39,181.969,23.392
97.42,179.372,23.175
97.45,177.266,22.854
97.49,175.195,22.27
97.52,172.212,21.685
97.55,169.089,21.239
97.58,166.492,20.643
97.62,163.719,20.059
97.65,160.912,19.704
97.68,157.999,19.291
97.71,154.77,18.764
97.75,152.208,18.741
97.78,149.997,18.214
97.81,147.47,17.848
97.84,144.276,17.367
97.88,140.591,16.714
97.91,137.433,16.347
97.94,134.59,15.9
97.97,131.642,15.568
98.01,128.624,15.167
98.04,125.22,14.732
98.07,121.991,14.308
98.1,119.183,13.804
98.14,116.095,13.311
98.17,112.971,12.887
98.2,110.059,12.475
98.23,106.865,11.994
98.27,103.32,11.547
98.3,99.706,11.078
98.33,95.95,10.482
98.36,92.265,9.921
98.4,88.826,9.348
98.43,85.562,8.832
98.46,82.123,8.454
98.49,78.719,8.099
98.53,75.525,7.675
98.56,71.7,7.32
98.59,68.155,6.999
98.62,65.347,6.449
98.66,62.329,5.877
98.69,58.679,5.556
98.72,55.099,5.201
98.75,52.011,4.662
98.79,49.063,4.09
98.82,45.659,3.563
98.85,41.623,2.944
98.88,37.201,2.532
98.92,33.727,2.245
98.95,29.936,1.627
98.98,25.023,1.272
99.01,20.636,1.226
99.05,16.951,1.146
99.08,13.266,1.008
99.11,9.37,0.848
99.14,4.948,0.836
99.18,0.912,0.676
99.21,-0.316,-0.046
99.24,-0.491,-1.123
99.27,-1.755,-2.257
99.31,-6.142,-3.345
99.34,-11.125,-4.41
99.37,-14.319,-5.625
99.4,-16.565,-6.839
99.44,-20.25,-7.687
99.47,-25.233,-8.237
99.5,-29.796,-8.878
99.53,-33.516,-9.554
99.57,-37.411,-9.898
99.6,-41.658,-10.127
99.63,-46.255,-10.47
99.66,-50.677,-10.677
99.7,-53.906,-10.757
99.73,-56.538,-11.158
99.76,-60.329,-11.444
99.79,-64.365,-11.501
99.83,-67.207,-11.753
99.86,-69.383,-12.177
99.89,-71.77,-12.555
99.92,-75.349,-12.991
99.96,-79.42,-13.346
99.99,-82.965,-13.907
100.02,-86.404,-14.571
100.05,-90.335,-15.121
100.09,-94.792,-15.568
100.12,-98.372,-16.129
100.15,-101.706,-16.622
100.18,-105.215,-16.794
100.22,-108.374,-17.069
100.25,-111.638,-17.458
100.28,-114.796,-17.79
100.31,-117.744,-18.18
100.35,-120.587,-18.627
100.38,-123.816,-18.879
100.41,-126.659,-19.154
100.44,-129.045,-19.497
100.48,-131.607,-19.83
100.51,-134.731,-20.139
100.54,-137.854,-20.62
100.57,-140.802,-21.135
100.61,-143.575,-21.296
100.64,-146.242,-21.594
100.67,-148.874,-21.834
100.7,-151.401,-22.006
100.74,-153.822,-22.292
100.77,-156.384,-22.728
100.8,-159.227,-23.243
100.83,-162.456,-23.656
100.87,-165.439,-23.999
100.9,-168.141,-24.423
100.93,-170.773,-24.847
100.96,-173.581,-25.156
101.0,-176.283,-25.363
101.03,-179.056,-25.66
101.06,-181.898,-26.073
101.09,-185.022,-26.394
101.13,-187.619,-26.554
101.16,-189.304,-26.921
101.19,-191.129,-27.218
101.22,-193.445,-27.276
101.26,-195.691,-27.333
101.29,-197.481,-27.654
101.32,-199.762,-27.997
101.35,-202.148,-28.158
101.39,-204.254,-28.444
101.42,-206.43,-28.765
101.45,-208.536,-28.868
101.48,-210.08,-28.971
101.52,-211.449,-29.246
101.55,-213.414,-29.567
101.58,-215.555,-29.922
101.61,-217.099,-30.483
101.65,-218.819,-31.182
101.68,-221.346,-31.663
101.71,-223.767,-31.938
101.74,-225.732,-32.236
101.78,-227.417,-32.602
101.81,-229.102,-32.969
101.84,-231.242,-33.359
101.87,-233.699,-33.485
101.91,-236.156,-33.805
101.94,-238.016,-34.115
101.97,-239.069,-34.275
102.0,-240.367,-34.344
102.04,-242.613,-34.63
102.07,-245.526,-35.02
102.1,-247.913,-35.283
102.13,-249.071,-35.421
102.17,-249.948,-35.455
102.2,-251.773,-35.604
102.23,-253.738,-35.718
102.26,-255.353,-35.73
102.3,-256.335,-35.936
102.33,-257.458,-36.406
102.36,-259.529,-36.715
102.39,-261.424,-36.887
102.43,-262.723,-37.173
102.46,-264.021,-37.311
102.49,-265.39,-37.276
102.52,-266.759,-37.322
102.56,-267.917,-37.631
102.59,-269.426,-37.929
102.62,-270.303,-38.342
102.65,-271.04,-38.914
102.69,-272.128,-39.361
102.72,-273.637,-39.487
102.75,-274.971,-39.671
102.78,-276.234,-40.094
102.82,-277.884,-40.404
102.85,-279.428,-40.621
102.88,-280.972,-40.965
102.91,-282.797,-41.229
102.95,-284.763,-41.217
102.98,-285.956,-41.114
103.01,-286.588,-41.114
103.04,-286.974,-41.057
103.08,-287.535,-40.782
103.11,-287.535,-40.621
103.14,-287.886,-40.839
103.17,-288.623,-40.782
103.21,-288.448,-40.873
103.24,-288.693,-40.908
103.27,-289.22,-40.53
103.3,-289.22,-40.358
103.34,-288.939,-40.381
103.37,-288.939,-40.415
103.4,-289.606,-40.541
103.43,-290.027,-40.507
103.47,-289.606,-40.404
103.5,-288.763,-40.014
103.53,-287.851,-39.774
103.56,-287.465,-39.556
103.6,-286.412,-39.361
103.63,-284.482,-39.671
103.66,-283.955,-40.175
103.69,-284.973,-40.324
103.73,-285.324,-40.438
103.76,-284.482,-40.507
103.79,-283.043,-40.381
103.82,-282.376,-40.175
103.86,-282.481,-39.877
103.89,-281.955,-39.59
103.92,-280.797,-39.533
103.95,-279.99,-39.43
103.99,-279.358,-39.132
104.02,-278.165,-38.846
104.05,-276.55,-38.502
104.08,-274.725,-38.078
104.12,-273.216,-37.62
104.15,-271.953,-37.208
104.18,-270.76,-37.059
104.21,-269.11,-36.956
104.25,-267.812,-37.105
104.28,-266.864,-36.921
104.31,-264.864,-36.497
104.34,-262.547,-35.948
104.38,-260.828,-35.615
104.41,-260.266,-35.535
104.44,-259.389,-35.111
104.47,-257.108,-34.836
104.51,-254.897,-34.642
104.54,-253.247,-34.275
104.57,-251.247,-33.702
104.6,-249.316,-33.485
104.64,-247.737,-33.187
104.67,-245.631,-32.832
104.7,-243.456,-32.774
104.73,-241.736,-32.557
104.77,-240.437,-32.465
104.8,-239.069,-32.373
104.83,-237.173,-32.041
104.86,-234.962,-31.675
104.9,-232.962,-31.434
104.93,-231.207,-31.216
104.96,-229.698,-31.022
104.99,-227.803,-30.827
105.03,-226.154,-30.747
105.06,-224.89,-30.563
105.09,-223.1,-29.945
105.12,-220.433,-29.406
105.16,-218.047,-29.154
105.19,-216.608,-28.776
105.22,-214.818,-28.41
105.25,-212.431,-28.341
105.29,-210.396,-28.238
105.32,-208.711,-27.86
105.35,-206.711,-27.344
105.38,-204.324,-26.932
105.42,-201.762,-26.565
105.45,-199.692,-26.222
105.48,-197.972,-25.993
105.51,-196.182,-25.844
105.55,-194.112,-25.603
105.58,-191.62,-25.34
105.61,-189.128,-24.985
105.64,-186.917,-24.526
105.68,-184.601,-23.999
105.71,-181.969,-23.541
105.74,-179.617,-23.22
105.77,-177.722,-22.865
105.81,-175.371,-22.338
105.84,-171.931,-21.857
105.87,-168.633,-21.445
105.9,-166.035,-20.964
105.94,-163.719,-20.414
105.97,-160.701,-19.944
106.0,-157.542,-19.761
106.03,-155.226,-19.566
106.07,-152.945,-19.142
106.1,-150.137,-18.902
106.13,-147.54,-18.535
106.16,-144.803,-17.974
106.2,-142.346,-17.722
106.23,-139.363,-16.851
106.26,-135.608,-16.393
106.29,-132.765,-16.29
106.33,-129.958,-15.591
106.36,-126.378,-15.007
106.39,-122.939,-14.445
106.42,-119.955,-13.953
106.46,-116.797,-13.277
106.49,-112.866,-12.727
106.52,-109.322,-12.532
106.55,-106.76,-12.109
106.59,-103.671,-11.685
106.62,-100.056,-11.433
106.65,-96.126,-10.929
106.68,-92.336,-10.482
106.72,-89.458,-9.806
106.75,-86.018,-8.901
106.78,-82.123,-8.546
106.81,-79.034,-8.259
106.85,-76.367,-7.71
106.88,-72.612,-7.206
106.91,-68.12,-6.908
106.94,-64.294,-6.438
106.98,-61.241,-5.877
107.01,-58.398,-5.51
107.04,-55.345,-5.224
107.07,-51.976,-4.617
107.11,-48.466,-4.078
107.14,-44.887,-3.838
107.17,-41.483,-3.334
107.2,-37.376,-2.795
107.24,-33.165,-2.429
107.27,-29.059,-2.062
107.3,-25.128,-1.73
107.33,-21.092,-1.524
107.37,-17.618,-1.432
107.4,-14.038,-1.203
107.43,-9.792,-0.916
107.46,-4.948,-0.653
107.5,-0.737,-0.664
107.53,0.421,-0.103
107.56,0.667,0.997
107.59,1.86,2.44
107.63,6.352,3.54
107.66,10.88,4.261
107.69,13.512,5.522
107.72,16.495,6.873
107.76,21.198,7.492
107.79,25.97,7.801
107.82,30.112,8.729
107.85,34.253,9.451
107.89,38.148,9.6
107.92,41.763,9.794
107.95,45.413,10.173
107.98,49.168,10.367
108.02,52.959,10.608
108.05,56.889,10.986
108.08,59.908,11.261
108.11,62.575,11.501
108.15,65.698,11.845
108.18,69.489,12.235
108.21,72.998,12.624
108.24,75.63,13.208
108.28,78.824,13.747
108.31,82.895,14.056
108.34,86.44,14.457
108.37,89.212,15.007
108.41,92.581,15.431
108.44,96.793,15.66
108.47,100.723,16.003
108.5,103.741,16.404
108.54,106.409,16.714
108.57,109.462,17.057
108.6,112.796,17.538
108.63,115.463,17.951
108.67,118.025,18.466
108.7,121.219,19.016
108.73,124.588,19.245
108.76,127.255,19.52
108.8,130.309,20.047
108.83,134.064,20.46
108.86,137.503,20.861
108.89,139.854,21.216
108.93,142.627,21.754
108.96,146.417,21.937
108.99,149.19,21.96
109.02,150.804,22.006
109.06,152.489,22.052
109.09,155.016,22.235
109.12,157.893,22.43
109.15,160.315,23.014
109.19,163.017,23.702
109.22,165.895,24.194
109.25,168.948,24.561
109.28,172.282,24.859
109.32,174.879,25.088
109.35,176.88,25.42
109.38,179.863,25.878
109.41,183.618,26.199
109.45,186.707,26.531
109.48,188.602,27.024
109.51,190.497,27.344
109.54,193.375,27.344
109.58,195.901,27.321
109.61,197.621,27.596
109.64,199.622,27.952
109.67,201.797,28.261
109.71,204.044,28.616
109.74,206.149,28.994
109.77,208.185,29.12
109.8,209.624,29.223
109.84,210.922,29.59
109.87,213.239,29.968
109.9,216.081,30.208
109.93,218.608,30.644
109.97,220.714,31.216
110.0,223.065,31.732
110.03,225.311,31.789
110.06,226.715,31.892
110.1,228.61,32.247
110.13,230.751,32.179
110.16,232.716,32.35
110.19,234.787,32.568
110.23,236.086,32.625
110.26,236.787,32.751
110.29,237.735,32.969
110.32,239.56,33.152
110.36,241.455,33.381
110.39,243.35,33.874
110.42,245.245,34.229
110.45,246.965,34.733
110.49,249.422,35.203
110.52,251.949,35.673
110.55,254.124,35.821
110.58,255.704,35.764
110.62,256.967,35.936
110.65,258.266,36.245
110.68,259.248,36.715
110.71,260.828,37.288
110.75,262.968,37.746
110.78,265.039,37.987
110.81,265.811,38.078
110.84,265.916,38.239
110.88,267.461,38.296
110.91,270.128,38.216
110.94,271.672,38.284
110.97,272.409,38.685
111.01,273.743,38.846
111.04,275.006,38.869
111.07,275.919,39.178
111.1,277.252,39.247
111.14,278.305,39.281
111.17,279.393,39.556
111.2,280.621,39.842
111.23,281.955,40.106
111.27,283.324,40.278
111.3,284.587,40.301
111.33,285.289,40.278
111.36,285.535,40.392
111.4,286.307,40.163
111.43,286.798,39.808
111.46,287.114,39.808
111.49,287.851,39.934
111.53,288.623,39.728
111.56,288.553,39.693
111.59,288.342,39.739
111.62,288.623,39.545
111.66,288.167,39.373
111.69,287.079,39.785
111.72,287.149,40.53
111.75,288.167,40.747
111.79,288.377,40.621
111.82,287.5,40.782
111.85,287.114,40.747
111.88,287.114,40.518
111.92,286.728,40.45
111.95,286.588,40.518
111.98,286.447,40.61
112.01,286.552,40.713
112.05,286.517,40.656
112.08,286.307,40.312
112.11,285.008,39.911
112.14,283.78,39.59
112.18,282.762,39.224
112.21,281.674,39.144
112.24,281.042,39.224
112.27,281.078,39.476
112.31,280.341,39.086
112.34,278.13,38.72
112.37,276.515,38.571
112.4,276.27,38.262
112.44,275.603,37.643
112.47,272.62,36.795
112.5,269.531,36.738
112.53,269.531,36.784
112.57,270.444,36.314
112.6,268.549,36.2
112.63,265.32,36.394
112.66,263.144,36.234
112.7,262.091,35.89
112.73,260.231,35.272
112.76,257.494,35.1
112.79,255.423,35.111
112.83,254.897,35.295
112.86,254.37,35.02
112.89,251.773,34.561
112.92,248.685,34.367
112.96,247.351,34.138
112.99,246.965,33.679
113.02,245.491,33.45
113.05,243.385,33.301
113.09,241.525,32.912
113.12,239.946,32.58
113.15,238.226,32.305
113.18,236.331,31.904
113.22,234.225,31.491
113.25,232.225,31.239
113.28,230.681,30.941
113.31,228.926,30.586
113.35,226.469,30.529
113.38,224.785,30.403
113.41,223.17,29.933
113.44,220.924,29.601
113.48,218.924,29.395
113.51,217.169,29.051
113.54,215.555,28.662
113.57,213.625,28.364
113.61,211.554,28.146
113.64,209.413,27.803
113.67,207.167,27.356
113.7,204.921,26.863
113.74,202.605,26.508
113.77,200.218,26.245
113.8,198.288,26.027
113.83,196.603,25.855
113.87,194.638,25.706
113.9,192.497,25.397
113.93,190.181,24.962
113.96,187.935,24.538
114.0,185.513,24.068
114.03,183.057,23.541
114.06,180.6,23.14
114.09,178.284,22.945
114.13,176.248,22.533
114.16,173.476,21.857
114.19,170.001,21.388
114.22,167.088,21.044
114.26,164.632,20.517
114.29,161.894,20.104
114.32,159.297,19.875
114.35,157.016,19.555
114.39,154.279,19.142
114.42,150.945,18.741
114.45,147.856,18.306
114.48,145.329,17.768
114.52,141.539,16.611
114.55,136.942,15.992
114.58,133.362,15.625
114.61,131.151,15.328
114.65,129.361,15.27
114.68,126.834,15.385
114.71,124.097,15.144
114.74,121.429,14.629
114.78,118.306,14.022
114.81,114.726,13.277
114.84,111.041,12.555
114.87,107.497,12.051
114.91,104.514,11.627
114.94,102.373,11.387
114.97,99.319,10.86
115.0,95.143,10.436
115.04,90.932,9.794
115.07,87.036,9.107
115.1,83.772,8.649
115.13,80.579,8.271
115.17,76.964,7.801
115.2,73.384,7.343
115.23,69.875,6.919
115.26,66.541,6.553
115.3,63.382,6.22
115.33,60.153,5.659
115.36,56.714,5.178
115.39,53.59,4.811
115.43,50.677,4.365
115.46,46.922,3.838
115.49,42.465,3.368
115.52,38.359,2.807
115.56,34.814,2.509
115.59,31.305,2.222
115.62,26.953,1.81
115.65,22.636,1.524
115.68,18.951,1.375
115.72,15.512,1.214
115.75,11.09,1.088
115.78,7.019,0.928
115.81,2.667,0.756
115.85,-0.07,0.298
115.88,-0.386,-0.63
115.91,-0.877,-1.844
115.94,-3.86,-2.887
115.98,-8.598,-3.746
116.01,-12.073,-4.823
116.04,-14.565,-6.152
116.07,-18.25,-7.148
116.11,-23.198,-7.698
116.14,-28.041,-8.305
116.17,-32.112,-9.038
116.2,-35.762,-9.588
116.24,-39.938,-9.863
116.27,-44.29,-10.161
116.3,-48.291,-10.654
116.33,-51.906,-10.906
116.37,-55.099,-11.123
116.4,-58.679,-11.387
116.43,-62.715,-11.547
