Trigger_Date,2023/09/13
Trigger_Time,T 09:36:22.808 PDT
Samples_Per_Cycle,512
Microseconds_Per_Sample,32.546
Time (ms),Voltage (V),Current (A)
-16.66,-0.842,-1.879
-16.63,-3.159,-2.967
-16.6,-6.563,-3.104
-16.57,-8.809,-4.135
-16.53,-10.985,-5.396
-16.5,-14.003,-6.427
-16.47,-18.741,-7.309
-16.44,-23.233,-8.03
-16.4,-26.532,-8.821
-16.37,-29.866,-9.623
-16.34,-34.744,-10.127
-16.31,-39.377,-10.195
-16.27,-42.992,-10.253
-16.24,-46.361,-10.505
-16.21,-50.116,-10.734
-16.18,-53.906,-10.848
-16.14,-57.521,-11.043
-16.11,-60.785,-11.433
-16.08,-64.154,-11.799
-16.05,-67.137,-12.154
-16.01,-69.769,-12.693
-15.98,-72.647,-13.231
-15.95,-76.051,-13.609
-15.92,-79.28,-13.701
-15.88,-82.614,-13.941
-15.85,-86.018,-14.365
-15.82,-89.142,-14.675
-15.78,-91.809,-14.972
-15.75,-94.722,-15.282
-15.72,-97.951,-15.476
-15.69,-100.653,-15.889
-15.65,-103.18,-16.679
-15.62,-106.163,-17.435
-15.59,-109.673,-17.974
-15.56,-112.901,-18.432
-15.52,-115.814,-19.073
-15.49,-118.903,-19.726
-15.46,-122.552,-20.322
-15.43,-125.922,-20.528
-15.39,-128.519,-20.792
-15.36,-131.396,-21.41
-15.33,-135.152,-21.823
-15.3,-138.837,-22.063
-15.26,-141.539,-22.396
-15.23,-144.066,-22.945
-15.2,-146.979,-23.346
-15.17,-149.892,-23.507
-15.13,-152.103,-23.713
-15.1,-154.559,-24.32
-15.07,-157.823,-24.916
-15.04,-161.263,-25.271
-15.0,-163.719,-25.66
-14.97,-166.211,-26.187
-14.94,-169.159,-26.508
-14.91,-172.177,-26.657
-14.87,-174.529,-26.966
-14.84,-176.74,-27.562
-14.81,-179.898,-28.032
-14.78,-183.057,-28.169
-14.74,-185.233,-28.41
-14.71,-187.268,-28.834
-14.68,-189.619,-28.948
-14.65,-191.55,-28.879
-14.61,-192.989,-29.12
-14.58,-195.2,-29.578
-14.55,-197.867,-29.922
-14.52,-199.832,-30.197
-14.48,-201.482,-30.403
-14.45,-203.587,-30.781
-14.42,-206.29,-31.022
-14.39,-208.395,-31.251
-14.35,-210.361,-31.663
-14.32,-212.256,-32.076
-14.29,-214.081,-32.431
-14.26,-216.151,-32.786
-14.22,-218.819,-33.095
-14.19,-221.31,-33.336
-14.16,-223.276,-33.759
-14.13,-225.311,-34.286
-14.09,-227.838,-34.676
-14.06,-230.435,-34.813
-14.03,-232.471,-34.997
-13.99,-234.717,-35.443
-13.96,-237.279,-35.833
-13.93,-239.314,-36.154
-13.9,-241.315,-36.452
-13.86,-243.771,-36.6
-13.83,-245.842,-36.841
-13.8,-246.719,-37.196
-13.77,-247.211,-37.586
-13.73,-248.264,-37.872
-13.7,-250.229,-38.055
-13.67,-252.089,-38.25
-13.64,-252.931,-38.422
-13.6,-253.528,-38.811
-13.57,-255.563,-39.167
-13.54,-257.985,-39.258
-13.51,-259.213,-39.396
-13.47,-259.915,-39.785
-13.44,-261.6,-39.98
-13.41,-262.723,-39.797
-13.38,-263.039,-39.991
-13.34,-264.267,-40.392
-13.31,-266.267,-40.438
-13.28,-267.636,-40.61
-13.25,-268.935,-41.137
-13.21,-270.724,-41.309
-13.18,-272.128,-41.343
-13.15,-273.497,-41.446
-13.12,-274.725,-41.412
-13.08,-276.059,-41.515
-13.05,-277.252,-41.687
-13.02,-278.094,-42.019
-12.99,-279.428,-42.191
-12.95,-280.481,-42.134
-12.92,-281.042,-42.271
-12.89,-281.639,-42.248
-12.86,-282.201,-41.985
-12.82,-282.13,-42.088
-12.79,-281.639,-42.729
-12.76,-282.341,-43.176
-12.73,-283.359,-43.268
-12.69,-283.534,-43.554
-12.66,-283.78,-43.772
-12.63,-284.131,-43.6
-12.6,-284.412,-43.439
-12.56,-284.377,-43.371
-12.53,-284.517,-43.371
-12.5,-284.903,-43.439
-12.47,-285.605,-43.531
-12.43,-285.745,-43.554
-12.4,-285.324,-43.669
-12.37,-285.429,-43.462
-12.34,-285.535,-42.935
-12.3,-284.692,-42.431
-12.27,-283.71,-42.454
-12.24,-283.885,-42.466
-12.2,-284.131,-42.294
-12.17,-283.499,-42.065
-12.14,-282.201,-41.985
-12.11,-281.253,-41.824
-12.07,-280.902,-41.549
-12.04,-277.182,-39.636
-12.01,-267.075,-36.291
-11.98,-258.195,-34.894
-11.94,-257.774,-34.458
-11.91,-257.774,-33.336
-11.88,-251.247,-33.313
-11.85,-244.754,-34.619
-11.81,-244.649,-35.512
-11.78,-247.913,-35.89
-11.75,-248.299,-37.013
-11.72,-247.211,-38.605
-11.68,-248.299,-39.797
-11.65,-252.124,-40.713
-11.62,-255.002,-41.446
-11.59,-254.756,-41.744
-11.55,-253.282,-41.526
-11.52,-253.668,-40.919
-11.49,-254.932,-40.266
-11.46,-255.142,-39.865
-11.42,-253.914,-39.659
-11.39,-252.826,-39.419
-11.36,-252.791,-38.914
-11.33,-251.878,-38.25
-11.29,-249.948,-37.792
-11.26,-248.369,-37.402
-11.23,-247.597,-36.83
-11.2,-246.193,-36.188
-11.16,-244.017,-35.821
-11.13,-242.262,-35.512
-11.1,-240.578,-35.157
-11.07,-238.472,-34.802
-11.03,-236.191,-34.458
-11.0,-234.471,-34.16
-10.97,-232.962,-33.817
-10.94,-230.786,-33.519
-10.9,-228.189,-33.359
-10.87,-226.013,-33.267
-10.84,-224.715,-33.049
-10.81,-222.925,-32.625
-10.77,-220.573,-32.339
-10.74,-218.362,-32.202
-10.71,-216.327,-31.846
-10.68,-214.151,-31.571
-10.64,-211.975,-31.411
-10.61,-210.641,-31.125
-10.58,-209.203,-30.632
-10.55,-206.921,-30.162
-10.51,-204.219,-29.739
-10.48,-201.762,-29.418
-10.45,-199.832,-29.131
-10.41,-198.323,-28.776
-10.38,-196.463,-28.387
-10.35,-194.252,-28.146
-10.32,-192.322,-27.826
-10.28,-190.286,-27.253
-10.25,-187.303,-26.806
-10.22,-184.531,-26.634
-10.19,-182.846,-26.233
-10.15,-181.021,-25.672
-10.12,-178.529,-25.328
-10.09,-175.862,-25.076
-10.06,-173.405,-24.664
-10.02,-171.124,-23.965
-9.99,-168.211,-23.335
-9.96,-164.948,-22.991
-9.93,-162.561,-22.533
-9.89,-160.21,-21.949
-9.86,-156.946,-21.491
-9.83,-153.717,-21.227
-9.8,-151.12,-20.757
-9.76,-148.277,-20.059
-9.73,-144.592,-19.406
-9.7,-140.697,-18.959
-9.67,-137.608,-18.581
-9.63,-135.257,-17.962
-9.6,-132.274,-17.39
-9.57,-128.94,-17.149
-9.54,-126.132,-16.885
-9.5,-123.605,-16.313
-9.47,-120.377,-15.694
-9.44,-117.113,-15.27
-9.41,-114.165,-14.869
-9.37,-111.217,-14.377
-9.34,-107.988,-13.964
-9.31,-104.654,-13.689
-9.28,-102.022,-13.3
-9.24,-99.074,-12.67
-9.21,-95.529,-12.063
-9.18,-92.055,-11.593
-9.15,-89.563,-11.02
-9.11,-86.72,-10.344
-9.08,-82.86,-9.863
-9.05,-79.28,-9.565
-9.02,-76.508,-9.13
-8.98,-73.138,-8.5
-8.95,-68.716,-8.111
-8.92,-65.207,-7.881
-8.89,-62.75,-7.286
-8.85,-59.767,-6.541
-8.82,-55.907,-6.083
-8.79,-52.222,-5.854
-8.75,-49.203,-5.373
-8.72,-45.905,-4.628
-8.69,-41.798,-4.021
-8.66,-37.657,-3.677
-8.62,-34.674,-3.872
-8.59,-34.92,-4.937
-8.56,-34.674,-4.525
-8.53,-27.234,-1.879
-8.49,-17.302,-1.168
-8.46,-13.266,-0.79
-8.43,-8.072,0.252
-8.4,-1.825,-0.344
-8.36,0.246,-0.367
-8.33,0.877,1.1
-8.3,1.93,2.509
-8.27,5.194,2.921
-8.23,8.318,3.757
-8.2,11.09,5.052
-8.17,13.196,6.003
-8.14,17.232,7.492
-8.1,23.338,8.523
-8.07,27.515,9.153
-8.04,30.147,9.921
-8.01,33.832,10.665
-7.97,38.885,10.608
-7.94,42.57,10.218
-7.91,45.132,10.459
-7.88,49.133,10.757
-7.84,53.696,10.551
-7.81,56.679,10.482
-7.78,59.135,11.078
-7.75,62.891,11.627
-7.71,66.856,11.776
-7.68,69.348,12.086
-7.65,71.91,12.842
-7.62,75.946,13.311
-7.58,79.42,13.495
-7.55,81.842,14.033
-7.52,85.106,14.675
-7.49,89.317,15.007
-7.45,92.23,15.11
-7.42,94.511,15.648
-7.39,97.81,16.233
-7.36,101.776,16.439
-7.32,104.759,16.679
-7.29,106.9,17.401
-7.26,110.269,18.214
-7.23,113.884,18.615
-7.19,116.656,19.028
-7.16,119.078,19.612
-7.13,121.991,20.162
-7.1,124.763,20.505
-7.06,127.325,20.998
-7.03,130.695,21.559
-7.0,134.415,22.018
-6.96,137.784,22.43
-6.93,140.381,22.957
-6.9,142.978,23.553
-6.87,146.417,23.896
-6.83,149.611,23.988
-6.8,151.822,24.309
-6.77,154.208,24.939
-6.74,157.683,25.317
-6.7,160.771,25.374
-6.67,163.158,25.672
-6.64,165.825,26.05
-6.61,169.089,26.164
-6.57,171.37,26.107
-6.54,172.668,26.588
-6.51,175.476,27.264
-6.48,179.021,27.551
-6.44,181.021,27.86
-6.41,182.355,28.593
-6.38,185.303,29.086
-6.35,188.461,28.948
-6.31,189.9,29.017
-6.28,191.444,29.624
-6.25,194.638,30.002
-6.22,197.27,30.014
-6.18,198.639,30.22
-6.15,200.639,30.689
-6.12,203.236,30.793
-6.09,204.956,30.85
-6.05,206.255,31.193
-6.02,208.43,31.571
-5.99,210.782,31.789
-5.96,212.537,32.087
-5.92,214.256,32.58
-5.89,216.222,33.118
-5.86,217.731,33.53
-5.83,219.485,33.897
-5.79,221.696,34.241
-5.76,223.662,34.653
-5.73,225.768,35.077
-5.7,228.049,35.34
-5.66,230.225,35.558
-5.63,232.12,35.81
-5.6,233.769,36.028
-5.57,235.419,36.211
-5.53,237.665,36.44
-5.5,239.735,36.646
-5.47,241.455,36.979
-5.44,243.069,37.311
-5.4,244.754,37.597
-5.37,246.754,37.883
-5.34,248.825,38.136
-5.31,250.299,38.284
-5.27,251.562,38.479
-5.24,253.458,38.708
-5.21,255.528,38.766
-5.17,256.897,38.788
-5.14,257.95,39.006
-5.11,259.564,39.315
-5.08,261.459,39.35
-5.04,262.126,39.407
-5.01,262.617,39.877
-4.98,264.197,40.094
-4.95,265.987,40.014
-4.91,266.794,40.484
-4.88,267.25,41.526
-4.85,268.724,42.053
-4.82,270.093,42.03
-4.78,271.075,42.271
-4.75,272.234,42.615
-4.72,273.743,42.775
-4.69,275.041,42.867
-4.65,276.199,43.233
-4.62,277.463,43.531
-4.59,278.867,43.565
-4.56,279.639,43.508
-4.52,280.13,43.623
-4.49,281.007,43.611
-4.46,281.604,43.508
-4.43,281.99,43.68
-4.39,282.903,43.875
-4.36,283.815,43.783
-4.33,283.885,43.898
-4.3,284.271,43.875
-4.26,284.377,43.497
-4.23,284.517,43.6
-4.2,284.903,43.382
-4.17,285.149,43.531
-4.13,285.57,43.646
-4.1,285.535,43.359
-4.07,285.149,43.313
-4.04,285.5,43.21
-4.0,285.675,42.878
-3.97,284.798,42.603
-3.94,284.026,42.477
-3.91,283.604,42.466
-3.87,283.569,42.443
-3.84,283.183,42.351
-3.81,281.393,42.534
-3.78,280.305,42.729
-3.74,280.06,42.523
-3.71,279.042,42.386
-3.68,277.744,42.466
-3.65,277.182,42.443
-3.61,276.62,42.294
-3.58,275.673,42.214
-3.55,274.69,42.065
-3.52,273.708,41.687
-3.48,272.163,41.24
-3.45,270.514,40.976
-3.42,269.25,40.656
-3.38,268.163,40.369
-3.35,266.934,40.175
-3.32,265.285,40.037
-3.29,263.741,39.842
-3.25,262.091,39.567
-3.22,260.828,39.304
-3.19,259.424,39.075
-3.16,257.88,38.937
-3.12,256.371,38.8
-3.09,255.107,38.536
-3.06,253.528,38.239
-3.03,251.808,37.952
-2.99,250.194,37.551
-2.96,248.369,37.208
-2.93,246.614,36.864
-2.9,244.824,36.44
-2.86,242.824,36.005
-2.83,240.858,35.741
-2.8,239.384,35.501
-2.77,237.489,35.18
-2.73,234.787,35.008
-2.7,232.892,35.031
-2.67,231.734,34.653
-2.64,229.488,34.286
-2.6,227.277,34.183
-2.57,225.697,34.046
-2.54,224.574,33.863
-2.51,222.96,33.473
-2.47,220.433,33.118
-2.44,218.082,32.866
-2.41,216.187,32.419
-2.38,213.905,32.03
-2.34,211.624,31.961
-2.31,210.045,31.812
-2.28,208.43,31.377
-2.25,206.325,31.056
-2.21,204.149,30.77
-2.18,202.324,30.472
-2.15,200.885,29.991
-2.12,198.674,29.498
-2.08,196.674,29.464
-2.05,195.691,29.315
-2.02,194.077,28.834
-1.99,191.129,28.41
-1.95,188.496,28.089
-1.92,187.057,27.631
-1.89,185.233,27.012
-1.86,182.179,26.416
-1.82,179.161,26.313
-1.79,177.336,26.21
-1.76,175.652,25.706
-1.72,172.739,25.042
-1.69,169.58,24.652
-1.66,167.369,24.171
-1.63,164.807,23.438
-1.59,161.227,22.831
-1.56,158.56,22.716
-1.53,156.876,22.155
-1.5,154.77,21.743
-1.46,151.682,21.135
-1.43,148.453,20.929
-1.4,145.786,20.402
-1.37,142.276,19.566
-1.33,138.38,19.165
-1.3,135.327,18.776
-1.27,133.081,18.283
-1.24,130.098,17.733
-1.2,126.413,17.493
-1.17,123.64,17.172
-1.14,120.692,16.507
-1.11,117.148,15.98
-1.07,114.059,15.625
-1.04,111.322,15.167
-1.01,108.514,14.571
-0.98,105.215,14.01
-0.94,101.706,13.575
-0.91,98.618,13.105
-0.88,95.634,12.361
-0.85,91.704,11.799
-0.81,87.878,11.478
-0.78,85.001,11.032
-0.75,82.088,10.39
-0.72,78.368,9.921
-0.68,74.823,9.634
-0.65,71.91,9.13
-0.62,68.857,8.42
-0.59,65.663,7.755
-0.55,62.189,7.251
-0.52,59.065,6.816
-0.49,55.977,6.255
-0.46,52.397,5.762
-0.42,48.186,5.43
-0.39,44.36,5.189
-0.36,41.096,4.72
-0.33,37.482,4.25
-0.29,34.814,4.445
-0.26,35.411,5.579
-0.23,35.797,5.075
-0.2,28.813,2.314
-0.16,18.741,1.432
-0.13,14.143,0.951
-0.1,8.563,-0.229
-0.07,1.895,0.195
-0.03,-0.211,0.092
0.0,-0.737,-1.466
0.03,-2.211,-2.726
0.07,-5.545,-3.047
0.1,-8.388,-3.952
0.13,-10.844,-5.178
0.16,-13.652,-6.507
0.2,-18.671,-7.721
0.23,-23.759,-8.305
0.26,-27.234,-8.741
0.29,-30.357,-9.416
0.33,-35.095,-9.84
0.36,-39.482,-9.817
0.39,-42.29,-9.966
0.42,-44.887,-10.47
0.46,-49.554,-10.734
0.49,-54.152,-10.573
0.52,-56.995,-10.791
0.55,-60.188,-11.478
0.59,-64.505,-11.811
0.62,-67.839,-11.799
0.65,-69.629,-12.189
0.68,-72.226,-12.91
0.72,-76.437,-13.288
0.75,-79.561,-13.243
0.78,-81.245,-13.758
0.81,-84.299,-14.617
0.85,-88.545,-14.949
0.88,-92.125,-14.972
0.91,-94.476,-15.396
0.94,-97.354,-16.061
0.98,-101.144,-16.45
1.01,-103.882,-16.714
1.04,-106.198,-17.435
1.07,-109.251,-18.249
1.11,-112.831,-18.947
1.14,-116.13,-19.486
1.17,-119.254,-19.898
1.2,-122.658,-20.505
1.24,-125.887,-20.792
1.27,-128.343,-20.987
1.3,-131.116,-21.33
1.33,-134.731,-21.72
1.37,-138.275,-22.052
1.4,-141.048,-22.419
1.43,-143.715,-22.945
1.46,-146.698,-23.346
1.5,-149.155,-23.587
1.53,-151.471,-23.965
1.56,-154.665,-24.481
1.59,-158.209,-24.893
1.63,-160.596,-25.328
1.66,-162.666,-25.89
1.69,-165.895,-26.348
1.72,-169.194,-26.52
1.76,-171.616,-26.829
1.79,-174.213,-27.276
1.82,-177.231,-27.585
1.86,-179.758,-27.86
1.89,-182.32,-28.261
1.92,-185.233,-28.49
1.95,-187.619,-28.605
1.99,-189.374,-28.765
2.02,-191.339,-29.04
2.05,-193.55,-29.372
2.08,-196.252,-30.025
2.12,-199.2,-30.77
2.15,-201.587,-31.239
2.18,-203.377,-31.526
2.21,-205.026,-31.743
2.25,-207.097,-31.915
2.28,-209.448,-31.915
2.31,-211.098,-31.915
2.34,-212.08,-32.167
2.38,-213.414,-32.499
2.41,-215.625,-32.717
2.44,-217.59,-32.923
2.47,-218.924,-33.301
2.51,-220.468,-33.519
2.54,-221.802,-33.599
2.57,-223.065,-33.977
2.6,-225.241,-34.424
2.64,-227.628,-34.481
2.67,-228.645,-34.584
2.7,-229.558,-34.951
2.73,-231.242,-35.134
2.77,-233.208,-35.329
2.8,-234.682,-35.352
2.83,-235.594,-35.524
2.86,-237.068,-36.074
2.9,-239.525,-36.383
2.93,-241.982,-36.692
2.96,-243.982,-37.185
2.99,-246.053,-37.631
3.03,-247.878,-37.929
3.06,-249.632,-38.25
3.09,-251.878,-38.456
3.12,-253.879,-38.594
3.16,-254.581,-38.983
3.19,-255.247,-39.705
3.22,-257.529,-40.243
3.25,-260.161,-40.266
3.29,-261.003,-40.22
3.32,-261.459,-40.759
3.35,-263.425,-41.045
3.38,-265.144,-40.759
3.42,-265.811,-41.229
3.45,-267.25,-41.904
3.48,-269.18,-41.893
3.52,-270.374,-42.019
3.55,-271.953,-42.466
3.58,-273.602,-42.466
3.61,-274.445,-42.282
3.65,-275.462,-42.512
3.68,-276.796,-42.546
3.71,-277.849,-42.752
3.74,-279.077,-42.993
3.78,-280.095,-43.061
3.81,-280.832,-43.119
3.84,-281.534,-43.21
3.87,-282.411,-43.016
3.91,-282.938,-42.855
3.94,-283.464,-42.981
3.97,-284.201,-42.947
4.0,-284.482,-42.89
4.04,-284.622,-43.027
4.07,-284.798,-42.798
4.1,-284.833,-42.809
4.13,-284.201,-43.302
4.17,-283.85,-43.611
4.2,-283.92,-43.714
4.23,-284.026,-43.817
4.26,-284.061,-43.966
4.3,-284.061,-43.966
4.33,-283.955,-43.749
4.36,-283.359,-43.634
4.39,-282.832,-43.588
4.43,-283.008,-43.417
4.46,-282.727,-43.245
4.49,-282.06,-43.13
4.52,-281.113,-42.901
4.56,-279.674,-42.454
4.59,-278.305,-41.813
4.62,-276.62,-41.251
4.65,-275.217,-40.908
4.69,-274.164,-40.816
4.72,-273.322,-40.885
4.75,-272.234,-40.999
4.78,-271.637,-41.091
4.82,-271.216,-41.034
4.85,-270.444,-41.057
4.88,-269.847,-41.171
4.91,-269.531,-41.148
4.95,-269.11,-41.103
4.98,-268.654,-41.091
5.01,-268.233,-40.931
5.04,-267.496,-40.656
5.08,-266.232,-40.358
5.11,-264.828,-39.991
5.14,-262.933,-39.659
5.17,-261.038,-39.453
5.21,-259.74,-39.235
5.24,-258.371,-38.892
5.27,-256.3,-38.548
5.31,-254.37,-38.227
5.34,-252.545,-37.677
5.37,-250.369,-37.024
5.4,-248.053,-36.623
5.44,-245.807,-36.291
5.47,-243.631,-35.902
5.5,-241.315,-35.501
5.53,-239.069,-35.1
5.57,-237.103,-34.871
5.6,-235.243,-34.504
5.63,-232.997,-34.126
5.66,-230.611,-33.897
5.7,-228.786,-33.748
5.73,-227.347,-33.45
5.76,-225.487,-33.129
5.79,-223.276,-32.923
5.83,-221.486,-32.625
5.86,-219.696,-32.224
5.89,-217.625,-31.915
5.92,-215.695,-31.571
5.96,-213.66,-31.136
5.99,-211.273,-30.873
6.02,-209.378,-30.781
6.05,-208.185,-30.518
6.09,-206.535,-30.071
6.12,-204.219,-29.704
6.15,-201.797,-29.498
6.18,-200.429,-29.063
6.22,-198.639,-28.456
6.25,-196.077,-28.261
6.28,-193.936,-28.261
6.31,-192.357,-27.963
6.35,-190.321,-27.539
6.38,-188.04,-27.23
6.41,-186.11,-26.932
6.44,-184.32,-26.325
6.48,-181.828,-25.741
6.51,-178.635,-25.557
6.54,-176.459,-25.42
6.57,-174.774,-24.87
6.61,-172.247,-24.389
6.64,-169.65,-24.068
6.67,-167.088,-23.679
6.7,-164.632,-23.06
6.74,-161.894,-22.419
6.77,-159.262,-22.052
6.8,-156.735,-21.559
6.83,-154.068,-21.296
6.87,-151.717,-20.987
6.9,-148.663,-20.322
6.93,-145.294,-20.093
6.96,-142.978,-19.658
7.0,-140.311,-18.867
7.03,-136.801,-18.398
7.06,-133.607,-17.997
7.1,-130.835,-17.367
7.13,-127.641,-16.645
7.16,-123.991,-16.129
7.19,-120.622,-15.717
7.23,-117.393,-15.19
7.26,-114.2,-14.675
7.29,-111.182,-14.148
7.32,-107.883,-13.666
7.36,-104.443,-13.311
7.39,-100.969,-12.968
7.42,-97.74,-12.487
7.45,-94.933,-11.788
7.49,-91.914,-11.043
7.52,-88.264,-10.631
7.55,-84.615,-10.379
7.58,-81.491,-9.966
7.62,-78.508,-9.336
7.65,-75.385,-8.821
7.68,-72.156,-8.5
7.71,-68.681,-8.111
7.75,-65.242,-7.549
7.78,-61.662,-6.954
7.81,-58.293,-6.495
7.84,-55.064,-6.083
7.88,-51.73,-5.625
7.91,-47.729,-5.224
7.94,-44.36,-4.834
7.97,-41.342,-4.078
8.01,-37.587,-3.391
8.04,-33.727,-3.643
8.07,-33.691,-5.121
8.1,-33.937,-4.605
8.14,-26.357,-1.764
8.17,-16.249,-1.283
8.2,-13.091,-0.768
8.23,-7.826,0.619
8.27,-1.439,-0.057
8.3,0.246,-0.069
8.33,1.018,1.478
8.36,2.527,2.772
8.4,6.001,3.024
8.43,8.633,3.987
8.46,11.441,5.373
8.49,14.038,6.106
8.53,17.793,7.263
8.56,22.847,8.511
8.59,27.866,9.233
8.62,31.551,9.668
8.66,35.13,10.356
8.69,40.114,10.631
8.72,44.395,10.379
8.75,46.501,10.482
8.79,49.484,11.032
8.82,54.257,11.146
8.85,58.293,10.997
8.89,60.82,11.364
8.92,63.768,12.063
8.95,68.12,12.269
8.98,71.243,12.189
9.02,73.033,12.693
9.05,76.227,13.346
9.08,80.403,13.552
9.11,83.597,13.609
9.15,85.983,14.125
9.18,89.423,14.709
9.21,93.459,14.846
9.24,96.056,14.904
9.28,97.67,15.534
9.31,100.758,16.198
9.34,104.128,16.542
9.37,106.584,17.046
9.41,109.392,17.894
9.44,113.217,18.569
9.47,116.797,18.844
9.5,119.394,19.016
9.54,121.851,19.635
9.57,125.255,20.116
9.6,128.133,20.483
9.63,130.87,21.147
9.67,134.134,21.548
9.7,137.503,21.892
9.73,140.486,22.407
9.76,143.504,22.968
9.8,146.873,23.323
9.83,149.716,23.495
9.86,152.173,23.828
9.89,155.051,24.297
9.93,158.174,24.618
9.96,160.806,24.973
9.99,163.474,25.385
10.02,166.071,25.741
10.06,168.457,26.13
10.09,170.844,26.6
10.12,173.441,27.081
10.15,176.389,27.47
10.19,179.266,27.826
10.22,181.969,28.158
10.25,184.39,28.501
10.28,187.128,28.627
10.32,189.023,28.65
10.35,190.497,28.822
10.38,192.848,29.074
10.41,195.515,29.212
10.45,197.06,29.567
10.48,198.674,30.048
10.51,201.06,30.277
10.55,203.166,30.254
10.58,204.64,30.403
10.61,206.149,30.85
10.64,208.43,31.205
10.68,210.747,31.365
10.71,212.115,31.675
10.74,213.73,32.293
10.77,216.362,32.694
10.81,218.398,32.602
10.84,218.959,32.786
10.87,220.538,33.359
10.9,223.662,33.507
10.94,225.592,33.553
10.97,226.715,34.057
11.0,229.277,34.538
11.03,232.26,34.504
11.07,232.927,34.664
11.1,232.857,35.409
11.13,235.208,36.222
11.16,238.507,36.417
11.2,239.771,36.726
11.23,240.648,37.54
11.26,243.456,37.849
11.29,246.158,37.838
11.33,247.842,38.181
11.36,249.738,38.594
11.39,251.703,38.754
11.42,253.458,38.8
11.46,255.247,39.075
11.49,257.143,39.293
11.52,258.511,39.567
11.55,260.301,39.774
11.59,261.845,39.762
11.62,262.477,39.774
11.65,263.179,39.934
11.68,264.899,40.003
11.72,266.548,39.991
11.75,267.776,40.392
11.78,269.18,40.759
11.81,270.444,40.965
11.85,271.812,41.045
11.88,272.69,40.885
11.91,273.602,41.022
11.94,274.901,41.286
11.98,275.954,41.503
12.01,277.393,41.675
12.04,278.094,41.847
12.07,277.954,42.832
12.11,278.761,43.451
12.14,279.639,43.348
12.17,279.99,43.439
12.2,280.586,43.669
12.24,281.288,43.772
12.27,282.095,43.909
12.3,283.078,43.875
12.34,283.183,43.875
12.37,283.078,44.115
12.4,284.061,43.966
12.43,284.412,43.554
12.47,283.99,43.588
12.5,284.587,43.646
12.53,285.429,43.497
12.56,285.254,43.451
12.6,284.868,43.462
12.63,284.763,43.268
12.66,284.727,43.107
12.69,284.622,42.89
12.73,283.92,42.626
12.76,283.113,42.683
12.79,283.64,42.729
12.82,283.92,42.42
12.86,282.973,42.26
12.89,281.709,42.248
12.92,281.113,42.099
12.95,280.446,41.767
12.99,279.604,41.458
13.02,278.305,41.446
13.05,277.884,41.423
13.08,276.936,41.103
13.12,274.725,41.125
13.15,273.146,41.183
13.18,272.234,40.896
13.21,270.83,40.472
13.25,269.075,40.278
13.28,267.706,40.22
13.31,266.794,40.049
13.34,265.215,39.888
13.38,263.705,39.819
13.41,262.653,39.602
13.44,261.424,39.258
13.47,259.529,39.018
13.51,258.371,38.754
13.54,257.143,38.319
13.57,255.142,38.044
13.6,253.458,37.78
13.64,251.913,37.299
13.67,249.702,36.784
13.7,247.105,36.566
13.73,245.421,36.406
13.77,244.157,36.062
13.8,242.403,35.73
13.83,240.227,35.73
13.86,239.139,35.65
13.9,238.367,35.157
13.93,236.226,34.676
13.96,233.348,34.447
13.99,231.453,34.286
14.03,230.225,33.863
14.06,228.505,33.427
14.09,225.978,33.187
14.13,224.048,32.958
14.16,222.328,32.545
14.19,220.222,32.167
14.22,218.047,31.858
14.26,216.187,31.514
14.29,214.221,31.171
14.32,211.975,31.033
14.35,210.431,30.861
14.39,208.852,30.495
14.42,206.886,30.243
14.45,204.851,29.933
14.48,202.429,29.532
14.52,200.394,29.143
14.55,198.885,28.799
14.58,197.34,28.444
14.61,195.094,28.238
14.65,192.848,28.112
14.68,191.199,27.791
14.71,189.304,27.241
14.74,186.636,26.817
14.78,184.39,26.531
14.81,182.565,25.981
14.84,180.109,25.466
14.87,177.336,25.214
14.91,175.371,24.939
14.94,173.405,24.366
14.97,170.422,23.839
15.0,166.983,23.484
15.04,164.07,23.209
15.07,162.175,22.728
15.1,160.21,22.098
15.13,157.472,21.754
15.17,154.665,21.353
15.2,151.787,20.563
15.23,148.488,20.116
15.26,145.715,19.818
15.3,142.908,19.188
15.33,139.468,18.592
15.36,135.854,18.008
15.39,132.906,17.71
15.43,130.344,17.264
15.46,127.15,16.633
15.49,123.43,16.221
15.52,119.991,15.946
15.56,117.288,15.431
15.59,114.34,14.835
15.62,111.217,14.457
15.65,108.444,14.148
15.69,105.566,13.666
15.72,101.881,13.162
15.75,98.161,12.761
15.78,95.038,12.257
15.82,92.02,11.627
15.85,88.615,10.952
15.88,85.071,10.573
15.92,82.053,10.23
15.95,79.315,9.646
15.98,76.192,8.97
16.01,72.682,8.42
16.05,68.787,8.053
16.08,65.172,7.687
16.11,61.592,7.125
16.14,58.293,6.656
16.18,55.345,6.232
16.21,52.292,5.739
16.24,48.572,5.281
16.27,45.448,4.777
16.31,42.29,4.124
16.34,38.57,3.654
16.37,35.025,4.044
16.4,35.06,5.35
16.44,35.341,5.04
16.47,28.673,2.28
16.5,18.32,1.294
16.53,13.757,0.871
16.57,8.388,-0.412
16.6,1.825,-0.069
16.63,-0.211,-0.172
16.66,-0.807,-1.73
16.7,-2.878,-2.807
16.73,-6.142,-2.898
16.76,-8.388,-3.941
16.79,-10.95,-5.304
16.83,-14.038,-6.369
16.86,-18.179,-7.354
16.89,-22.25,-8.271
16.92,-26.427,-9.05
16.96,-30.042,-9.646
16.99,-34.113,-10.31
17.02,-38.85,-10.677
17.05,-42.781,-10.665
17.09,-45.799,-10.78
17.12,-49.484,-11.055
17.15,-54.047,-11.112
17.18,-57.977,-11.055
17.22,-60.855,-11.33
17.25,-63.593,-11.856
17.28,-66.681,-12.257
17.31,-69.945,-12.532
17.35,-73.138,-12.819
17.38,-76.437,-13.266
17.41,-79.701,-13.747
17.44,-82.895,-14.274
17.48,-86.299,-14.709
17.51,-89.844,-15.053
17.54,-93.213,-15.282
17.58,-96.021,-15.568
17.61,-98.898,-15.866
17.64,-101.636,-16.267
17.67,-104.338,-16.817
17.71,-107.146,-17.412
17.74,-110.234,-17.974
17.77,-113.428,-18.512
17.8,-116.411,-19.005
17.84,-119.289,-19.44
17.87,-122.061,-19.841
17.9,-124.553,-20.265
17.93,-127.185,-20.723
17.97,-130.379,-21.124
18.0,-133.537,-21.582
18.03,-136.555,-22.189
18.06,-139.539,-22.739
18.1,-142.767,-23.117
18.13,-145.891,-23.438
18.16,-148.804,-23.828
18.19,-151.646,-24.217
18.23,-154.63,-24.584
18.26,-157.718,-24.973
18.29,-160.666,-25.489
18.32,-163.789,-25.855
18.36,-166.386,-26.073
18.39,-168.843,-26.416
18.42,-171.756,-26.76
18.45,-174.493,-27.069
18.49,-176.81,-27.528
18.52,-179.723,-27.997
18.55,-182.881,-28.249
18.58,-185.127,-28.421
18.62,-187.022,-28.696
18.65,-189.233,-28.902
18.68,-191.093,-29.143
18.71,-193.199,-29.406
18.75,-195.656,-29.773
18.78,-198.077,-30.266
18.81,-200.78,-30.518
18.84,-202.675,-30.586
18.88,-203.658,-30.815
18.91,-205.447,-30.976
18.94,-207.588,-30.919
18.97,-209.027,-31.113
19.01,-210.747,-31.56
19.04,-212.747,-31.846
19.07,-214.151,-32.053
19.1,-215.274,-32.545
19.14,-217.169,-33.129
19.17,-219.415,-33.45
19.2,-220.889,-33.725
19.23,-222.188,-34.195
19.27,-224.469,-34.664
19.3,-227.066,-34.928
19.33,-229.102,-35.226
19.37,-230.47,-35.478
19.4,-231.909,-35.741
19.43,-234.085,-36.062
19.46,-236.191,-36.142
19.5,-237.63,-36.463
19.53,-239.455,-36.967
19.56,-241.876,-37.219
19.59,-243.806,-37.391
19.63,-245.386,-37.861
19.66,-247.351,-38.262
19.69,-249.562,-38.273
19.72,-250.896,-38.353
19.76,-252.37,-38.754
19.79,-254.826,-38.949
19.82,-256.862,-39.063
19.85,-258.16,-39.132
19.89,-259.283,-39.247
19.92,-261.143,-39.487
19.95,-262.758,-39.293
19.98,-263.635,-39.293
20.02,-264.828,-39.464
20.05,-266.408,-39.636
20.08,-267.496,-39.911
20.11,-267.671,-40.69
20.15,-268.513,-41.469
20.18,-269.672,-41.675
20.21,-270.689,-41.859
20.24,-271.848,-42.202
20.28,-273.251,-42.431
20.31,-274.69,-42.557
20.34,-275.673,-42.901
20.37,-276.971,-43.291
20.41,-278.2,-43.336
20.44,-278.867,-43.336
20.47,-279.604,-43.428
20.5,-280.516,-43.348
20.54,-281.113,-43.21
20.57,-281.709,-43.348
20.6,-282.376,-43.462
20.63,-283.148,-43.485
20.67,-283.78,-43.405
20.7,-284.061,-43.439
20.73,-284.236,-43.405
20.76,-284.166,-43.187
20.8,-284.587,-43.485
20.83,-285.078,-43.394
20.86,-284.517,-43.21
20.89,-285.043,-43.646
20.93,-286.026,-43.325
20.96,-284.903,-43.004
20.99,-284.166,-43.359
21.02,-284.903,-42.912
21.06,-284.341,-42.271
21.09,-282.903,-42.351
21.12,-282.762,-42.603
21.16,-281.99,-42.523
21.19,-280.165,-42.649
21.22,-279.253,-42.764
21.25,-278.831,-42.431
21.29,-277.603,-42.168
21.32,-276.48,-42.26
21.35,-276.305,-42.26
21.38,-276.164,-42.122
21.42,-275.041,-42.145
21.45,-273.953,-42.237
21.48,-273.567,-42.007
21.51,-272.935,-41.607
21.55,-271.707,-41.286
21.58,-270.338,-41.114
21.61,-269.531,-40.931
21.64,-268.829,-40.702
21.68,-267.882,-40.369
21.71,-266.302,-40.014
21.74,-264.548,-39.659
21.77,-263.214,-39.132
21.81,-261.635,-38.594
21.84,-259.459,-38.353
21.87,-257.915,-38.227
21.9,-256.511,-37.918
21.94,-254.651,-37.62
21.97,-252.44,-37.368
22.0,-250.58,-37.001
22.03,-248.685,-36.337
22.07,-246.263,-36.085
22.1,-244.579,-35.948
22.13,-242.648,-35.547
22.16,-239.63,-35.489
22.2,-237.384,-35.592
22.23,-236.436,-35.421
22.26,-234.962,-35.008
22.29,-232.681,-34.756
22.33,-230.576,-34.664
22.36,-229.066,-34.447
22.39,-227.768,-34.023
22.42,-225.838,-33.622
22.46,-223.802,-33.393
22.49,-222.012,-33.072
22.52,-219.907,-32.591
22.55,-217.59,-32.236
22.59,-215.45,-31.95
22.62,-213.554,-31.594
22.65,-211.729,-31.205
22.68,-209.448,-30.884
22.72,-207.658,-30.85
22.75,-206.36,-30.644
22.78,-204.395,-30.288
22.81,-202.429,-30.059
22.85,-201.025,-29.681
22.88,-198.955,-29.235
22.91,-196.498,-29.086
22.95,-195.164,-28.845
22.98,-193.62,-28.318
23.01,-191.304,-27.883
23.04,-188.918,-27.574
23.08,-186.812,-27.115
23.11,-184.425,-26.577
23.14,-181.618,-26.119
23.17,-179.196,-25.924
23.21,-177.231,-25.557
23.24,-174.844,-24.904
23.27,-171.791,-24.492
23.3,-169.054,-24.171
23.34,-166.808,-23.576
23.37,-163.895,-22.785
23.4,-160.526,-22.522
23.43,-158.034,-22.35
23.47,-155.928,-22.086
23.5,-153.191,-21.708
23.53,-149.997,-21.445
23.56,-147.365,-21.009
23.6,-144.873,-20.311
23.63,-142.065,-19.749
23.66,-139.188,-19.062
23.69,-136.205,-18.432
23.73,-132.87,-17.871
23.76,-129.326,-17.596
23.79,-126.343,-17.298
23.82,-123.289,-16.771
23.86,-119.85,-16.29
23.89,-116.481,-15.854
23.92,-113.498,-15.316
23.95,-110.62,-14.697
23.99,-107.426,-14.171
24.02,-104.268,-13.701
24.05,-101.285,-13.254
24.08,-98.161,-12.693
24.12,-94.792,-12.086
24.15,-91.318,-11.547
24.18,-88.089,-11.123
24.21,-84.79,-10.699
24.25,-81.807,-10.207
24.28,-78.438,-9.703
24.31,-74.823,-9.428
24.34,-71.594,-9.084
24.38,-68.33,-8.534
24.41,-65.102,-7.973
24.44,-62.119,-7.446
24.47,-59.135,-6.816
24.51,-55.31,-6.312
24.54,-51.73,-5.98
24.57,-48.607,-5.487
24.61,-44.992,-4.995
24.64,-41.061,-4.639
24.67,-37.762,-4.239
24.7,-35.06,-4.101
24.74,-34.499,-5.224
24.77,-34.885,-5.258
24.8,-28.603,-2.406
24.83,-17.969,-1.26
24.87,-12.704,-1.111
24.9,-7.791,0.08
24.93,-1.614,-0.092
24.96,0.351,-0.034
25.0,0.912,1.409
25.03,2.422,2.852
25.06,6.142,3.311
25.09,9.195,4.113
25.13,11.757,5.51
25.16,14.424,6.404
25.19,18.39,7.458
25.22,23.479,8.58
25.26,28.357,9.325
25.29,32.077,9.817
25.32,36.113,10.264
25.35,40.395,10.299
25.39,44.009,10.127
25.42,47.379,10.138
25.45,50.783,10.321
25.48,54.327,10.459
25.52,57.521,10.745
25.55,60.504,11.192
25.58,63.873,11.604
25.61,67.102,11.937
25.65,70.085,12.326
25.68,73.138,12.796
25.71,76.262,13.208
25.74,79.526,13.472
25.78,82.544,13.827
25.81,85.176,14.434
25.84,88.651,14.995
25.87,92.3,15.224
25.91,95.073,15.476
25.94,97.705,15.958
25.97,100.829,16.496
26.0,104.443,16.84
26.04,107.216,17.252
26.07,109.532,18.031
26.1,112.234,18.902
26.13,116.095,19.474
26.17,119.324,19.738
26.2,121.535,20.311
26.23,124.377,20.964
26.26,127.887,21.284
26.3,131.432,21.559
26.33,134.52,21.674
26.36,138.065,22.155
26.4,141.644,22.533
26.43,143.996,22.9
26.46,146.172,23.541
26.49,149.155,23.805
26.53,152.173,24.091
26.56,154.84,24.515
26.59,157.858,25.111
26.62,161.087,25.489
26.66,163.649,25.775
26.69,166.0,26.107
26.72,168.843,26.371
26.75,171.826,26.485
26.79,174.072,26.76
26.82,176.494,27.23
26.85,179.407,27.585
26.88,181.828,27.894
26.92,183.723,28.341
26.95,185.829,28.708
26.98,188.251,28.857
27.01,190.602,28.891
27.05,192.392,29.166
27.08,194.006,29.716
27.11,196.568,30.025
27.14,199.2,30.071
27.18,201.236,30.254
27.21,202.921,30.518
27.24,204.57,30.667
27.27,206.325,30.747
27.31,207.974,31.01
27.34,209.904,31.526
27.37,212.572,31.858
27.4,214.502,32.121
27.44,215.73,32.648
27.47,217.345,33.049
27.5,219.24,33.141
27.53,220.995,33.439
27.57,222.855,33.943
27.6,225.066,34.39
27.63,227.206,34.664
27.66,228.961,34.997
27.7,231.137,35.409
27.73,233.453,35.512
27.76,234.822,35.627
27.79,236.331,36.108
27.83,238.928,36.417
27.86,241.209,36.486
27.89,242.578,36.738
27.92,244.614,37.185
27.96,247.316,37.322
27.99,248.79,37.345
28.02,249.667,37.654
28.05,251.247,38.124
28.09,253.598,38.296
28.12,254.616,38.433
28.15,255.072,39.075
28.19,256.967,39.567
28.22,258.932,39.785
28.25,260.091,40.106
28.28,261.319,40.553
28.32,263.179,40.53
28.35,264.407,40.438
28.38,265.846,40.805
28.41,267.671,41.011
28.45,269.04,41.16
28.48,270.338,41.503
28.51,271.848,41.629
28.54,273.181,41.503
28.58,273.988,41.71
28.61,275.146,41.985
28.64,276.27,42.099
28.67,277.568,42.214
28.71,278.902,42.248
28.74,279.744,42.363
28.77,280.305,42.557
28.8,281.148,42.534
28.84,282.025,42.26
28.87,282.095,42.248
28.9,282.446,42.477
28.93,283.289,42.489
28.97,283.99,42.58
29.0,284.131,42.706
29.03,284.061,42.649
29.06,284.587,42.638
29.1,285.359,42.328
29.13,285.324,42.179
29.16,285.254,42.408
29.19,286.131,42.512
29.23,286.272,42.374
29.26,285.535,42.26
29.29,285.464,42.145
29.32,285.71,41.755
29.36,284.938,41.607
29.39,282.376,41.859
29.42,280.937,42.557
29.45,281.604,42.901
29.49,281.955,42.89
29.52,280.586,43.142
29.55,279.463,43.451
29.58,279.323,43.256
29.62,279.042,42.924
29.65,278.2,42.821
29.68,277.322,42.878
29.71,276.936,42.741
29.75,276.55,42.282
29.78,275.357,41.927
29.81,274.094,41.607
29.85,272.935,41.137
29.88,271.532,40.702
29.91,270.233,40.346
29.94,268.513,40.094
29.98,267.18,40.003
30.01,266.127,39.762
30.04,264.478,39.441
30.07,262.407,39.293
30.11,261.284,39.132
30.14,260.652,38.559
30.17,258.582,38.078
30.2,256.23,38.032
30.24,254.756,37.918
30.27,253.387,37.54
30.3,251.212,37.265
30.33,248.965,37.116
30.37,247.281,36.841
30.4,245.877,36.486
30.43,243.947,36.337
30.46,242.508,36.165
30.5,241.174,35.764
30.53,239.209,35.512
30.56,237.419,35.421
30.59,236.226,34.974
30.63,233.91,34.367
30.66,231.067,34.264
30.69,229.593,34.149
30.72,228.54,33.656
30.76,226.259,33.255
30.79,223.872,33.118
30.82,222.469,32.866
30.85,221.065,32.247
30.89,218.678,31.732
30.92,216.187,31.537
30.95,214.642,31.274
30.98,213.203,30.712
31.02,210.852,30.414
31.05,208.606,30.437
31.08,206.676,30.334
31.11,204.57,29.956
31.15,202.254,29.624
31.18,200.569,29.361
31.21,199.06,28.971
31.24,197.165,28.605
31.28,195.129,28.352
31.31,193.199,28.123
31.34,191.374,27.734
31.37,189.268,27.23
31.41,186.742,26.76
31.44,184.285,26.405
31.47,182.109,26.004
31.5,179.898,25.569
31.54,177.687,25.179
31.57,175.266,24.801
31.6,172.493,24.435
31.64,169.72,24.102
31.67,167.053,23.576
31.7,164.316,23.094
31.73,161.929,22.682
31.77,159.473,22.27
31.8,156.911,21.949
31.83,154.314,21.422
31.86,151.085,20.803
31.9,147.997,20.517
31.93,145.399,19.91
31.96,142.416,19.28
31.99,139.258,18.844
32.03,136.134,18.237
32.06,133.186,17.802
32.09,130.659,17.252
32.12,127.466,16.679
32.16,123.816,16.255
32.19,120.692,15.832
32.22,117.78,15.224
32.25,114.586,14.663
32.29,111.462,14.262
32.32,108.62,13.896
32.35,105.356,13.483
32.38,101.706,13.094
32.42,98.302,12.658
32.45,95.459,12.04
32.48,92.722,11.249
32.51,88.791,10.642
32.55,84.895,10.459
32.58,81.947,10.069
32.61,78.999,9.394
32.64,75.56,8.89
32.68,72.156,8.58
32.71,69.102,8.122
32.74,65.804,7.492
32.77,62.189,6.759
32.81,58.434,6.346
32.84,55.029,6.14
32.87,52.187,5.716
32.9,48.817,5.086
32.94,44.781,4.697
32.97,41.132,4.468
33.0,38.113,4.021
33.03,35.376,3.918
33.07,34.779,4.995
33.1,34.814,4.926
33.13,28.848,2.062
33.16,18.355,0.836
33.2,13.231,0.607
33.23,7.686,-0.424
33.26,1.509,-0.115
33.29,-0.14,-0.263
33.33,-0.667,-1.65
33.36,-2.562,-2.623
33.39,-5.861,-2.864
33.43,-8.598,-3.987
33.46,-11.336,-5.304
33.49,-14.354,-6.415
33.52,-18.741,-7.435
33.56,-23.268,-8.053
33.59,-26.707,-8.718
33.62,-30.147,-9.439
33.65,-34.674,-9.966
33.69,-38.991,-10.218
33.72,-42.36,-10.436
33.75,-45.483,-10.711
33.78,-49.554,-10.871
33.82,-53.731,-10.78
33.85,-56.96,-10.929
33.88,-60.329,-11.421
33.91,-64.189,-11.73
33.95,-67.769,-11.822
33.98,-70.682,-12.005
34.01,-73.138,-12.509
34.04,-76.437,-13.036
34.08,-79.877,-13.323
34.11,-82.86,-13.621
34.14,-85.808,-14.216
34.17,-89.528,-14.743
34.21,-92.897,-15.007
34.24,-95.634,-15.282
34.27,-98.126,-15.683
34.3,-100.688,-16.244
34.34,-103.917,-16.794
34.37,-107.216,-17.252
34.4,-109.988,-17.825
34.43,-113.077,-18.524
34.47,-116.832,-18.925
34.5,-119.991,-19.073
34.53,-122.026,-19.474
34.56,-124.377,-20.139
34.6,-127.852,-20.517
34.63,-131.291,-20.677
34.66,-133.748,-21.204
34.69,-137.012,-21.972
34.73,-140.591,-22.396
34.76,-143.364,-22.751
34.79,-145.926,-23.255
34.82,-149.049,-23.782
34.86,-152.243,-24.045
34.89,-155.016,-24.377
34.92,-157.823,-24.95
34.95,-160.982,-25.431
34.99,-164.105,-25.626
35.02,-166.492,-25.844
35.05,-168.633,-26.325
35.08,-171.651,-26.737
35.12,-174.669,-26.932
35.15,-177.231,-27.31
35.18,-179.793,-27.871
35.22,-182.671,-28.192
35.25,-185.127,-28.215
35.28,-186.671,-28.41
35.31,-188.812,-28.845
35.35,-191.866,-29.017
35.38,-194.077,-28.925
35.41,-195.445,-29.303
35.44,-197.726,-29.83
35.48,-200.288,-30.025
35.51,-202.324,-30.117
35.54,-203.482,-30.3
35.57,-205.061,-30.632
35.61,-207.272,-30.712
35.64,-208.922,-30.896
35.67,-210.185,-31.434
35.7,-212.572,-31.869
35.74,-214.677,-31.915
35.77,-215.8,-32.236
35.8,-217.59,-32.832
35.83,-220.047,-33.187
35.87,-222.398,-33.141
35.9,-223.416,-33.29
35.93,-225.171,-33.668
35.96,-227.908,-33.851
36.0,-229.733,-33.874
36.03,-230.891,-34.309
36.06,-233.138,-34.802
36.09,-235.629,-34.905
36.13,-236.928,-35.1
36.16,-237.489,-35.421
36.19,-238.402,-36.131
36.22,-240.578,-36.704
36.26,-242.964,-37.242
36.29,-245.035,-37.757
36.32,-246.895,-38.181
36.35,-248.685,-38.536
36.39,-250.755,-38.708
36.42,-252.159,-38.857
36.45,-253.844,-39.121
36.48,-255.984,-39.396
36.52,-258.266,-39.487
36.55,-259.599,-39.556
36.58,-260.371,-39.774
36.61,-261.424,-39.831
36.65,-263.109,-39.797
36.68,-264.478,-39.877
36.71,-265.671,-40.392
36.74,-267.566,-40.564
36.78,-268.759,-40.713
36.81,-269.952,-41.148
36.84,-271.532,-41.206
36.88,-272.62,-41.32
36.91,-273.497,-41.446
36.94,-274.585,-41.309
36.97,-275.673,-41.377
37.01,-276.761,-41.561
37.04,-277.849,-41.71
37.07,-278.656,-41.904
37.1,-279.498,-42.065
37.14,-280.095,-42.065
37.17,-279.428,-42.523
37.2,-279.709,-43.027
37.23,-281.183,-42.935
37.27,-281.534,-42.958
37.3,-281.709,-43.588
37.33,-282.657,-43.669
37.36,-283.359,-43.428
37.4,-283.745,-43.588
37.43,-284.061,-43.657
37.46,-284.236,-43.485
37.49,-284.587,-43.439
37.53,-285.149,-43.428
37.56,-285.114,-43.348
37.59,-284.763,-43.279
37.62,-284.341,-43.119
37.66,-283.99,-43.05
37.69,-283.99,-42.741
37.72,-283.183,-42.386
37.75,-282.201,-42.454
37.79,-282.376,-42.557
37.82,-282.832,-42.271
37.85,-281.639,-42.237
37.88,-280.376,-42.512
37.92,-280.095,-42.351
37.95,-280.13,-41.824
37.98,-279.533,-41.469
38.01,-278.34,-41.481
38.05,-277.463,-41.481
38.08,-276.656,-41.263
38.11,-275.217,-41.274
38.14,-273.953,-41.309
38.18,-272.725,-41.057
38.21,-271.075,-40.896
38.24,-269.637,-40.896
38.27,-268.724,-40.782
38.31,-267.566,-40.61
38.34,-266.969,-40.553
38.37,-267.285,-40.736
38.4,-267.496,-40.702
38.44,-266.548,-40.404
38.47,-264.758,-40.243
38.5,-263.635,-40.06
38.53,-262.653,-39.705
38.57,-261.108,-39.361
38.6,-259.494,-38.903
38.63,-257.494,-38.193
38.67,-254.967,-37.574
38.7,-252.58,-37.196
38.73,-251.071,-36.52
38.76,-248.439,-35.604
38.8,-244.93,-35.157
38.83,-242.543,-35.043
38.86,-241.139,-34.836
38.89,-239.244,-34.538
38.93,-236.787,-34.424
38.96,-235.243,-34.321
38.99,-234.331,-34.057
39.02,-232.787,-33.714
39.06,-230.435,-33.622
39.09,-227.943,-33.771
39.12,-226.715,-33.805
39.15,-225.487,-33.313
39.19,-222.855,-32.866
39.22,-220.012,-32.671
39.25,-218.362,-32.35
39.28,-216.713,-31.743
39.32,-214.326,-31.308
39.35,-211.975,-31.045
39.38,-209.975,-30.689
39.41,-207.764,-30.094
39.45,-204.851,-29.647
39.48,-202.359,-29.452
39.51,-201.025,-29.074
39.54,-199.2,-28.524
39.58,-196.498,-28.387
39.61,-194.533,-28.49
39.64,-193.375,-28.089
39.67,-191.199,-27.436
39.71,-188.11,-27.104
39.74,-185.899,-26.966
39.77,-184.285,-26.462
39.8,-182.109,-25.867
39.84,-179.652,-25.534
39.87,-177.406,-25.34
39.9,-175.195,-24.813
39.93,-172.528,-24.091
39.97,-169.229,-23.553
40.0,-166.492,-23.175
40.03,-163.86,-22.682
40.06,-160.771,-22.132
40.1,-157.613,-21.834
40.13,-155.086,-21.731
40.16,-152.91,-21.261
40.19,-149.962,-20.643
40.23,-146.452,-20.185
40.26,-143.855,-19.795
40.29,-141.399,-19.177
40.32,-138.135,-18.615
40.36,-134.766,-18.214
40.39,-131.818,-17.71
40.42,-128.694,-16.989
40.46,-125.15,-16.336
40.49,-121.78,-15.866
40.52,-118.832,-15.328
40.55,-115.463,-14.709
40.59,-111.743,-14.342
40.62,-108.444,-14.171
40.65,-105.917,-13.861
40.68,-103.18,-13.334
40.72,-99.495,-12.865
40.75,-95.81,-12.509
40.78,-93.178,-11.96
40.81,-89.563,-10.505
40.85,-83.141,-9.038
40.88,-76.192,-8.145
40.91,-71.98,-7.526
40.94,-70.401,-7.045
40.98,-67.558,-6.644
41.01,-63.382,-6.999
41.04,-60.504,-7.206
41.07,-58.083,-6.77
41.11,-54.678,-6.427
41.14,-51.555,-6.633
41.17,-49.87,-6.701
41.2,-47.835,-6.232
41.24,-44.641,-5.785
41.27,-41.798,-5.35
41.3,-39.377,-4.697
41.33,-36.569,-4.044
41.37,-34.113,-4.055
41.4,-33.902,-5.292
41.43,-35.762,-5.934
41.46,-31.551,-3.276
41.5,-20.917,-1.524
41.53,-15.231,-1.409
41.56,-11.581,0.206
41.59,-3.825,0.481
41.63,0.105,-0.057
41.66,0.877,1.443
41.69,3.123,3.15
41.72,7.195,3.391
41.76,9.195,3.895
41.79,11.16,5.819
41.82,14.775,6.713
41.85,17.899,6.747
41.89,20.636,7.618
41.92,24.918,8.867
41.95,30.147,9.416
41.98,33.621,9.634
42.02,36.253,10.207
42.05,40.675,10.482
42.08,45.027,10.333
42.11,47.87,10.39
42.15,50.923,10.745
42.18,55.45,11.135
42.21,60.188,11.135
42.25,62.785,11.238
42.28,64.821,11.868
42.31,68.401,12.372
42.34,72.226,12.544
42.38,75.104,12.819
42.41,77.982,13.46
42.44,81.947,13.976
42.47,85.632,14.205
42.51,88.3,14.514
42.54,90.721,15.121
42.57,94.09,15.591
42.6,97.565,15.751
42.64,100.127,16.084
42.67,102.583,16.759
42.7,105.812,17.493
42.73,109.532,17.962
42.77,112.585,18.421
42.8,115.358,19.073
42.83,118.446,19.612
42.86,121.535,20.059
42.9,124.483,20.437
42.93,127.431,20.849
42.96,130.554,21.41
42.99,134.099,21.96
43.03,137.573,22.361
43.06,140.17,22.808
43.09,142.732,23.22
43.12,145.891,23.53
43.16,148.874,23.656
43.19,151.295,23.908
43.22,153.928,24.32
43.25,157.016,24.664
43.29,159.789,24.893
43.32,162.035,25.328
43.35,164.561,25.809
43.38,167.545,26.119
43.42,170.142,26.302
43.45,172.809,26.657
43.48,175.336,27.058
43.51,178.143,27.39
43.55,180.811,27.608
43.58,183.092,28.032
43.61,185.513,28.444
43.64,187.865,28.605
43.68,189.304,28.822
43.71,190.953,29.361
43.74,193.971,29.807
43.77,196.954,29.899
43.81,198.463,30.105
43.84,199.867,30.655
43.87,202.429,30.873
43.91,204.816,30.793
43.94,206.36,30.999
43.97,208.08,31.457
44.0,210.466,31.789
44.04,212.466,31.961
44.07,214.081,32.339
44.1,215.941,32.946
44.13,217.836,33.336
44.17,219.24,33.633
44.2,221.1,34.115
44.23,223.767,34.412
44.26,225.978,34.63
44.3,227.628,35.054
44.33,229.698,35.466
44.36,231.979,35.776
44.39,233.804,36.039
44.43,235.594,36.406
44.46,237.805,36.726
44.49,239.806,36.83
44.52,241.806,37.093
44.56,243.912,37.368
44.59,245.877,37.586
44.62,247.562,37.838
44.65,248.895,38.193
44.69,250.65,38.479
44.72,252.966,38.548
44.75,254.616,38.594
44.78,255.634,38.96
44.82,257.248,39.304
44.85,259.319,39.327
44.88,260.582,39.396
44.91,261.705,39.556
44.95,263.004,39.384
44.98,263.635,39.441
45.01,264.723,39.865
45.04,266.197,40.106
45.08,268.022,40.186
45.11,268.408,40.667
45.14,268.759,41.549
45.17,270.338,41.767
45.21,271.532,41.767
45.24,272.269,42.225
45.27,273.322,42.534
45.3,274.831,42.58
45.34,275.883,42.775
45.37,277.147,43.279
45.4,278.586,43.382
45.43,279.358,43.405
45.47,280.305,43.451
45.5,281.779,43.325
45.53,282.201,42.935
45.56,282.201,43.096
45.6,283.253,43.462
45.63,284.166,43.119
45.66,283.815,43.187
45.7,284.271,43.439
45.73,285.078,43.142
45.76,284.798,43.027
45.79,284.692,43.05
45.83,285.008,43.142
45.86,285.359,43.187
45.89,285.219,43.21
45.92,285.149,43.119
45.96,285.114,42.878
45.99,284.447,42.683
46.02,283.569,42.592
46.05,283.324,42.454
46.09,283.464,42.363
46.12,283.394,42.34
46.15,283.008,42.328
46.18,282.727,42.202
46.22,282.025,42.019
46.25,280.797,41.973
46.28,279.112,42.111
46.31,277.919,42.248
46.35,277.428,42.225
46.38,276.901,42.134
46.41,275.919,42.042
46.44,274.866,41.893
46.48,273.743,41.538
46.51,272.234,41.137
46.54,270.479,40.885
46.57,269.145,40.576
46.61,267.776,40.346
46.64,266.653,40.278
46.67,265.565,40.106
46.7,264.091,39.819
46.74,262.758,39.51
46.77,261.389,39.189
46.8,259.705,38.903
46.83,258.336,38.697
46.87,257.037,38.514
46.9,255.563,38.296
46.93,253.809,38.113
46.96,252.124,37.906
47.0,250.299,37.654
47.03,248.65,37.322
47.06,247.105,36.979
47.09,245.351,36.749
47.13,244.052,36.44
47.16,242.754,35.913
47.19,240.788,35.478
47.22,238.683,35.249
47.26,237.244,34.802
47.29,235.208,34.126
47.32,232.646,33.782
47.35,230.435,33.645
47.39,228.329,33.565
47.42,226.259,33.485
47.45,224.539,33.439
47.49,222.96,33.233
47.52,220.293,32.958
47.55,217.801,32.82
47.58,216.537,32.476
47.62,215.274,31.95
47.65,212.993,31.686
47.68,210.817,31.594
47.71,209.273,31.297
47.75,207.307,30.884
47.78,204.956,30.655
47.81,202.956,30.449
47.84,201.517,29.991
47.88,199.832,29.441
47.91,197.621,29.051
47.94,195.375,28.834
47.97,193.059,28.616
48.01,190.918,28.295
48.04,189.058,27.848
48.07,186.952,27.379
48.1,184.566,27.024
48.14,182.32,26.588
48.17,180.319,26.05
48.2,178.354,25.603
48.23,175.932,25.214
48.27,173.37,24.79
48.3,170.703,24.206
48.33,167.509,23.702
48.36,164.456,23.289
48.4,161.824,22.751
48.43,159.297,22.247
48.46,156.56,21.834
48.49,153.752,21.731
48.53,151.225,21.227
48.56,148.628,20.723
48.59,145.68,20.116
48.62,142.241,19.383
48.66,138.802,18.799
48.69,135.503,18.203
48.72,132.449,17.722
48.75,129.185,17.309
48.79,125.851,17.034
48.82,122.798,16.714
48.85,120.026,16.233
48.88,117.148,15.706
48.92,113.849,15.419
48.95,111.076,15.179
48.98,108.62,14.64
49.01,105.496,14.045
49.05,102.057,13.609
49.08,99.284,13.048
49.11,96.161,12.269
49.14,92.16,11.719
49.18,88.686,11.341
49.21,86.264,10.768
49.24,83.176,10.161
49.28,79.315,9.875
49.31,75.946,9.657
49.34,73.279,9.038
49.37,69.875,8.248
49.41,65.663,7.916
49.44,62.61,7.606
49.47,59.978,6.976
49.5,56.152,6.415
49.54,52.327,6.152
49.57,49.309,5.625
49.6,45.94,4.857
49.63,41.623,4.239
49.67,37.341,3.987
49.7,34.85,4.055
49.73,34.604,4.788
49.76,33.516,4.605
49.8,26.743,2.303
49.83,17.583,1.203
49.86,12.95,0.825
49.89,7.791,0.092
49.93,1.825,0.538
49.96,-0.175,0.309
49.99,-0.667,-1.134
50.02,-1.439,-2.429
50.06,-4.422,-2.956
50.09,-7.826,-3.735
50.12,-10.564,-4.857
50.15,-12.88,-6.289
50.19,-17.548,-7.813
50.22,-23.022,-8.5
50.25,-26.392,-9.038
50.28,-29.796,-9.726
50.32,-34.779,-10.195
50.35,-39.587,-10.23
50.38,-42.886,-10.218
50.41,-45.554,-10.425
50.45,-49.239,-10.505
50.48,-52.994,-10.367
50.51,-56.117,-10.47
50.54,-59.592,-10.825
50.58,-63.312,-11.089
50.61,-66.295,-11.272
50.64,-68.471,-11.856
50.67,-71.594,-12.624
50.71,-75.349,-13.128
50.74,-78.508,-13.563
50.77,-81.456,-14.205
50.8,-85.071,-14.858
50.84,-88.966,-15.11
50.87,-91.634,-15.385
50.9,-94.301,-15.923
50.94,-97.951,-16.301
50.97,-101.671,-16.427
51.0,-104.443,-16.748
51.03,-106.83,-17.447
51.07,-110.62,-18.065
51.1,-114.34,-18.317
51.13,-116.446,-18.833
51.16,-118.517,-19.658
51.2,-122.061,-20.288
51.23,-125.29,-20.517
51.26,-128.027,-20.952
51.29,-131.607,-21.651
51.33,-135.432,-22.155
51.36,-138.696,-22.464
51.39,-141.96,-22.785
51.42,-145.224,-22.808
51.46,-147.084,-22.968
51.49,-149.19,-23.621
51.52,-152.348,-23.919
51.55,-154.98,-24.148
51.59,-157.191,-24.71
51.62,-160.42,-25.443
51.65,-163.824,-25.729
51.68,-166.0,-25.97
51.72,-168.738,-26.657
51.75,-172.563,-26.783
51.78,-174.739,-26.669
51.81,-176.003,-27.218
51.85,-179.407,-27.86
51.88,-183.478,-27.929
51.91,-185.443,-27.86
51.94,-186.461,-28.398
51.98,-189.233,-28.662
52.01,-191.795,-28.387
52.04,-192.497,-28.673
52.07,-194.147,-29.544
52.11,-197.726,-30.105
52.14,-200.078,-30.14
52.17,-200.429,-30.506
52.2,-201.938,-31.182
52.24,-205.307,-31.262
52.27,-207.764,-30.987
52.3,-208.536,-31.342
52.33,-210.22,-31.972
52.37,-212.888,-32.293
52.4,-214.958,-32.282
52.43,-215.941,-32.671
52.46,-217.906,-33.221
52.5,-220.258,-33.393
52.53,-222.012,-33.565
52.56,-223.381,-33.771
52.59,-225.417,-34.183
52.63,-227.768,-34.39
52.66,-229.979,-34.779
52.69,-231.979,-35.146
52.73,-233.594,-35.329
52.76,-234.857,-35.329
52.79,-236.542,-35.764
52.82,-239.63,-36.154
52.86,-241.595,-36.165
52.89,-242.473,-36.429
52.92,-244.122,-36.795
52.95,-246.649,-36.956
52.99,-248.509,-37.001
53.02,-249.387,-37.242
53.05,-250.72,-37.723
53.08,-253.212,-37.872
53.12,-254.265,-38.113
53.15,-254.475,-39.018
53.18,-256.265,-39.842
53.21,-258.617,-40.014
53.25,-260.056,-40.209
53.28,-261.424,-40.553
53.31,-263.039,-40.427
53.34,-264.056,-40.312
53.38,-265.285,-40.782
53.41,-267.18,-40.965
53.44,-268.584,-40.942
53.47,-269.496,-41.309
53.51,-270.76,-41.595
53.54,-272.128,-41.458
53.57,-272.865,-41.629
53.6,-273.672,-42.065
53.64,-275.287,-42.145
53.67,-276.726,-42.134
53.7,-277.498,-42.512
53.73,-278.551,-42.821
53.77,-279.533,-42.764
53.8,-280.165,-42.752
53.83,-280.832,-42.798
53.86,-281.429,-42.729
53.9,-282.13,-42.844
53.93,-283.253,-42.775
53.96,-283.815,-42.775
53.99,-284.341,-42.855
54.03,-284.552,-42.764
54.06,-284.552,-42.592
54.09,-283.394,-42.512
54.12,-281.85,-43.291
54.16,-282.552,-43.84
54.19,-283.71,-43.795
54.22,-283.464,-43.806
54.25,-283.078,-44.081
54.29,-284.061,-43.772
54.32,-283.78,-43.313
54.35,-282.306,-43.428
54.38,-281.744,-43.623
54.42,-282.376,-43.531
54.45,-282.622,-43.348
54.48,-281.709,-43.52
54.52,-281.148,-43.634
54.55,-280.867,-43.336
54.58,-280.446,-42.935
54.61,-279.709,-42.718
54.65,-279.253,-42.466
54.68,-278.586,-42.271
54.71,-278.305,-42.065
54.74,-277.673,-41.698
54.78,-276.305,-41.458
54.81,-275.041,-41.24
54.84,-273.813,-40.85
54.87,-272.304,-40.541
54.91,-270.865,-40.541
54.94,-270.058,-40.747
54.97,-270.409,-40.873
55.0,-270.198,-40.679
55.04,-268.338,-40.312
55.07,-265.987,-39.991
55.1,-264.091,-39.556
55.13,-262.231,-38.995
55.17,-259.74,-38.662
55.2,-257.774,-38.41
55.23,-256.3,-37.941
55.26,-254.44,-37.528
55.3,-252.264,-37.357
55.33,-250.194,-37.059
55.36,-248.053,-36.669
55.39,-246.333,-36.497
55.43,-245.105,-36.348
55.46,-243.596,-36.131
55.49,-241.771,-35.89
55.52,-240.086,-35.432
55.56,-238.086,-34.985
55.59,-235.699,-34.619
55.62,-233.383,-34.183
55.65,-231.242,-33.656
55.69,-228.821,-33.175
55.72,-226.189,-32.797
55.75,-223.907,-32.373
55.78,-221.767,-31.972
55.82,-219.591,-31.594
55.85,-217.169,-31.308
55.88,-214.853,-31.159
55.91,-213.519,-30.953
55.95,-211.905,-30.529
55.98,-209.167,-30.3
56.01,-206.676,-30.185
56.04,-205.482,-30.162
56.08,-204.71,-29.899
56.11,-203.026,-29.532
56.14,-200.639,-29.395
56.18,-198.99,-29.246
56.21,-197.832,-28.834
56.24,-195.972,-28.444
56.27,-193.866,-28.318
56.31,-192.462,-28.078
56.34,-190.883,-27.619
56.37,-188.602,-27.23
56.4,-186.566,-26.898
56.44,-184.671,-26.451
56.47,-182.249,-26.004
56.5,-179.758,-25.626
56.53,-177.617,-25.214
56.57,-175.476,-24.721
56.6,-172.879,-24.286
56.63,-170.317,-23.828
56.66,-167.825,-23.392
56.7,-165.053,-22.923
56.73,-162.386,-22.373
56.76,-159.508,-21.846
56.79,-156.805,-21.685
56.83,-154.84,-21.239
56.86,-152.278,-20.574
56.89,-148.663,-20.024
56.92,-145.013,-19.52
56.96,-142.171,-19.062
56.99,-139.539,-18.317
57.02,-135.924,-17.859
57.05,-132.169,-17.584
57.09,-129.361,-17.264
57.12,-127.115,-16.645
57.15,-124.097,-16.106
57.18,-120.622,-15.866
57.22,-117.569,-15.454
57.25,-114.481,-14.846
57.28,-111.357,-14.205
57.31,-108.199,-13.689
57.35,-104.935,-13.254
57.38,-101.741,-12.807
57.41,-98.372,-12.212
57.44,-94.687,-11.696
57.48,-91.458,-11.238
57.51,-88.124,-10.768
57.54,-85.071,-10.31
57.57,-81.807,-9.852
57.61,-78.543,-9.394
57.64,-75.314,-8.901
57.67,-71.91,-8.385
57.7,-68.576,-7.927
57.74,-65.488,-7.446
57.77,-62.54,-6.931
57.8,-59.346,-6.415
57.83,-55.45,-6.117
57.87,-52.046,-5.9
57.9,-49.203,-5.384
57.93,-45.905,-4.708
57.97,-41.869,-4.273
58.0,-38.113,-3.941
58.03,-35.587,-3.872
58.06,-35.587,-4.834
58.1,-35.902,-5.166
58.13,-30.533,-2.658
58.16,-20.811,-1.146
58.19,-15.337,-0.974
58.23,-11.09,0.137
58.26,-3.79,0.218
58.29,0.211,0.057
58.32,0.948,1.65
58.36,3.474,3.265
58.39,7.44,3.379
58.42,9.756,4.365
58.45,12.003,5.888
58.49,14.845,6.335
58.52,18.846,7.309
58.55,24.286,8.626
58.58,29.129,9.439
58.62,32.077,9.84
58.65,35.446,10.173
58.68,39.833,9.955
58.71,43.518,9.6
58.75,46.15,9.932
58.78,49.344,10.493
58.81,53.239,10.734
58.84,56.538,10.837
58.88,59.381,11.192
58.91,63.136,11.604
58.94,66.751,11.925
58.97,69.594,12.292
59.01,72.542,12.727
59.04,76.157,13.048
59.07,79.631,13.288
59.1,82.79,13.678
59.14,86.053,14.159
59.17,89.388,14.571
59.2,92.441,14.835
59.23,95.143,15.236
59.27,98.056,15.786
59.3,101.215,16.381
59.33,104.443,16.885
59.36,107.286,17.435
59.4,109.988,18.1
59.43,113.638,18.718
59.46,117.393,19.085
59.49,120.201,19.394
59.53,122.658,19.933
59.56,126.237,20.391
59.59,129.536,20.563
59.62,131.607,21.032
59.66,133.994,21.8
59.69,138.1,22.373
59.72,141.785,22.51
59.76,143.504,23.037
59.79,145.996,23.816
59.82,149.962,23.931
59.85,153.226,24.034
59.89,155.507,24.469
59.92,158.665,25.076
59.95,162.175,25.225
59.98,164.211,25.259
60.02,165.895,25.798
60.05,168.668,26.153
60.08,171.545,26.313
60.11,174.318,26.714
60.15,177.231,27.012
60.18,179.688,27.333
60.21,181.758,27.745
60.24,183.829,28.204
60.28,186.566,28.375
60.31,188.777,28.398
60.34,190.005,28.673
60.37,192.216,29.383
60.41,195.48,29.532
60.44,197.411,29.532
60.47,198.218,30.025
60.5,200.604,30.518
60.54,203.763,30.392
60.57,205.272,30.311
60.6,206.149,30.838
60.63,208.536,31.285
60.67,211.168,31.297
60.7,212.782,31.434
60.73,214.291,31.961
60.76,216.643,32.396
60.8,218.678,32.545
60.83,219.942,32.637
60.86,221.416,33.049
60.89,223.837,33.393
60.93,225.943,33.611
60.96,227.171,33.943
60.99,229.102,34.47
61.02,232.365,34.733
61.06,234.436,34.642
61.09,234.506,35.111
61.12,235.243,35.753
61.15,237.875,36.108
61.19,240.227,36.291
61.22,241.56,36.83
61.25,243.42,37.334
61.28,245.596,37.54
61.32,247.386,37.62
61.35,248.93,37.815
61.38,250.58,38.032
61.41,252.37,38.239
61.45,254.019,38.491
61.48,255.598,38.8
61.51,257.248,39.063
61.55,259.213,39.315
61.58,261.073,39.487
61.61,262.337,39.545
61.64,263.074,39.728
61.68,264.618,40.106
61.71,266.689,40.026
61.74,267.917,40.198
61.77,269.145,40.667
61.81,270.584,40.976
61.84,272.093,40.976
61.87,273.216,40.919
61.9,274.094,41.137
61.94,275.322,41.412
61.97,276.866,41.435
62.0,278.059,41.526
62.03,279.147,41.744
62.07,279.323,42.156
62.1,279.007,42.786
62.13,279.779,42.993
62.16,280.551,42.867
62.2,280.832,42.981
62.23,281.323,43.291
62.26,282.201,43.439
62.29,282.903,43.543
62.33,283.464,43.588
62.36,283.534,43.714
62.39,283.955,43.863
62.42,284.517,43.657
62.46,284.552,43.417
62.49,284.552,43.428
62.52,285.114,43.394
62.55,285.535,43.073
62.59,285.219,42.912
62.62,284.798,42.798
62.65,284.622,42.58
62.68,284.482,42.351
62.72,284.166,42.305
62.75,283.71,42.489
62.78,283.499,42.672
62.81,283.429,42.615
62.85,282.411,42.615
62.88,281.815,42.592
62.91,281.464,42.294
62.94,281.113,41.939
62.98,280.235,41.618
63.01,279.323,41.435
63.04,278.937,41.423
63.07,277.708,41.229
63.11,275.006,41.194
63.14,273.251,41.412
63.17,272.549,41.045
63.21,271.637,40.61
63.24,269.672,40.427
63.27,267.601,40.484
63.3,266.794,40.301
63.34,266.267,39.785
63.37,264.302,39.59
63.4,262.337,39.671
63.43,261.354,39.327
63.47,260.161,38.754
63.5,258.16,38.536
63.53,256.265,38.582
63.56,255.177,38.296
63.6,254.019,37.792
63.63,252.299,37.471
63.66,250.334,37.242
63.69,248.264,36.944
63.73,246.298,36.6
63.76,244.789,36.326
63.79,243.245,36.074
63.82,241.771,35.741
63.86,239.735,35.363
63.89,237.665,35.02
63.92,235.875,34.733
63.95,233.91,34.321
63.99,231.523,33.943
64.02,229.488,33.737
64.05,227.979,33.439
64.08,226.013,33.118
64.12,223.241,33.003
64.15,221.24,32.981
64.18,219.836,32.557
64.21,217.415,31.972
64.25,215.063,31.984
64.28,214.291,31.915
64.31,213.484,31.4
64.34,211.168,31.067
64.38,208.852,31.067
64.41,207.518,30.815
64.44,205.798,30.277
64.47,203.377,29.968
64.51,201.411,29.716
64.54,199.516,29.257
64.57,197.411,28.799
64.6,195.27,28.593
64.64,193.761,28.364
64.67,192.216,27.848
64.7,189.655,27.287
64.73,186.566,26.966
64.77,184.531,26.6
64.8,182.776,25.97
64.83,180.319,25.466
64.86,177.547,25.305
64.9,175.581,24.973
64.93,173.23,24.297
64.96,169.72,23.85
65.0,166.808,23.621
65.03,164.737,23.106
65.06,162.07,22.499
65.09,158.841,22.258
65.13,156.454,21.983
65.16,154.349,21.353
65.19,151.19,20.7
65.22,147.575,20.357
65.26,145.154,20.059
65.29,142.557,19.073
65.32,138.626,18.466
65.35,135.011,18.168
65.39,132.449,17.836
65.42,129.887,17.332
65.45,126.483,17.011
65.48,123.254,16.84
65.52,120.868,16.301
65.55,118.13,15.522
65.58,114.34,15.041
65.61,111.006,14.858
65.65,108.374,14.411
65.68,105.496,13.747
65.71,101.706,13.277
65.74,98.196,12.991
65.78,95.705,12.326
65.81,92.581,11.49
65.84,88.651,10.952
65.87,85.457,10.677
65.91,82.895,10.104
65.94,79.42,9.405
65.97,75.139,9.05
66.0,71.594,8.878
66.04,68.927,8.363
66.07,65.839,7.744
66.1,62.189,7.354
66.13,59.065,7.08
66.17,56.503,6.484
66.2,53.275,5.659
66.23,48.853,5.109
66.26,45.168,4.892
66.3,41.904,4.433
66.33,38.148,3.918
66.36,35.376,3.975
66.39,35.236,4.983
66.43,35.376,5.075
66.46,29.62,2.509
66.49,19.408,1.146
66.52,13.863,0.882
66.56,9.09,-0.206
66.59,2.351,0.057
66.62,-0.175,0.092
66.65,-0.667,-1.466
66.69,-2.597,-2.818
66.72,-6.247,-3.059
66.75,-8.914,-4.021
66.79,-11.23,-5.373
66.82,-14.073,-6.461
66.85,-18.987,-7.549
66.88,-24.005,-8.282
66.92,-27.409,-8.935
66.95,-30.603,-9.806
66.98,-34.885,-10.276
67.01,-38.605,-10.23
67.05,-41.447,-10.253
67.08,-44.817,-10.505
67.11,-49.098,-10.677
67.14,-53.275,-10.711
67.18,-56.854,-10.871
67.21,-60.294,-11.181
67.24,-63.733,-11.41
67.27,-66.505,-11.65
67.31,-69.032,-12.086
67.34,-72.121,-12.704
67.37,-75.56,-13.22
67.4,-78.403,-13.758
67.44,-81.596,-14.4
67.47,-85.878,-14.789
67.5,-89.633,-14.961
67.53,-92.616,-15.282
67.57,-95.985,-15.591
67.6,-99.004,-15.774
67.63,-101.776,-15.98
67.66,-103.987,-16.519
67.7,-106.339,-17.332
67.73,-109.743,-18.054
67.76,-113.393,-18.547
67.79,-116.13,-19.108
67.83,-118.867,-19.795
67.86,-122.202,-20.288
67.89,-125.22,-20.609
67.92,-128.133,-20.975
67.96,-131.712,-21.365
67.99,-135.432,-21.8
68.02,-138.451,-22.052
68.05,-141.328,-22.648
68.09,-144.592,-22.968
68.12,-146.733,-23.071
68.15,-148.734,-23.702
68.18,-152.313,-24.183
68.22,-155.472,-24.469
68.25,-158.034,-24.985
68.28,-161.263,-25.603
68.31,-164.386,-25.729
68.35,-166.527,-25.878
68.38,-168.738,-26.382
68.41,-172.247,-26.817
68.44,-175.406,-26.726
68.48,-177.02,-27.081
68.51,-179.266,-27.722
68.54,-182.811,-27.986
68.58,-185.548,-28.078
68.61,-187.093,-28.478
68.64,-189.058,-28.891
68.67,-191.339,-28.925
68.71,-192.813,-29.097
68.74,-194.814,-29.555
68.77,-197.481,-29.865
68.8,-199.797,-30.071
68.84,-201.482,-30.266
68.87,-202.885,-30.529
68.9,-204.956,-30.747
68.93,-207.588,-30.77
68.97,-209.097,-30.941
69.0,-210.185,-31.411
69.03,-212.782,-31.858
69.06,-215.414,-31.938
69.1,-216.187,-32.202
69.13,-217.345,-32.855
69.16,-220.328,-33.026
69.19,-222.714,-32.958
69.23,-223.451,-33.107
69.26,-224.855,-33.714
69.29,-227.557,-33.874
69.32,-229.768,-34.16
69.36,-231.593,-34.836
69.39,-233.664,-35.077
69.42,-235.313,-34.951
69.45,-236.331,-35.214
69.49,-237.981,-35.993
69.52,-240.051,-36.681
69.55,-241.736,-37.001
69.58,-243.069,-37.437
69.62,-245.14,-38.021
69.65,-247.667,-38.41
69.68,-249.176,-38.64
69.71,-250.404,-38.937
69.75,-252.58,-39.109
69.78,-254.861,-39.132
69.81,-255.914,-39.407
69.84,-257.072,-39.923
69.88,-259.599,-39.991
69.91,-261.179,-39.888
69.94,-261.88,-40.06
69.97,-262.828,-40.198
70.01,-264.232,-40.152
70.04,-265.53,-40.278
70.07,-266.583,-40.793
70.1,-268.303,-41.068
70.14,-269.952,-40.999
70.17,-270.97,-41.194
70.2,-271.883,-41.515
70.24,-273.181,-41.538
70.27,-274.445,-41.446
70.3,-275.252,-41.71
70.33,-276.445,-42.099
70.37,-277.814,-42.225
70.4,-278.761,-42.397
70.43,-279.814,-42.523
70.46,-280.727,-42.408
70.5,-281.323,-42.294
70.53,-281.639,-42.351
70.56,-282.271,-42.42
70.59,-283.148,-42.466
70.63,-283.885,-42.5
70.66,-284.061,-42.626
70.69,-284.412,-42.695
70.72,-284.868,-42.489
70.76,-284.903,-42.34
70.79,-284.622,-42.294
70.82,-284.833,-42.408
70.85,-285.289,-42.111
70.89,-284.903,-42.282
70.92,-285.114,-42.603
70.95,-285.219,-42.134
70.98,-284.868,-42.053
71.02,-284.587,-41.801
71.05,-283.885,-41.607
71.08,-283.815,-41.481
71.11,-282.411,-41.675
71.15,-280.411,-42.431
71.18,-280.341,-42.775
71.21,-280.095,-42.638
71.24,-279.077,-42.729
71.28,-278.551,-42.718
71.31,-278.13,-42.386
71.34,-276.971,-42.363
71.37,-276.515,-42.58
71.41,-276.41,-42.431
71.44,-275.568,-42.065
71.47,-273.813,-41.87
71.5,-272.76,-41.629
71.54,-272.058,-41.057
71.57,-270.233,-40.736
71.6,-268.935,-40.782
71.63,-269.11,-40.53
71.67,-268.233,-40.014
71.7,-265.846,-39.923
71.73,-264.091,-39.739
71.76,-262.898,-39.063
71.8,-260.968,-38.548
71.83,-258.862,-38.502
71.86,-257.564,-38.319
71.89,-256.125,-37.815
71.93,-254.089,-37.448
71.96,-252.299,-37.127
71.99,-250.334,-36.555
72.03,-247.667,-36.005
72.06,-245.351,-35.982
72.09,-244.333,-35.89
72.12,-242.859,-35.443
72.16,-239.735,-35.455
72.19,-237.349,-35.695
72.22,-236.331,-35.524
72.25,-234.682,-35.169
72.29,-232.365,-34.985
72.32,-230.611,-34.756
72.35,-229.066,-34.332
72.38,-226.891,-33.966
72.42,-224.785,-33.691
72.45,-222.925,-33.313
72.48,-221.17,-32.912
72.51,-219.24,-32.557
72.55,-217.31,-32.236
72.58,-215.485,-31.858
72.61,-213.449,-31.457
72.64,-211.273,-31.262
72.68,-209.413,-31.045
72.71,-208.115,-30.781
72.74,-206.57,-30.54
72.77,-204.886,-30.277
72.81,-202.85,-29.933
72.84,-201.06,-29.532
72.87,-199.165,-29.12
72.9,-197.13,-28.868
72.94,-195.41,-28.65
72.97,-193.655,-28.238
73.0,-191.093,-27.894
73.03,-188.777,-27.665
73.07,-186.742,-27.31
73.1,-184.39,-26.863
73.13,-182.074,-26.405
73.16,-179.828,-25.912
73.2,-177.441,-25.443
73.23,-174.809,-25.019
73.26,-172.212,-24.664
73.29,-170.036,-24.125
73.33,-167.194,-23.576
73.36,-164.035,-23.163
73.39,-160.982,-22.808
73.42,-158.525,-22.373
73.46,-156.314,-22.04
73.49,-153.717,-21.525
73.52,-150.629,-20.964
73.55,-147.646,-20.54
73.59,-144.873,-19.921
73.62,-142.065,-19.543
73.65,-139.047,-19.028
73.68,-135.889,-18.569
73.72,-132.59,-18.146
73.75,-129.642,-17.699
73.78,-126.764,-17.183
73.82,-123.781,-16.691
73.85,-120.728,-16.175
73.88,-117.183,-15.671
73.91,-113.884,-15.236
73.95,-110.866,-14.778
73.98,-107.883,-14.285
74.01,-104.654,-13.873
74.04,-101.671,-13.437
74.08,-98.442,-12.819
74.11,-94.617,-12.361
74.14,-91.634,-11.971
74.17,-89.037,-11.33
74.21,-85.562,-10.722
74.24,-81.982,-10.344
74.27,-79.07,-9.852
74.3,-76.051,-9.176
74.34,-72.542,-8.592
74.37,-68.962,-8.156
74.4,-65.628,-7.755
74.43,-62.469,-7.24
74.47,-59.171,-6.701
74.5,-55.731,-6.243
74.53,-51.836,-5.934
74.56,-48.537,-5.499
74.6,-45.238,-4.857
74.63,-40.886,-4.536
74.66,-37.341,-4.456
74.69,-35.13,-4.456
74.73,-35.13,-5.396
74.76,-35.376,-5.567
74.79,-29.655,-2.841
74.82,-19.197,-1.375
74.86,-13.757,-1.088
74.89,-8.598,0.115
74.92,-1.72,0.023
74.95,0.456,0.275
74.99,1.018,1.902
75.02,3.123,3.185
75.05,6.914,3.448
75.08,9.686,4.571
75.12,12.494,5.945
75.15,15.091,6.369
75.18,18.39,7.263
75.21,23.233,8.557
75.25,28.462,9.187
75.28,31.761,9.348
75.31,34.85,9.714
75.34,38.815,9.772
75.38,42.395,9.588
75.41,45.308,9.783
75.44,48.817,10.31
75.48,53.169,10.619
75.51,56.96,10.768
75.54,59.908,11.204
75.57,63.382,11.742
75.61,67.418,12.005
75.64,70.436,12.212
75.67,72.682,12.773
75.7,75.63,13.403
75.74,79.175,13.815
75.77,82.474,14.171
75.8,85.597,14.72
75.83,89.247,15.236
75.87,92.862,15.488
75.9,95.705,15.66
75.93,98.302,16.003
75.96,101.25,16.496
76.0,104.829,16.851
76.03,107.672,17.309
76.06,109.673,18.134
76.09,112.656,19.016
76.13,116.692,19.452
76.16,119.745,19.692
76.19,121.851,20.253
76.22,125.255,20.941
76.26,129.256,21.147
76.29,131.783,21.353
76.32,134.029,21.892
76.35,137.608,22.51
76.39,141.539,22.762
76.42,144.382,22.911
76.45,147.014,23.495
76.48,149.927,23.828
76.52,152.98,24.114
76.55,155.402,24.435
76.58,158.069,25.019
76.61,161.473,25.385
76.65,164.386,25.489
76.68,166.386,25.775
76.71,168.562,26.256
76.74,171.37,26.52
76.78,173.756,26.669
76.81,176.038,27.001
76.84,178.88,27.47
76.87,181.863,27.826
76.91,184.355,28.123
76.94,186.496,28.421
76.97,188.356,28.765
77.0,190.813,28.937
77.04,193.234,28.96
77.07,194.849,29.269
77.1,196.849,29.739
77.13,199.13,29.991
77.17,200.71,30.288
77.2,202.675,30.586
77.23,204.71,30.644
77.27,206.29,30.77
77.3,208.08,31.125
77.33,210.291,31.491
77.36,212.502,31.812
77.4,214.256,32.133
77.43,216.081,32.534
77.46,217.871,32.843
77.49,219.345,33.129
77.53,220.854,33.599
77.56,222.855,34.046
77.59,225.101,34.378
77.62,227.031,34.722
77.66,228.645,35.169
77.69,230.751,35.535
77.72,233.173,35.695
77.75,235.103,35.764
77.79,236.682,36.108
77.82,238.718,36.429
77.85,240.543,36.543
77.88,242.262,36.795
77.92,244.473,37.024
77.95,246.544,37.311
77.98,248.404,37.528
78.01,249.632,37.712
78.05,251.141,38.055
78.08,253.212,38.388
78.11,254.861,38.697
78.14,256.616,39.029
78.18,257.845,39.464
78.21,258.862,40.026
78.24,260.442,40.392
78.27,262.091,40.415
78.31,263.249,40.438
78.34,264.302,40.782
78.37,265.916,41.103
78.4,267.531,41.057
78.44,268.794,41.137
78.47,270.303,41.503
78.5,271.707,41.584
78.53,272.549,41.652
78.57,273.497,41.973
78.6,274.936,42.088
78.63,276.059,42.088
78.66,276.866,42.523
78.7,278.375,42.764
78.73,279.568,42.66
78.76,279.919,42.775
78.79,280.516,42.901
78.83,281.148,42.786
78.86,281.92,42.626
78.89,282.797,42.512
78.92,283.499,42.615
78.96,283.955,42.752
78.99,284.482,42.66
79.02,284.657,42.557
79.06,284.938,42.569
79.09,285.043,42.076
79.12,284.657,42.145
79.15,285.359,42.408
79.19,285.815,42.179
79.22,285.464,42.248
79.25,285.043,42.202
79.28,285.289,42.145
79.32,285.289,41.675
79.35,283.113,41.95
79.38,281.253,42.592
79.41,281.674,42.729
79.45,281.85,42.683
79.48,281.253,43.027
79.51,280.902,43.302
79.54,280.305,43.142
79.58,279.709,42.912
79.61,279.428,42.649
79.64,278.41,42.466
79.67,277.252,42.523
79.71,276.726,42.523
79.74,276.585,42.225
79.77,275.638,41.836
79.8,274.164,41.503
79.84,272.655,41.194
79.87,271.461,40.759
79.9,270.023,40.232
79.93,268.549,40.072
79.97,267.636,39.957
80.0,266.478,39.659
80.03,264.653,39.384
80.06,262.828,39.178
80.1,261.459,38.811
80.13,260.02,38.388
80.16,258.16,38.227
80.19,256.335,38.181
80.23,254.475,38.136
80.26,252.931,38.01
80.29,251.598,37.757
80.32,249.808,37.357
80.36,247.351,37.07
80.39,245.702,36.818
80.42,244.614,36.394
80.45,242.578,36.016
80.49,240.402,35.936
80.52,239.244,35.695
80.55,237.946,35.157
80.58,235.454,34.882
80.62,232.962,34.802
80.65,231.628,34.504
80.68,230.505,34.046
80.71,228.365,33.782
80.75,226.083,33.645
80.78,224.399,33.29
80.81,222.749,32.797
80.85,220.679,32.373
80.88,218.257,32.156
80.91,216.327,31.892
80.94,214.783,31.4
80.98,212.782,30.884
81.01,210.361,30.701
81.04,208.606,30.54
81.07,207.307,30.151
81.11,205.237,29.647
81.14,202.429,29.372
81.17,200.288,29.189
81.2,198.674,28.799
81.24,196.919,28.375
81.27,194.708,28.204
81.3,192.462,28.123
81.33,190.637,27.86
81.37,188.672,27.47
81.4,186.671,27.047
81.43,184.671,26.623
81.46,182.179,26.13
81.5,179.407,25.775
81.53,177.266,25.489
81.56,175.406,25.099
81.59,173.055,24.584
81.63,170.107,24.194
81.66,167.79,23.77
81.69,165.72,23.049
81.72,162.737,22.453
81.76,159.648,22.144
81.79,157.227,22.006
81.82,154.875,21.502
81.85,151.892,20.872
81.89,148.944,20.494
81.92,146.066,19.887
81.95,143.083,19.429
81.98,140.346,18.844
82.02,137.187,18.214
82.05,133.607,17.779
82.08,130.484,17.412
82.11,128.308,16.874
82.15,125.536,16.175
82.18,122.061,15.66
82.21,118.657,15.236
82.24,115.358,14.663
82.28,111.989,14.102
82.31,108.514,13.621
82.34,105.04,13.254
82.37,101.881,12.819
82.41,98.372,12.326
82.44,94.827,11.937
82.47,92.3,11.41
82.51,89.352,10.642
82.54,85.562,10.173
82.57,82.088,9.886
82.6,79.105,9.405
82.64,75.735,8.855
82.67,72.296,8.454
82.7,69.278,7.996
82.73,66.505,7.446
82.77,63.171,6.976
82.8,59.311,6.69
82.83,55.766,6.404
82.86,52.818,5.854
82.9,49.625,5.063
82.93,45.518,4.525
82.96,41.447,4.124
82.99,38.078,3.528
83.03,34.955,3.253
83.06,33.481,4.33
83.09,32.709,4.582
83.12,27.094,1.97
83.16,17.618,0.653
83.19,12.283,0.733
83.22,7.616,-0.034
83.25,1.72,0.08
83.29,-0.175,-0.069
83.32,-0.597,-1.409
83.35,-2.036,-2.555
83.38,-5.299,-2.841
83.42,-8.002,-3.654
83.45,-10.388,-4.937
83.48,-12.915,-6.301
83.51,-17.969,-7.469
83.55,-22.987,-7.962
83.58,-26.146,-8.626
83.61,-29.585,-9.565
83.64,-34.99,-10.253
83.68,-40.324,-10.321
83.71,-43.237,-10.505
83.74,-46.22,-10.952
83.77,-50.642,-10.94
83.81,-54.398,-10.711
83.84,-57.1,-11.066
83.87,-60.96,-11.708
83.9,-65.453,-11.879
83.94,-68.506,-11.799
83.97,-70.612,-12.097
84.0,-73.77,-12.464
84.03,-77.174,-12.681
84.07,-80.052,-12.968
84.1,-82.86,-13.472
84.13,-86.299,-13.999
84.16,-89.668,-14.354
84.2,-92.336,-14.709
84.23,-94.897,-15.213
84.26,-98.021,-15.614
84.3,-101.074,-15.969
84.33,-103.777,-16.496
84.36,-106.409,-17.229
84.39,-109.602,-17.871
84.43,-113.077,-18.352
84.46,-116.341,-18.684
84.49,-118.727,-19.199
84.52,-121.675,-19.818
84.56,-125.325,-20.07
84.59,-128.098,-20.196
84.62,-129.993,-20.735
84.65,-132.906,-21.525
84.69,-137.222,-21.869
84.72,-140.17,-22.029
84.75,-142.206,-22.693
84.78,-145.505,-23.369
84.82,-149.4,-23.472
84.85,-151.646,-23.61
84.88,-153.822,-24.263
84.91,-157.437,-24.859
84.95,-161.227,-25.065
84.98,-163.263,-25.397
85.01,-165.649,-25.981
85.04,-169.054,-26.279
85.08,-171.791,-26.451
85.11,-173.897,-26.863
85.14,-176.669,-27.459
85.17,-180.179,-27.757
85.21,-182.706,-27.917
85.24,-184.215,-28.364
85.27,-186.671,-28.765
85.3,-189.444,-28.845
85.34,-191.655,-28.822
85.37,-192.918,-29.04
85.4,-194.743,-29.59
85.43,-197.586,-29.91
85.47,-200.148,-29.922
85.5,-201.517,-30.071
85.53,-202.64,-30.38
85.56,-204.745,-30.449
85.6,-206.36,-30.529
85.63,-207.623,-30.93
85.66,-209.378,-31.48
85.69,-211.905,-31.801
85.73,-213.835,-31.995
85.76,-215.134,-32.373
85.79,-216.888,-32.706
85.82,-219.17,-32.9
85.86,-221.381,-33.038
85.89,-223.276,-33.439
85.92,-225.452,-33.828
85.95,-227.382,-34.092
85.99,-229.207,-34.412
86.02,-231.313,-34.825
86.05,-233.699,-35.088
86.09,-235.77,-35.214
86.12,-237.209,-35.283
86.15,-238.718,-35.73
86.18,-240.858,-36.303
86.22,-242.332,-36.807
86.25,-243.28,-37.357
86.28,-245.0,-37.964
86.31,-247.737,-38.273
86.35,-249.527,-38.388
86.38,-250.72,-38.731
86.41,-252.615,-38.937
86.44,-254.721,-39.075
86.48,-256.335,-39.338
86.51,-257.95,-39.625
86.54,-259.599,-39.774
86.57,-260.793,-39.911
86.61,-261.986,-39.98
86.64,-263.004,-40.003
86.67,-264.162,-40.186
86.7,-265.671,-40.381
86.74,-267.215,-40.702
86.77,-268.478,-40.793
86.8,-269.18,-40.965
86.83,-270.303,-41.343
86.87,-271.848,-41.503
86.9,-273.076,-41.549
86.93,-273.602,-41.629
86.96,-274.655,-41.962
87.0,-276.515,-41.801
87.03,-277.568,-41.973
87.06,-278.761,-42.477
87.09,-280.235,-42.374
87.13,-280.727,-42.34
87.16,-280.692,-42.672
87.19,-280.797,-42.993
87.22,-281.534,-43.096
87.26,-282.201,-43.119
87.29,-282.446,-43.451
87.32,-283.113,-43.646
87.35,-283.569,-43.52
87.39,-283.569,-43.543
87.42,-283.64,-43.474
87.45,-283.78,-43.291
87.48,-283.92,-43.348
87.52,-283.85,-43.611
87.55,-283.955,-43.703
87.58,-284.482,-43.531
87.61,-284.763,-43.394
87.65,-284.517,-43.405
87.68,-284.201,-43.268
87.71,-284.061,-43.016
87.74,-283.955,-42.844
87.78,-283.675,-42.683
87.81,-283.148,-42.5
87.84,-282.306,-42.477
87.88,-281.639,-42.431
87.91,-281.007,-42.134
87.94,-280.06,-41.847
87.97,-279.463,-41.687
88.01,-279.112,-41.412
88.04,-278.024,-41.24
88.07,-277.077,-41.229
88.1,-276.024,-41.068
88.14,-273.988,-40.942
88.17,-272.409,-40.85
88.2,-271.602,-40.621
88.23,-270.303,-40.289
88.27,-268.233,-40.301
88.3,-267.075,-40.461
88.33,-266.548,-40.232
88.36,-264.899,-39.923
88.4,-262.653,-39.819
88.43,-261.003,-39.556
88.46,-259.634,-39.018
88.49,-257.915,-38.559
88.53,-256.335,-38.307
88.56,-254.826,-37.861
88.59,-252.686,-37.368
88.62,-250.404,-37.105
88.66,-248.65,-36.864
88.69,-247.176,-36.429
88.72,-245.386,-36.074
88.75,-243.21,-35.97
88.79,-241.56,-35.913
88.82,-240.121,-35.638
88.85,-238.683,-35.558
88.88,-237.56,-35.661
88.92,-236.156,-35.375
88.95,-233.839,-34.928
88.98,-231.734,-34.596
89.01,-230.646,-34.126
89.05,-228.821,-33.576
89.08,-226.083,-33.244
89.11,-223.592,-33.015
89.14,-222.012,-32.557
89.18,-220.433,-31.927
89.21,-218.047,-31.549
89.24,-215.765,-31.388
89.27,-213.625,-31.079
89.31,-211.449,-30.896
89.34,-209.869,-30.701
89.37,-208.044,-30.46
89.4,-205.798,-30.277
89.44,-203.938,-30.059
89.47,-202.605,-29.509
89.5,-200.534,-28.96
89.54,-197.937,-28.696
89.57,-196.182,-28.513
89.6,-194.778,-28.112
89.63,-192.603,-27.814
89.67,-190.392,-27.654
89.7,-188.321,-27.264
89.73,-186.145,-26.772
89.76,-183.653,-26.451
89.8,-181.793,-26.027
89.83,-179.407,-25.546
89.86,-176.704,-25.328
89.89,-174.879,-24.973
89.93,-172.949,-24.423
89.96,-170.212,-23.896
89.99,-167.439,-23.518
90.02,-165.228,-23.049
90.06,-162.631,-22.636
90.09,-159.753,-22.43
90.12,-157.332,-22.052
90.15,-155.051,-21.628
90.19,-152.103,-21.101
90.22,-148.769,-20.62
90.25,-145.47,-20.07
90.28,-142.487,-19.623
90.32,-139.609,-18.902
90.35,-136.099,-18.317
90.38,-132.695,-17.871
90.41,-129.782,-17.412
90.45,-126.694,-16.885
90.48,-123.5,-16.439
90.51,-120.482,-15.958
90.54,-117.043,-15.419
90.58,-113.744,-14.961
90.61,-110.69,-14.514
90.64,-107.707,-14.079
90.67,-104.478,-13.655
90.71,-101.215,-13.346
90.74,-98.302,-12.91
90.77,-95.178,-12.315
90.8,-91.739,-11.776
90.84,-88.721,-11.272
90.87,-85.913,-10.688
90.9,-82.684,-10.173
90.93,-79.35,-9.749
90.97,-76.016,-9.279
91.0,-72.366,-8.752
91.03,-68.787,-8.328
91.06,-65.909,-7.904
91.1,-63.171,-7.343
91.13,-59.908,-6.85
91.16,-56.152,-6.392
91.19,-52.748,-5.991
91.23,-50.362,-5.934
91.26,-48.256,-5.625
91.29,-44.922,-5.224
91.33,-41.237,-4.857
91.36,-38.219,-4.605
91.39,-37.587,-5.201
91.42,-38.078,-5.762
91.46,-33.2,-3.299
91.49,-21.513,-0.859
91.52,-13.898,-0.069
91.55,-7.265,1.146
91.59,-0.386,1.294
91.62,1.614,2.99
91.65,8.002,4.651
91.68,11.967,4.273
91.72,11.792,4.903
91.75,13.371,6.701
91.78,16.389,6.003
91.81,15.407,5.109
91.85,16.916,7.48
91.88,25.725,9.565
91.91,33.025,9.359
91.94,33.235,9.325
91.98,34.288,10.482
92.01,40.851,10.344
92.04,45.834,9.256
92.07,45.869,9.794
92.11,48.361,11.513
92.14,55.661,11.834
92.17,60.364,11.032
92.2,60.399,11.582
92.24,63.663,13.036
92.27,71.384,12.853
92.3,74.893,11.868
92.33,74.261,12.532
92.37,77.525,13.815
92.4,83.527,13.735
92.43,85.597,13.46
92.46,85.808,14.652
92.5,90.581,15.843
92.53,96.547,15.58
92.56,97.951,15.396
92.59,98.618,16.347
92.63,102.689,17.149
92.66,107.286,17.034
92.69,108.936,17.309
92.72,110.725,18.512
92.76,115.112,19.28
92.79,119.113,19.291
92.82,120.973,19.532
92.85,123.079,20.242
92.89,126.764,20.826
92.92,130.309,21.044
92.95,132.835,21.399
92.98,135.362,22.04
93.02,138.942,22.556
93.05,142.276,22.819
93.08,144.592,23.301
93.12,147.365,23.908
93.15,150.839,24.274
93.18,153.998,24.423
93.21,156.384,24.79
93.25,158.911,25.385
93.28,162.105,25.764
93.31,165.123,25.878
93.34,167.299,26.164
93.38,169.685,26.588
93.41,172.739,26.863
93.44,175.511,27.024
93.47,177.477,27.516
93.51,180.038,28.272
93.54,183.688,28.65
93.57,186.426,28.57
93.6,187.373,28.673
93.64,188.777,29.166
93.67,190.532,28.524
93.7,187.9,26.428
93.73,182.846,25.672
93.77,182.811,26.004
93.8,185.689,25.592
93.83,185.654,25.546
93.86,184.776,26.669
93.9,186.566,27.539
93.93,189.83,28.066
93.96,193.094,29.109
93.99,196.568,30.77
94.03,200.569,32.018
94.06,204.465,32.763
94.09,208.115,33.691
94.12,211.659,34.55
94.16,214.993,34.882
94.19,218.082,34.871
94.22,220.784,35.008
94.25,223.732,35.432
94.29,227.066,35.753
94.32,229.628,35.948
94.35,231.839,36.291
94.38,234.05,36.566
94.42,236.296,36.692
94.45,238.542,36.818
94.48,240.262,36.864
94.51,241.701,37.07
94.55,243.526,37.345
94.58,245.631,37.528
94.61,247.597,37.666
94.64,249.246,37.883
94.68,250.79,38.044
94.71,252.299,38.239
94.74,253.668,38.743
94.77,255.739,39.121
94.81,257.845,39.247
94.84,259.459,39.487
94.87,261.214,39.762
94.91,262.793,39.545
94.94,263.039,39.545
94.97,263.951,39.991
95.0,265.987,39.991
95.04,267.531,39.888
95.07,268.513,40.381
95.1,269.601,40.805
95.13,269.742,41.412
95.17,270.444,42.007
95.2,271.532,42.145
95.23,272.269,42.408
95.26,273.392,42.798
95.3,274.936,43.004
95.33,276.445,43.096
95.36,277.428,43.497
95.39,278.656,43.783
95.43,279.814,43.611
95.46,279.99,43.691
95.49,280.867,43.909
95.52,282.13,43.52
95.56,282.306,43.577
95.59,283.078,43.978
95.62,284.341,43.806
95.65,284.692,43.554
95.69,284.341,43.726
95.72,284.763,43.669
95.75,285.114,43.302
95.78,284.798,43.038
95.82,284.868,42.947
95.85,285.254,42.786
95.88,284.868,42.729
95.91,284.131,42.855
95.95,284.096,42.878
95.98,284.166,42.626
96.01,283.183,42.477
96.04,282.236,42.672
96.08,283.008,42.764
96.11,283.745,42.477
96.14,282.657,42.512
96.17,281.85,42.775
96.21,282.025,42.523
96.24,281.499,42.065
96.27,279.323,42.145
96.3,277.744,42.489
96.34,277.708,42.386
96.37,277.428,42.134
96.4,276.234,42.134
96.43,275.287,42.053
96.47,274.129,41.584
96.5,272.023,41.251
96.53,270.303,41.148
96.57,269.461,40.873
96.6,268.443,40.598
96.63,266.934,40.53
96.66,265.46,40.495
96.7,264.337,40.232
96.73,263.284,39.865
96.76,261.951,39.499
96.79,260.161,39.189
96.83,258.546,38.88
96.86,257.072,38.617
96.89,255.809,38.365
96.92,254.475,37.964
96.96,252.756,37.505
96.99,250.439,37.242
97.02,248.299,37.105
97.05,246.825,36.875
97.09,245.702,36.566
97.12,244.263,36.291
97.15,242.438,36.074
97.18,240.753,35.799
97.22,238.998,35.386
97.25,236.823,35.065
97.28,234.927,34.745
97.31,232.962,34.367
97.35,231.137,34.115
97.38,229.453,33.828
97.41,227.277,33.496
97.44,224.855,33.611
97.48,223.416,33.645
97.51,221.907,33.107
97.54,219.099,32.625
97.57,216.818,32.488
97.61,215.625,32.202
97.64,213.87,31.732
97.67,211.343,31.445
97.7,209.062,31.239
97.74,207.343,30.93
97.77,205.342,30.483
97.8,202.991,30.059
97.83,200.639,29.75
97.87,198.849,29.487
97.9,197.27,29.143
97.93,195.305,28.879
97.96,193.34,28.708
98.0,191.795,28.375
98.03,189.655,27.848
98.06,186.777,27.321
98.09,184.425,27.127
98.13,183.302,26.68
98.16,180.811,25.97
98.19,177.477,25.741
98.22,175.441,25.477
98.26,173.405,24.87
98.29,170.247,24.389
98.32,167.404,24.125
98.36,165.369,23.53
98.39,162.491,22.9
98.42,159.508,22.693
98.45,157.262,22.384
98.49,154.98,21.811
98.52,151.997,21.284
98.55,148.909,20.929
98.58,146.242,20.345
98.62,142.838,19.532
98.65,138.977,18.902
98.68,135.538,18.581
98.71,132.835,18.214
98.75,130.309,17.71
98.78,127.431,17.286
98.81,124.658,16.851
98.84,121.64,16.301
98.88,118.411,15.774
98.91,114.937,15.293
98.94,111.743,14.881
98.97,108.795,14.423
99.01,105.707,13.941
99.04,102.408,13.529
99.07,99.214,13.094
99.1,95.915,12.578
99.14,92.827,12.005
99.17,90.089,11.226
99.2,86.51,10.654
99.23,83.0,10.367
99.27,79.736,9.989
99.3,76.508,9.405
99.33,72.823,8.867
99.36,69.173,8.385
99.4,65.839,7.881
99.43,62.68,7.251
99.46,59.171,6.679
99.49,55.661,6.266
99.53,52.257,5.831
99.56,48.256,5.327
99.59,44.009,5.018
99.62,40.465,4.651
99.66,37.587,4.078
99.69,34.639,4.021
99.72,34.007,5.247
99.75,34.499,5.361
99.79,28.813,2.772
99.82,19.337,1.718
99.85,14.986,1.512
99.88,10.95,0.241
99.92,3.86,0.321
99.95,0.07,0.596
99.98,-0.667,-0.836
100.01,-1.439,-2.566
100.05,-4.527,-3.127
100.08,-7.791,-3.712
100.11,-10.283,-5.006
100.15,-13.266,-6.289
100.18,-17.863,-7.343
100.21,-22.987,-8.042
100.24,-26.743,-8.569
100.28,-29.761,-9.325
100.31,-34.288,-10.058
100.34,-39.412,-10.138
100.37,-42.535,-10.069
100.41,-44.641,-10.459
100.44,-49.028,-10.848
100.47,-54.292,-10.562
100.5,-56.96,-10.47
100.54,-59.1,-11.295
100.57,-63.663,-11.673
100.6,-67.418,-11.238
100.63,-68.295,-11.57
100.67,-70.261,-12.773
100.7,-75.034,-13.346
100.73,-78.894,-13.346
100.76,-80.579,-13.964
100.8,-83.562,-15.053
100.83,-88.791,-15.328
100.86,-92.23,-15.133
100.89,-93.774,-15.671
100.93,-97.179,-16.427
100.96,-101.741,-16.496
100.99,-104.584,-16.507
101.02,-106.303,-17.183
101.06,-109.357,-18.077
101.09,-113.393,-18.501
101.12,-115.99,-18.936
101.15,-118.236,-19.658
101.19,-121.64,-20.253
101.22,-124.904,-20.689
101.25,-127.536,-21.158
101.28,-130.975,-21.811
101.32,-135.081,-22.109
101.35,-138.486,-22.327
101.38,-141.364,-22.705
101.41,-144.382,-23.003
101.45,-147.4,-23.117
101.48,-149.821,-23.22
101.51,-151.822,-23.644
101.54,-154.384,-24.297
101.58,-157.683,-24.675
101.61,-159.999,-25.122
101.64,-162.561,-25.809
101.67,-165.79,-26.302
101.71,-168.843,-26.554
101.74,-171.405,-26.669
101.77,-173.827,-26.978
101.81,-176.74,-27.356
101.84,-180.003,-27.722
101.87,-182.741,-27.894
101.9,-184.285,-28.1
101.94,-186.215,-28.478
101.97,-188.847,-28.799
102.0,-191.234,-29.005
102.03,-192.392,-29.223
102.07,-194.147,-29.773
102.1,-197.481,-30.105
102.13,-199.902,-30.128
102.16,-200.218,-30.46
102.2,-201.306,-31.182
102.23,-204.71,-31.354
102.26,-207.097,-31.216
102.29,-207.658,-31.571
102.33,-209.554,-32.282
102.36,-213.063,-32.454
102.39,-215.414,-32.305
102.42,-215.836,-32.671
102.46,-217.204,-33.393
102.49,-220.293,-33.519
102.52,-222.398,-33.439
102.55,-223.135,-33.771
102.59,-224.644,-34.435
102.62,-227.417,-34.55
102.65,-230.014,-34.71
102.68,-232.014,-35.26
102.72,-234.05,-35.776
102.75,-235.77,-35.776
102.78,-236.998,-35.833
102.81,-238.858,-36.177
102.85,-241.385,-36.532
102.88,-243.28,-36.852
102.91,-244.719,-37.116
102.94,-246.579,-37.334
102.98,-248.86,-37.437
103.01,-250.475,-37.54
103.04,-251.176,-37.849
103.07,-252.615,-38.181
103.11,-254.51,-38.422
103.14,-255.107,-38.972
103.17,-256.23,-39.762
103.2,-258.441,-40.094
103.24,-260.02,-40.117
103.27,-260.582,-40.484
103.3,-261.81,-40.908
103.33,-263.46,-40.759
103.37,-264.583,-40.885
103.4,-265.987,-41.469
103.43,-267.847,-41.721
103.46,-269.145,-41.813
103.5,-270.514,-42.03
103.53,-272.269,-41.95
103.56,-273.602,-41.698
103.6,-274.059,-42.03
103.63,-275.252,-42.557
103.66,-276.936,-42.489
103.69,-277.919,-42.592
103.73,-278.796,-42.981
103.76,-279.955,-42.924
103.79,-280.692,-42.683
103.82,-280.692,-42.878
103.86,-281.078,-43.165
103.89,-282.13,-43.142
103.92,-283.113,-43.004
103.95,-283.675,-43.119
103.99,-284.482,-43.061
104.02,-284.763,-42.901
104.05,-284.938,-42.764
104.08,-285.008,-42.351
104.12,-284.727,-42.695
104.15,-284.622,-43.016
104.18,-283.745,-42.844
104.21,-283.289,-43.359
104.25,-284.552,-43.623
104.28,-284.482,-43.302
104.31,-283.183,-43.439
104.34,-282.587,-43.256
104.38,-282.271,-43.038
104.41,-281.955,-43.107
104.44,-281.885,-43.256
104.47,-281.639,-43.13
104.51,-280.972,-43.038
104.54,-280.27,-42.924
104.57,-279.919,-42.66
104.6,-279.498,-42.317
104.64,-278.796,-42.088
104.67,-277.989,-42.076
104.7,-277.673,-41.985
104.73,-277.182,-41.607
104.77,-275.638,-41.435
104.8,-274.374,-41.251
104.83,-273.567,-40.747
104.86,-271.707,-40.358
104.9,-270.338,-40.22
104.93,-269.672,-39.934
104.96,-268.338,-39.613
104.99,-266.618,-39.567
105.03,-265.776,-39.338
105.06,-264.302,-38.777
105.09,-262.161,-38.33
105.12,-260.02,-38.044
105.16,-257.739,-37.918
105.19,-256.125,-37.964
105.22,-255.072,-37.849
105.25,-253.423,-37.597
105.29,-251.247,-37.448
105.32,-249.527,-37.265
105.35,-248.123,-36.921
105.39,-246.649,-36.669
105.42,-245.175,-36.497
105.45,-243.701,-36.337
105.48,-241.982,-35.948
105.52,-239.911,-35.65
105.55,-238.191,-35.466
105.58,-236.507,-34.951
105.61,-234.085,-34.435
105.65,-231.874,-34.16
105.68,-230.435,-33.863
105.71,-228.996,-33.404
105.74,-226.855,-32.958
105.78,-224.574,-32.728
105.81,-222.89,-32.339
105.84,-220.889,-31.869
105.87,-218.573,-31.583
105.91,-216.327,-31.136
105.94,-214.362,-30.93
105.97,-212.923,-30.724
106.0,-211.133,-30.472
106.04,-209.062,-30.266
106.07,-207.062,-30.025
106.1,-204.991,-29.727
106.13,-202.78,-29.418
106.17,-200.674,-29.143
106.2,-198.885,-28.788
106.23,-196.849,-28.559
106.26,-194.814,-28.41
106.3,-193.234,-28.135
106.33,-191.62,-27.596
106.36,-188.988,-27.104
106.39,-186.285,-26.795
106.43,-184.215,-26.394
106.46,-182.46,-25.729
106.49,-180.038,-25.202
106.52,-177.477,-24.893
106.56,-175.09,-24.492
106.59,-172.037,-24.08
106.62,-168.773,-23.782
106.65,-166.597,-23.472
106.69,-164.772,-22.808
106.72,-161.719,-22.178
106.75,-158.42,-21.914
106.78,-156.314,-21.777
106.82,-154.103,-20.952
106.85,-150.734,-20.391
106.88,-147.61,-20.082
106.91,-144.838,-19.578
106.95,-142.03,-19.131
106.98,-138.731,-18.512
107.01,-135.503,-18.214
107.04,-132.906,-17.79
107.08,-130.414,-17.172
107.11,-127.29,-16.599
107.14,-123.851,-16.221
107.18,-120.482,-15.854
107.21,-117.709,-15.35
107.24,-114.867,-14.743
107.27,-111.638,-14.228
107.31,-108.339,-13.77
107.34,-105.075,-13.311
107.37,-102.127,-12.796
107.4,-98.828,-12.212
107.44,-95.354,-11.719
107.47,-92.23,-11.204
107.5,-89.317,-10.585
107.53,-85.843,-10.012
107.57,-82.333,-9.714
107.6,-79.561,-9.302
107.63,-76.437,-8.752
107.66,-72.331,-8.305
107.7,-68.365,-8.076
107.73,-65.453,-7.561
107.76,-62.61,-6.976
107.79,-59.346,-6.656
107.83,-56.468,-6.53
107.86,-54.082,-6.152
107.89,-51.028,-5.464
107.92,-47.098,-4.777
107.96,-42.676,-4.273
107.99,-38.885,-3.769
108.02,-36.043,-3.505
108.05,-35.095,-4.376
108.09,-34.253,-4.846
108.12,-28.287,-2.085
108.15,-17.899,-0.218
108.18,-11.757,-0.16
108.22,-6.212,0.344
108.25,-0.597,0.252
108.28,0.456,0.939
108.31,1.404,2.314
108.35,3.966,2.738
108.38,6.668,3.082
108.41,9.476,4.674
108.44,12.599,5.854
108.48,15.021,6.369
108.51,18.671,7.469
108.54,24.146,8.58
108.57,29.164,8.981
108.61,31.831,9.439
108.64,34.639,10.218
108.67,38.991,10.287
108.7,42.886,9.932
108.74,45.799,10.058
108.77,49.168,10.608
108.8,53.45,10.917
108.84,57.205,11.043
108.87,60.645,11.238
108.9,64.189,11.467
108.93,67.874,11.662
108.97,70.576,11.96
109.0,72.823,12.521
109.03,75.385,13.117
109.06,79.034,13.552
109.1,83.07,13.747
109.13,85.948,14.171
109.16,88.931,14.789
109.19,92.792,15.041
109.23,96.231,15.064
109.26,98.547,15.396
109.29,100.758,16.095
109.32,103.706,16.725
109.36,106.795,17.195
109.39,109.743,17.687
109.42,112.761,18.432
109.45,116.095,19.119
109.49,119.464,19.555
109.52,122.588,19.887
109.55,125.044,20.391
109.58,128.448,20.964
109.62,132.133,21.261
109.65,134.906,21.582
109.68,137.328,22.189
109.71,140.802,22.648
109.75,144.698,23.026
109.78,147.54,23.358
109.81,150.278,23.782
109.84,153.085,24.125
109.88,155.753,24.32
109.91,158.139,24.71
109.94,160.947,25.237
109.97,164.105,25.592
110.01,166.878,25.786
110.04,168.668,26.21
110.07,170.984,26.749
110.1,174.072,26.921
110.14,176.845,26.943
110.17,178.845,27.321
110.2,181.442,27.791
110.23,184.039,27.768
110.27,184.917,27.516
110.3,185.233,27.539
110.33,186.601,27.654
110.36,188.777,27.803
110.4,190.567,28.158
110.43,192.181,28.937
110.46,194.638,29.75
110.49,197.937,30.22
110.53,200.359,30.552
110.56,202.429,31.159
110.59,205.096,31.755
110.63,208.36,32.167
110.66,211.624,32.385
110.69,213.976,32.591
110.72,216.046,32.958
110.76,218.678,33.267
110.79,221.1,33.278
110.82,222.433,33.336
110.85,223.416,33.622
110.89,225.452,33.851
110.92,228.294,33.759
110.95,229.488,33.782
110.98,230.084,34.55
111.02,232.751,35.02
111.05,234.752,34.813
111.08,235.033,35.134
111.11,236.436,35.925
111.15,239.665,36.108
111.18,241.139,36.039
111.21,241.736,36.681
111.24,243.666,37.345
111.28,246.123,37.528
111.31,247.632,37.62
111.34,249.001,38.044
111.37,251.106,38.422
111.41,253.352,38.525
111.44,254.756,38.674
111.47,255.984,39.178
111.5,258.617,39.396
111.54,260.406,39.247
111.57,261.073,39.487
111.6,262.688,39.716
111.63,264.548,39.338
111.67,265.215,39.407
111.7,266.232,40.037
111.73,267.917,40.175
111.76,269.075,40.22
111.8,270.338,40.564
111.83,271.742,40.69
111.86,273.076,40.621
111.89,274.094,40.782
111.93,275.146,40.976
111.96,276.129,41.171
111.99,277.463,41.32
112.02,278.551,41.469
112.06,279.463,41.618
112.09,279.639,41.859
112.12,278.796,42.592
112.15,279.323,43.176
112.19,280.516,43.107
112.22,281.007,43.165
112.25,281.148,43.829
112.28,282.341,43.978
112.32,283.253,43.6
112.35,283.359,43.611
112.38,283.85,43.691
112.42,284.201,43.462
112.45,284.377,43.382
112.48,284.692,43.451
112.51,285.324,43.646
112.55,285.5,43.588
112.58,284.973,43.428
112.61,285.008,43.291
112.64,284.798,42.993
112.68,284.131,43.027
112.71,283.534,42.867
112.74,283.289,42.821
112.77,283.64,42.89
112.81,283.675,42.832
112.84,282.481,42.764
112.87,281.744,42.741
112.9,281.885,42.397
112.94,281.113,41.996
112.97,279.604,41.836
113.0,279.007,41.778
113.03,279.112,41.297
113.07,277.463,40.954
113.1,274.936,41.103
113.13,273.532,41.034
113.16,272.585,40.633
113.2,271.005,40.45
113.23,269.145,40.53
113.26,268.268,40.461
113.29,267.285,40.163
113.33,265.706,40.037
113.36,264.478,39.945
113.39,263.249,39.659
113.42,261.74,39.315
113.46,260.056,39.018
113.49,258.862,38.64
113.52,257.599,38.158
113.55,255.669,37.861
113.59,253.879,37.597
113.62,252.229,37.127
113.65,250.018,36.612
113.68,247.491,36.337
113.72,245.491,36.154
113.75,244.157,35.856
113.78,242.438,35.524
113.81,240.472,35.466
113.85,238.998,35.26
113.88,237.244,34.962
113.91,235.524,34.756
113.94,233.945,34.367
113.98,232.085,33.874
114.01,229.944,33.519
114.04,227.943,33.278
114.07,226.013,32.946
114.11,223.907,32.568
114.14,221.767,32.339
114.17,219.942,31.984
114.21,217.696,31.606
114.24,215.344,31.411
114.27,213.695,31.148
114.3,212.221,30.793
114.34,210.291,30.586
114.37,208.395,30.38
114.4,206.676,30.117
114.43,204.816,29.739
114.47,202.499,29.429
114.5,200.464,29.223
114.53,198.99,28.937
114.56,197.34,28.593
114.6,195.235,28.467
114.63,193.655,28.272
114.66,192.146,27.803
114.69,189.935,27.276
114.73,187.303,26.863
114.76,184.987,26.439
114.79,182.951,25.901
114.82,180.67,25.443
114.86,178.178,25.156
114.89,175.616,24.847
114.92,173.09,24.377
114.95,170.457,23.839
114.99,167.474,23.358
115.02,164.842,22.877
115.05,162.175,22.419
115.08,159.332,22.109
115.12,156.981,21.892
115.15,154.559,21.239
115.18,151.717,20.666
115.21,148.523,20.23
115.25,145.154,19.715
115.28,142.136,19.417
115.31,139.223,18.867
115.34,136.099,18.409
115.38,133.221,18.077
115.41,130.695,17.584
115.44,127.817,16.931
115.47,124.097,16.473
115.51,121.008,16.118
115.54,118.341,15.534
115.57,114.832,14.949
115.6,111.111,14.652
115.64,108.058,14.365
115.67,105.145,13.861
115.7,101.881,13.3
115.73,98.793,12.727
115.77,95.599,12.143
115.8,92.511,11.582
115.83,89.493,10.894
115.87,85.913,10.31
115.9,82.298,9.898
115.93,79.385,9.416
115.96,76.227,8.809
116.0,72.507,8.408
116.03,68.611,8.259
116.06,65.558,7.916
116.09,62.364,7.228
116.13,58.609,6.805
116.16,55.099,6.553
116.19,52.467,6.083
116.22,49.414,5.315
116.26,45.378,4.777
116.29,41.553,4.422
116.32,38.394,3.918
116.35,35.657,3.757
116.39,34.814,4.788
116.42,35.376,5.258
116.45,30.287,2.864
116.48,20.425,1.432
116.52,14.705,1.386
116.55,10.985,0.183
116.58,4.106,0.011
116.61,0.211,0.424
