Trigger_Date,2023/09/13
Trigger_Time,T 08:33:01.423 PDT
Samples_Per_Cycle,512
Microseconds_Per_Sample,32.535
Time (ms),Voltage (V),Current (A)
-16.66,-0.597,-0.71
-16.63,-0.983,-1.97
-16.59,-4.036,-2.933
-16.56,-8.388,-3.735
-16.53,-11.862,-4.926
-16.5,-14.284,-6.094
-16.46,-17.232,-6.828
-16.43,-21.408,-7.48
-16.4,-26.321,-8.374
-16.36,-31.059,-9.096
-16.33,-34.744,-9.611
-16.3,-39.166,-10.195
-16.27,-44.08,-10.768
-16.23,-47.343,-10.425
-16.2,-48.431,-10.161
-16.17,-50.677,-10.734
-16.14,-55.099,-10.848
-16.1,-58.223,-10.619
-16.07,-59.416,-11.204
-16.04,-61.873,-11.753
-16.01,-65.382,-12.051
-15.97,-68.752,-12.624
-15.94,-71.875,-13.403
-15.91,-75.034,-13.987
-15.88,-78.157,-14.526
-15.84,-81.631,-15.19
-15.81,-85.597,-15.9
-15.78,-89.949,-16.427
-15.75,-93.985,-16.714
-15.71,-97.495,-16.977
-15.68,-100.583,-17.264
-15.65,-104.057,-17.47
-15.62,-107.777,-17.55
-15.58,-110.76,-17.939
-15.55,-113.533,-18.512
-15.52,-116.586,-19.062
-15.49,-119.604,-19.555
-15.45,-122.868,-19.978
-15.42,-126.167,-20.414
-15.39,-129.782,-20.677
-15.36,-132.73,-20.815
-15.32,-135.117,-21.239
-15.29,-138.345,-21.605
-15.26,-141.609,-21.937
-15.23,-143.925,-22.315
-15.19,-145.926,-22.774
-15.16,-148.979,-23.266
-15.13,-152.629,-23.667
-15.1,-155.542,-23.965
-15.06,-157.858,-24.481
-15.03,-161.122,-25.053
-15.0,-164.561,-25.374
-14.97,-167.439,-25.66
-14.93,-169.826,-26.038
-14.9,-172.493,-26.405
-14.87,-175.195,-26.657
-14.84,-177.687,-26.966
-14.8,-180.179,-27.574
-14.77,-183.372,-28.1
-14.74,-186.356,-28.352
-14.71,-188.426,-28.582
-14.67,-190.392,-28.799
-14.64,-192.532,-28.845
-14.61,-194.287,-28.948
-14.58,-196.007,-29.177
-14.54,-197.902,-29.544
-14.51,-200.394,-29.876
-14.48,-202.605,-30.162
-14.45,-204.359,-30.414
-14.41,-206.044,-30.655
-14.38,-207.799,-30.815
-14.35,-209.975,-31.01
-14.32,-212.08,-31.308
-14.28,-214.151,-31.697
-14.25,-215.906,-32.19
-14.22,-217.836,-32.671
-14.19,-220.363,-32.992
-14.15,-222.609,-33.187
-14.12,-224.083,-33.439
-14.09,-225.627,-33.702
-14.06,-228.084,-34.092
-14.02,-231.032,-34.39
-13.99,-233.524,-34.779
-13.96,-235.594,-35.272
-13.92,-237.419,-35.535
-13.89,-238.963,-35.627
-13.86,-240.578,-35.741
-13.83,-242.859,-35.913
-13.79,-244.543,-36.2
-13.76,-245.526,-36.841
-13.73,-247.211,-37.414
-13.7,-249.702,-37.792
-13.66,-252.194,-38.124
-13.63,-253.738,-38.456
-13.6,-254.756,-38.651
-13.57,-256.371,-38.8
-13.53,-258.546,-38.926
-13.5,-260.406,-39.041
-13.47,-261.635,-39.155
-13.44,-262.582,-39.338
-13.4,-263.881,-39.384
-13.37,-264.793,-39.315
-13.34,-265.53,-39.315
-13.31,-266.338,-39.338
-13.27,-267.285,-39.487
-13.24,-268.654,-39.785
-13.21,-270.163,-40.163
-13.18,-271.602,-40.644
-13.14,-273.041,-40.976
-13.11,-274.059,-41.148
-13.08,-275.111,-41.343
-13.05,-276.726,-41.32
-13.01,-278.235,-41.251
-12.98,-279.428,-41.618
-12.95,-281.113,-41.95
-12.92,-282.411,-42.111
-12.88,-283.324,-42.294
-12.85,-284.201,-42.237
-12.82,-284.657,-42.099
-12.79,-285.043,-41.87
-12.75,-283.71,-41.893
-12.72,-282.306,-42.466
-12.69,-283.043,-42.924
-12.66,-284.412,-42.924
-12.62,-284.517,-43.016
-12.59,-284.271,-43.325
-12.56,-284.763,-43.394
-12.53,-285.184,-43.245
-12.49,-285.184,-43.371
-12.46,-285.71,-43.691
-12.43,-286.728,-43.863
-12.4,-287.675,-43.921
-12.36,-288.307,-43.932
-12.33,-288.448,-44.035
-12.3,-288.553,-43.817
-12.27,-288.167,-43.268
-12.23,-287.289,-42.935
-12.2,-286.833,-42.821
-12.17,-286.658,-42.638
-12.14,-285.921,-42.58
-12.1,-285.359,-42.615
-12.07,-285.114,-42.294
-12.04,-284.026,-41.893
-12.01,-282.727,-41.698
-11.97,-282.13,-41.435
-11.94,-281.499,-41.263
-11.91,-280.586,-41.251
-11.88,-279.393,-41.137
-11.84,-278.305,-40.85
-11.81,-277.077,-40.427
-11.78,-275.006,-39.991
-11.75,-272.514,-39.785
-11.71,-270.724,-39.693
-11.68,-269.812,-39.751
-11.65,-268.935,-39.9
-11.61,-267.601,-39.957
-11.58,-266.197,-39.877
-11.55,-264.723,-39.522
-11.52,-263.109,-39.075
-11.48,-261.6,-38.662
-11.45,-260.442,-38.376
-11.42,-259.319,-38.113
-11.39,-257.704,-37.883
-11.35,-255.949,-37.62
-11.32,-254.37,-37.265
-11.29,-252.756,-36.681
-11.26,-250.439,-36.165
-11.22,-248.158,-35.913
-11.19,-246.579,-35.627
-11.16,-245.21,-35.283
-11.13,-243.245,-35.111
-11.09,-241.174,-34.917
-11.06,-239.525,-34.596
-11.03,-237.665,-34.057
-11.0,-235.594,-33.714
-10.96,-233.769,-33.485
-10.93,-231.874,-32.992
-10.9,-229.663,-32.728
-10.87,-227.873,-32.614
-10.83,-226.154,-32.19
-10.8,-223.451,-31.766
-10.77,-220.889,-31.617
-10.74,-219.064,-31.285
-10.7,-217.274,-30.896
-10.67,-215.204,-30.735
-10.64,-213.098,-30.689
-10.61,-211.554,-30.472
-10.57,-210.01,-30.197
-10.54,-208.22,-29.979
-10.51,-206.29,-29.487
-10.48,-203.973,-28.879
-10.44,-201.517,-28.536
-10.41,-199.551,-28.295
-10.38,-197.902,-28.02
-10.35,-196.077,-27.814
-10.31,-194.077,-27.631
-10.28,-192.216,-27.264
-10.25,-190.076,-26.749
-10.22,-187.619,-26.268
-10.18,-185.127,-25.786
-10.15,-182.776,-25.294
-10.12,-180.565,-24.904
-10.09,-178.705,-24.549
-10.05,-176.073,-24.102
-10.02,-172.739,-23.69
-9.99,-169.896,-23.026
-9.96,-167.369,-22.51
-9.92,-164.702,-21.972
-9.89,-160.736,-21.078
-9.86,-157.051,-20.895
-9.83,-154.945,-20.712
-9.79,-152.769,-20.242
-9.76,-149.997,-20.024
-9.73,-147.295,-19.749
-9.7,-144.312,-19.039
-9.66,-140.627,-18.329
-9.63,-137.222,-17.813
-9.6,-134.415,-17.309
-9.57,-131.361,-16.863
-9.53,-127.957,-16.553
-9.5,-124.974,-16.152
-9.47,-122.237,-15.568
-9.44,-119.008,-15.007
-9.4,-115.604,-14.583
-9.37,-112.761,-14.09
-9.34,-110.059,-13.644
-9.3,-107.005,-13.22
-9.27,-103.215,-12.67
-9.24,-99.39,-12.143
-9.21,-96.091,-11.582
-9.17,-93.073,-11.032
-9.14,-89.774,-10.562
-9.11,-86.369,-10.15
-9.08,-83.035,-9.634
-9.04,-79.631,-9.153
-9.01,-76.437,-8.683
-8.98,-73.138,-8.294
-8.95,-69.664,-7.836
-8.91,-66.154,-7.263
-8.88,-62.645,-6.747
-8.85,-59.241,-6.369
-8.82,-55.977,-5.934
-8.78,-52.959,-5.292
-8.75,-49.309,-4.743
-8.72,-45.413,-4.479
-8.69,-41.869,-4.067
-8.65,-37.938,-3.505
-8.62,-33.937,-3.093
-8.59,-30.463,-2.635
-8.56,-26.672,-2.142
-8.52,-22.426,-1.776
-8.49,-18.355,-1.363
-8.46,-13.547,-1.1
-8.43,-9.16,-0.916
-8.39,-4.562,-0.71
-8.36,-0.632,-0.642
-8.33,0.456,0.034
-8.3,0.737,1.272
-8.26,2.071,2.577
-8.23,6.317,3.517
-8.2,10.774,4.525
-8.17,13.863,5.877
-8.13,16.389,7.148
-8.1,21.162,7.962
-8.07,26.357,8.592
-8.04,30.287,9.416
-8.0,34.077,10.081
-7.97,38.324,10.161
-7.94,41.693,10.138
-7.91,44.711,10.573
-7.87,48.326,10.963
-7.84,52.151,11.078
-7.81,55.696,11.146
-7.78,58.574,11.547
-7.74,61.346,12.051
-7.71,64.645,12.441
-7.68,68.085,12.83
-7.65,71.138,13.357
-7.61,74.648,13.724
-7.58,77.806,14.056
-7.55,80.754,14.571
-7.52,84.123,15.121
-7.48,88.089,15.465
-7.45,91.634,15.854
-7.42,94.968,16.221
-7.39,98.442,16.45
-7.35,101.811,16.714
-7.32,104.724,17.08
-7.29,107.637,17.47
-7.26,110.831,17.905
-7.22,114.024,18.409
-7.19,117.148,18.925
-7.16,120.201,19.337
-7.13,123.465,19.6
-7.09,126.273,19.841
-7.06,129.221,20.357
-7.03,132.555,20.735
-6.99,135.362,20.838
-6.96,138.17,21.514
-6.93,141.995,22.109
-6.9,145.786,22.43
-6.86,148.347,22.934
-6.83,150.769,23.541
-6.8,154.384,23.862
-6.77,158.034,24.194
-6.73,160.876,24.652
-6.7,163.368,25.076
-6.67,166.071,25.328
-6.64,168.983,25.534
-6.6,171.651,25.798
-6.57,173.827,26.061
-6.54,175.757,26.268
-6.51,177.968,26.657
-6.47,180.916,27.069
-6.44,183.934,27.367
-6.41,186.04,27.757
-6.38,187.759,28.284
-6.34,190.392,28.605
-6.31,193.375,28.685
-6.28,195.621,28.879
-6.25,197.481,29.154
-6.21,199.622,29.406
-6.18,201.727,29.567
-6.15,204.184,29.933
-6.12,206.29,30.151
-6.08,207.693,30.162
-6.05,208.852,30.22
-6.02,210.466,30.311
-5.99,212.431,30.77
-5.95,214.713,31.171
-5.92,217.029,31.606
-5.89,218.819,32.064
-5.86,220.924,32.545
-5.82,223.065,32.751
-5.79,224.96,32.958
-5.76,226.996,33.233
-5.73,229.453,33.427
-5.69,230.962,33.679
-5.66,231.804,34.241
-5.63,233.208,34.664
-5.6,234.962,34.951
-5.56,237.349,35.191
-5.53,239.63,35.398
-5.5,240.999,35.707
-5.47,242.368,36.108
-5.43,244.614,36.474
-5.4,246.895,36.761
-5.37,248.65,37.127
-5.34,250.58,37.574
-5.3,252.686,37.7
-5.27,254.054,37.769
-5.24,255.493,38.055
-5.21,257.248,38.388
-5.17,259.248,38.571
-5.14,261.073,38.869
-5.11,263.249,39.201
-5.08,265.179,39.293
-5.04,266.057,39.258
-5.01,266.759,39.384
-4.98,268.268,39.338
-4.95,269.637,39.407
-4.91,271.391,39.728
-4.88,273.006,39.888
-4.85,273.918,40.232
-4.82,274.796,40.679
-4.78,276.129,40.69
-4.75,277.217,40.518
-4.72,278.34,40.69
-4.69,279.393,40.839
-4.65,279.568,41.366
-4.62,280.27,42.088
-4.59,281.639,42.202
-4.55,282.516,42.134
-4.52,282.692,42.42
-4.49,283.64,42.443
-4.46,284.412,42.042
-4.42,284.377,42.179
-4.39,285.078,42.454
-4.36,285.991,42.386
-4.33,286.412,42.523
-4.29,287.149,42.752
-4.26,287.57,42.741
-4.23,287.746,42.615
-4.2,287.991,42.626
-4.16,287.956,42.512
-4.13,287.991,42.546
-4.1,288.237,42.5
-4.07,288.167,42.351
-4.03,287.991,42.099
-4.0,287.325,41.79
-3.97,286.201,41.538
-3.94,285.535,41.24
-3.9,285.359,41.022
-3.87,285.324,41.171
-3.84,285.324,41.355
-3.81,285.219,41.355
-3.77,284.201,41.286
-3.74,282.166,41.389
-3.71,280.867,41.423
-3.68,280.797,41.251
-3.64,280.692,41.034
-3.61,279.604,41.16
-3.58,278.656,41.309
-3.55,277.708,41.16
-3.51,276.48,40.919
-3.48,275.357,40.541
-3.45,274.129,40.072
-3.42,272.76,39.705
-3.38,271.532,39.545
-3.35,270.795,39.407
-3.32,269.952,39.281
-3.29,268.654,39.121
-3.25,267.145,38.846
-3.22,265.53,38.296
-3.19,263.425,37.757
-3.16,261.389,37.437
-3.12,260.02,37.139
-3.09,258.792,36.83
-3.06,256.932,36.646
-3.03,255.037,36.52
-2.99,253.598,36.245
-2.96,251.808,35.856
-2.93,249.948,35.718
-2.9,247.983,35.363
-2.86,245.631,34.871
-2.83,243.666,34.699
-2.8,242.859,34.619
-2.77,242.017,34.412
-2.73,239.665,34.069
-2.7,236.542,33.656
-2.67,234.471,33.164
-2.64,233.208,32.625
-2.6,231.488,32.328
-2.57,229.031,32.236
-2.54,226.891,32.247
-2.51,225.803,32.156
-2.47,224.995,31.904
-2.44,223.311,31.72
-2.41,221.065,31.468
-2.38,218.819,30.884
-2.34,216.994,30.472
-2.31,216.011,30.243
-2.28,214.467,29.888
-2.24,211.94,29.429
-2.21,209.097,28.994
-2.18,206.921,28.57
-2.15,205.132,28.135
-2.11,203.096,27.768
-2.08,200.359,27.39
-2.05,197.2,27.024
-2.02,194.743,26.634
-1.98,192.673,26.119
-1.95,189.9,25.569
-1.92,186.285,24.996
-1.89,182.916,24.526
-1.85,180.389,24.057
-1.82,177.968,23.69
-1.79,175.441,23.61
-1.76,173.686,23.633
-1.72,172.282,23.576
-1.69,170.598,23.495
-1.66,168.352,23.289
-1.63,166.702,23.163
-1.59,165.544,22.785
-1.56,162.666,21.64
-1.53,157.718,20.826
-1.5,153.857,20.391
-1.46,152.875,20.15
-1.43,151.401,19.429
-1.4,147.049,18.902
-1.37,142.908,18.684
-1.33,140.03,17.756
-1.3,137.152,17.172
-1.27,133.678,16.576
-1.24,129.852,16.084
-1.2,126.729,15.763
-1.17,123.921,15.236
-1.14,120.517,14.846
-1.11,117.183,14.686
-1.07,114.726,14.377
-1.04,112.199,13.941
-1.01,109.146,13.735
-0.98,106.093,13.472
-0.94,103.145,13.025
-0.91,100.337,12.521
-0.88,97.214,11.845
-0.85,93.283,11.112
-0.81,89.809,10.516
-0.78,86.966,9.863
-0.75,83.983,9.199
-0.72,80.263,8.706
-0.68,76.472,8.408
-0.65,73.419,8.076
-0.62,70.401,7.698
-0.59,66.751,7.389
-0.55,63.206,7.011
-0.52,59.557,6.518
-0.49,55.872,6.026
-0.46,52.432,5.59
-0.42,49.414,5.109
-0.39,46.291,4.559
-0.36,42.606,3.987
-0.33,38.71,3.482
-0.29,35.411,2.956
-0.26,31.937,2.303
-0.23,27.725,1.799
-0.2,22.812,1.489
-0.16,18.495,1.203
-0.13,14.354,0.882
-0.1,9.756,0.768
-0.07,4.843,0.825
-0.03,0.842,0.894
0.0,-0.175,0.355
0.03,-0.491,-0.642
0.07,-0.948,-1.867
0.1,-4.036,-2.807
0.13,-8.528,-3.689
0.16,-12.564,-5.121
0.2,-15.793,-6.61
0.23,-19.759,-7.732
0.26,-25.023,-8.489
0.29,-30.322,-9.222
0.33,-34.92,-9.909
0.36,-38.815,-10.321
0.39,-42.57,-10.573
0.42,-46.08,-10.745
0.46,-49.203,-10.906
0.49,-52.643,-10.929
0.52,-56.398,-10.986
0.55,-60.188,-11.135
0.59,-63.242,-11.272
0.62,-65.523,-11.685
0.65,-68.646,-12.246
0.68,-72.542,-12.613
0.72,-75.42,-13.094
0.75,-78.157,-14.056
0.78,-82.193,-14.72
0.81,-86.018,-15.156
0.85,-89.282,-15.763
0.88,-92.3,-16.37
0.91,-95.705,-16.656
0.94,-99.179,-16.851
0.98,-102.232,-17.16
1.01,-105.461,-17.39
1.04,-108.62,-17.561
1.07,-111.322,-17.894
1.11,-114.27,-18.352
1.14,-117.78,-18.947
1.17,-121.078,-19.371
1.2,-124.026,-19.578
1.24,-126.799,-19.875
1.27,-129.256,-20.242
1.3,-131.818,-20.769
1.33,-134.976,-21.204
1.37,-138.345,-21.777
1.4,-141.293,-22.086
1.43,-143.996,-22.533
1.46,-146.979,-22.842
1.5,-150.418,-23.163
1.53,-154.033,-23.61
1.56,-157.121,-24.034
1.59,-159.683,-24.481
1.63,-162.807,-24.985
1.66,-166.316,-25.328
1.69,-169.019,-25.706
1.72,-171.159,-26.164
1.76,-174.072,-26.405
1.79,-177.055,-26.497
1.82,-179.231,-26.806
1.85,-181.688,-27.287
1.89,-184.846,-27.528
1.92,-187.338,-27.871
1.95,-189.374,-28.318
1.98,-191.655,-28.421
2.02,-193.726,-28.456
2.05,-195.621,-28.605
2.08,-197.411,-28.685
2.11,-199.306,-28.891
2.15,-201.341,-29.246
2.18,-203.447,-29.681
2.21,-205.377,-29.91
2.24,-206.711,-30.014
2.28,-207.974,-30.266
2.31,-209.483,-30.632
2.34,-211.308,-30.941
2.38,-212.993,-31.354
2.41,-214.888,-31.961
2.44,-217.134,-32.408
2.47,-219.029,-32.877
2.51,-221.275,-33.29
2.54,-223.592,-33.553
2.57,-225.066,-33.874
2.6,-226.68,-34.275
2.64,-229.031,-34.561
2.67,-231.909,-34.871
2.7,-234.717,-35.18
2.73,-236.858,-35.604
2.77,-238.998,-35.867
2.8,-241.209,-35.925
2.83,-242.578,-35.982
2.86,-243.456,-35.925
2.9,-244.93,-36.154
2.93,-247.176,-36.394
2.96,-249.422,-36.887
2.99,-251.352,-37.551
3.03,-252.931,-37.792
3.06,-253.914,-37.78
3.09,-255.844,-37.895
3.12,-258.125,-37.987
3.16,-259.669,-38.021
3.19,-260.582,-38.307
3.22,-262.126,-38.685
3.25,-263.811,-38.857
3.29,-264.056,-39.132
3.32,-264.302,-39.648
3.35,-265.952,-39.831
3.38,-267.355,-39.762
3.42,-268.092,-40.324
3.45,-269.707,-40.988
3.48,-271.988,-41.068
3.51,-273.251,-41.229
3.55,-274.234,-41.687
3.58,-275.708,-41.813
3.61,-277.252,-41.755
3.64,-278.551,-41.813
3.68,-279.288,-42.248
3.71,-280.762,-42.592
3.74,-282.201,-42.569
3.77,-283.008,-42.569
3.81,-283.569,-42.58
3.84,-284.131,-42.42
3.87,-284.763,-41.985
3.9,-284.763,-41.744
3.94,-284.833,-42.053
3.97,-285.956,-42.248
4.0,-286.377,-41.801
4.03,-285.64,-41.985
4.07,-286.166,-42.512
4.1,-287.289,-42.363
4.13,-287.114,-42.156
4.16,-286.131,-42.466
4.2,-286.026,-42.924
4.23,-286.728,-43.142
4.26,-286.833,-43.073
4.29,-286.588,-43.142
4.33,-286.623,-43.016
4.36,-286.482,-42.775
4.39,-285.745,-42.569
4.42,-285.043,-42.546
4.46,-285.359,-42.489
4.49,-285.78,-42.351
4.52,-285.043,-42.42
4.55,-283.955,-42.523
4.59,-283.394,-42.282
4.62,-283.043,-41.904
4.65,-282.13,-41.584
4.69,-280.762,-41.297
4.72,-279.919,-41.274
4.75,-279.604,-41.286
4.78,-278.621,-41.034
4.82,-276.726,-40.702
4.85,-274.866,-40.461
4.88,-273.953,-40.117
4.91,-273.146,-39.602
4.95,-271.988,-39.247
4.98,-271.075,-39.063
5.01,-269.847,-38.834
5.04,-267.952,-38.651
5.08,-266.478,-38.388
5.11,-265.144,-37.861
5.14,-263.214,-37.288
5.17,-260.231,-37.059
5.21,-257.458,-37.059
5.24,-256.09,-36.944
5.27,-255.002,-36.738
5.3,-253.212,-36.704
5.34,-250.79,-36.704
5.37,-248.93,-36.44
5.4,-247.737,-36.028
5.43,-246.965,-36.062
5.47,-245.737,-35.73
5.5,-242.894,-35.123
5.53,-239.911,-34.962
5.56,-239.42,-35.043
5.6,-239.876,-34.699
5.63,-237.665,-34.08
5.66,-233.594,-33.828
5.69,-231.172,-33.588
5.73,-230.611,-32.992
5.76,-229.242,-32.694
5.79,-227.101,-32.74
5.82,-225.171,-32.557
5.86,-223.451,-32.098
5.89,-221.732,-31.606
5.92,-219.521,-31.205
5.95,-216.748,-30.964
5.99,-214.818,-30.678
6.02,-213.414,-30.357
6.05,-211.8,-30.117
6.08,-209.799,-29.945
6.12,-207.448,-29.613
6.15,-205.237,-29.109
6.18,-203.166,-28.639
6.21,-200.99,-28.352
6.25,-198.709,-28.055
6.28,-196.498,-27.803
6.31,-194.638,-27.757
6.34,-193.34,-27.562
6.38,-191.269,-27.138
6.41,-188.531,-26.749
6.44,-186.285,-26.371
6.47,-183.934,-25.809
6.51,-181.302,-25.294
6.54,-179.196,-25.111
6.57,-178.003,-24.664
6.6,-175.546,-24.08
6.64,-172.037,-23.621
6.67,-168.773,-23.163
6.7,-166.0,-22.59
6.73,-163.719,-22.018
6.77,-161.613,-21.708
6.8,-158.911,-21.33
6.83,-155.823,-21.021
6.86,-153.191,-20.574
6.9,-150.067,-19.83
6.93,-147.224,-19.692
6.96,-144.908,-19.348
6.99,-141.118,-18.421
7.03,-136.415,-17.733
7.06,-133.116,-17.206
7.09,-131.256,-16.782
7.13,-128.484,-16.233
7.16,-124.026,-15.809
7.19,-119.815,-15.465
7.22,-117.253,-14.892
7.26,-114.902,-14.285
7.29,-111.708,-13.953
7.32,-108.199,-13.758
7.35,-105.321,-13.357
7.39,-102.899,-12.819
7.42,-99.881,-12.406
7.45,-96.056,-11.994
7.48,-92.23,-11.444
7.52,-89.037,-10.791
7.55,-86.194,-10.161
7.58,-83.07,-9.714
7.61,-79.771,-9.313
7.65,-76.578,-8.718
7.68,-73.244,-8.111
7.71,-69.629,-7.629
7.74,-66.084,-7.022
7.78,-62.154,-6.404
7.81,-58.469,-5.945
7.84,-54.994,-5.533
7.87,-51.414,-5.132
7.91,-47.8,-4.685
7.94,-44.466,-4.261
7.97,-41.167,-3.712
8.0,-36.955,-3.196
8.04,-32.779,-2.864
8.07,-29.41,-2.44
8.1,-25.76,-2.039
8.13,-21.759,-1.764
8.17,-17.372,-1.432
8.2,-13.231,-1.214
8.23,-9.581,-1.134
8.26,-5.58,-1.02
8.3,-1.263,-1.054
8.33,0.281,-0.596
8.36,0.702,0.47
8.39,0.983,1.913
8.43,4.036,3.23
8.46,9.335,4.193
8.49,13.617,5.556
8.52,16.705,6.919
8.56,20.215,7.836
8.59,24.918,8.363
8.62,29.691,9.016
8.65,34.218,9.817
8.69,38.64,10.493
8.72,43.062,10.894
8.75,47.063,11.158
8.78,50.642,11.421
8.82,54.117,11.65
8.85,57.626,11.776
8.88,60.645,12.04
8.91,63.873,12.338
8.95,67.067,12.613
8.98,69.945,12.899
9.01,72.401,13.231
9.04,74.858,13.586
9.08,77.596,14.045
9.11,80.544,14.583
9.14,84.053,15.075
9.17,87.703,15.694
9.21,91.248,16.324
9.24,95.108,16.645
9.27,98.442,16.805
9.3,101.109,17.103
9.34,103.741,17.47
9.37,106.9,17.768
9.4,110.094,18.088
9.44,113.498,18.799
9.47,117.253,19.154
9.5,119.78,19.371
9.53,121.78,19.715
9.57,125.044,20.208
9.6,129.466,20.609
9.63,132.73,20.952
9.66,135.397,21.651
9.7,138.275,22.121
9.73,142.065,22.751
9.76,145.435,22.819
9.79,146.873,22.762
9.83,148.909,23.209
9.86,152.734,23.656
9.89,155.682,23.587
9.92,156.735,23.919
9.96,158.63,24.778
9.99,162.666,25.225
10.02,166.527,25.443
10.05,168.738,26.004
10.09,170.738,26.336
10.12,173.756,26.829
10.15,177.582,27.425
10.18,180.46,27.734
10.22,182.109,28.078
10.25,184.741,28.65
10.28,188.531,29.131
10.31,191.479,29.166
10.35,192.567,29.349
10.38,193.936,29.716
10.41,196.884,29.83
10.44,199.657,29.922
10.48,201.622,30.311
10.51,203.587,30.575
10.54,205.272,30.621
10.57,206.395,30.861
10.61,208.044,31.148
10.64,210.22,31.216
10.67,212.08,31.468
10.7,213.94,31.95
10.74,215.871,32.339
10.77,217.696,32.751
10.8,219.731,33.175
10.83,221.591,33.45
10.87,223.416,33.714
10.9,225.838,33.954
10.93,228.365,34.183
10.96,230.435,34.435
11.0,231.979,34.79
11.03,233.488,35.134
11.06,235.559,35.443
11.09,237.946,35.684
11.13,239.981,35.844
11.16,241.631,36.051
11.19,243.42,36.314
11.22,245.631,36.612
11.26,246.965,37.082
11.29,247.807,37.792
11.32,249.667,38.502
11.35,251.773,38.743
11.39,253.352,38.846
11.42,254.405,39.235
11.45,255.984,39.705
11.48,257.915,40.049
11.52,259.915,40.346
11.55,262.302,40.667
11.58,264.688,41.125
11.61,266.197,40.988
11.65,266.478,40.828
11.68,267.32,40.976
11.71,269.075,40.828
11.75,270.374,40.782
11.78,271.497,41.251
11.81,272.9,41.561
11.84,274.164,41.446
11.88,275.111,41.481
11.91,276.375,41.698
11.94,277.989,41.629
11.97,279.042,41.733
12.01,280.025,42.111
12.04,281.253,42.477
12.07,282.481,42.615
12.1,283.324,42.66
12.14,283.64,42.821
12.17,284.131,42.912
12.2,284.692,42.672
12.23,284.938,42.534
12.27,285.394,42.615
12.3,286.166,42.752
12.33,286.763,42.706
12.36,286.412,43.073
12.4,286.342,43.348
12.43,285.991,43.061
12.46,285.429,43.302
12.49,285.851,43.531
12.53,286.763,43.52
12.56,287.219,43.657
12.59,287.219,43.737
12.62,287.289,44.058
12.66,287.009,43.565
12.69,285.921,43.187
12.72,285.956,43.302
12.75,286.377,42.752
12.79,285.745,42.569
12.82,285.254,43.084
12.85,285.464,43.245
12.88,284.622,42.718
12.92,283.113,42.58
12.95,283.008,42.5
12.98,283.043,41.881
13.01,281.604,41.503
13.05,280.06,41.607
13.08,279.99,41.927
13.11,279.919,41.366
13.14,277.638,40.793
13.18,275.462,40.61
13.21,274.936,40.278
13.24,274.409,39.728
13.27,272.163,39.189
13.31,269.426,39.338
13.34,268.584,39.613
13.37,268.9,39.247
13.4,266.759,38.8
13.44,263.635,38.788
13.47,261.986,38.353
13.5,260.828,37.712
13.53,258.757,37.631
13.57,257.072,37.792
13.6,255.563,37.528
13.63,253.738,37.425
13.66,252.65,37.551
13.7,251.562,37.196
13.73,249.001,36.589
13.76,246.895,36.772
13.79,246.439,36.646
13.83,245.035,36.039
13.86,242.262,35.753
13.89,240.543,35.524
13.92,239.735,35.169
13.96,237.946,34.836
13.99,235.103,34.47
14.02,232.822,34.126
14.06,231.839,33.84
14.09,231.137,33.759
14.12,229.698,33.714
14.15,227.347,33.427
14.19,224.68,32.877
14.22,222.328,32.202
14.25,219.942,31.606
14.28,217.801,31.216
14.32,215.695,30.838
14.35,213.309,30.426
14.38,211.133,30.162
14.41,209.554,30.048
14.45,207.764,29.819
14.48,205.307,29.521
14.51,203.061,29.235
14.54,201.376,28.925
14.58,199.516,28.57
14.61,197.375,28.352
14.64,195.41,28.055
14.67,193.515,27.642
14.71,191.339,27.173
14.74,188.672,26.634
14.77,185.864,26.13
14.8,183.513,25.626
14.84,181.232,25.065
14.87,178.915,24.687
14.9,176.424,24.412
14.93,174.107,24.057
14.97,171.37,23.598
15.0,168.492,23.197
15.03,165.895,22.751
15.06,163.123,22.258
15.1,160.245,21.811
15.13,157.542,21.617
15.16,155.121,21.09
15.19,153.156,21.044
15.23,151.085,20.769
15.26,147.716,20.196
15.29,145.013,19.956
15.32,142.346,18.856
15.36,138.416,17.997
15.39,134.204,17.435
15.42,130.975,17.034
15.45,128.589,16.553
15.49,125.571,15.98
15.52,121.535,15.602
15.55,117.744,15.236
15.58,115.007,14.766
15.62,112.41,14.262
15.65,109.146,13.873
15.68,105.356,13.472
15.71,102.162,13.128
15.75,100.092,12.865
15.78,97.53,12.303
15.81,94.02,11.719
15.84,90.511,11.123
15.88,86.826,10.425
15.91,83.667,10.138
15.94,81.175,9.84
15.97,78.087,9.016
16.01,73.595,8.259
16.04,69.524,7.916
16.07,66.786,7.423
16.1,63.768,6.713
16.14,59.767,6.278
16.17,56.012,5.934
16.2,52.748,5.35
16.23,49.414,5.075
16.27,46.466,4.834
16.3,43.132,4.193
16.33,38.394,3.379
16.36,33.727,3.185
16.4,30.638,3.024
16.43,27.374,2.325
16.46,22.742,1.821
16.5,18.425,1.569
16.53,14.249,1.146
16.56,9.3,0.859
16.59,4.247,0.905
16.63,0.667,0.882
16.66,-0.316,0.206
16.69,-0.562,-0.939
16.72,-1.579,-2.28
16.76,-6.001,-3.505
16.79,-11.301,-4.571
16.82,-14.635,-5.762
16.85,-17.126,-6.896
16.89,-20.776,-7.664
16.92,-25.339,-8.374
16.95,-29.971,-9.13
16.98,-34.148,-9.737
17.02,-37.868,-10.207
17.05,-42.009,-10.631
17.08,-46.326,-10.871
17.11,-49.976,-11.123
17.15,-53.31,-11.364
17.18,-56.679,-11.513
17.21,-59.837,-11.708
17.24,-62.961,-11.937
17.28,-65.804,-12.109
17.31,-68.12,-12.555
17.34,-70.927,-13.094
17.37,-74.542,-13.414
17.41,-77.771,-13.85
17.44,-81.07,-14.468
17.47,-84.544,-15.007
17.5,-87.949,-15.499
17.54,-91.634,-16.003
17.57,-95.494,-16.462
17.6,-98.933,-16.863
17.63,-101.706,-17.309
17.67,-104.759,-17.756
17.7,-108.795,-18.157
17.73,-112.48,-18.501
17.76,-115.253,-18.902
17.8,-118.236,-19.36
17.83,-121.921,-19.646
17.86,-125.044,-19.91
17.89,-128.062,-20.23
17.93,-130.905,-20.62
17.96,-134.344,-21.17
17.99,-137.959,-21.605
18.02,-140.942,-22.292
18.06,-143.329,-22.419
18.09,-145.399,-22.487
18.12,-147.681,-22.877
18.15,-150.488,-23.094
18.19,-152.524,-23.243
18.22,-154.419,-23.656
18.25,-157.753,-24.011
18.28,-161.333,-24.389
18.32,-164.842,-25.019
18.35,-167.86,-25.592
18.38,-170.493,-25.958
18.41,-172.844,-26.348
18.45,-175.687,-26.76
18.48,-178.81,-27.127
18.51,-181.618,-27.596
18.54,-183.934,-28.1
18.58,-186.566,-28.33
18.61,-188.988,-28.41
18.64,-191.058,-28.559
18.67,-192.848,-28.685
18.71,-194.533,-28.857
18.74,-196.533,-29.12
18.77,-199.165,-29.406
18.81,-201.622,-29.647
18.84,-203.377,-29.922
18.87,-205.167,-30.162
18.9,-207.272,-30.22
18.94,-208.957,-30.334
18.97,-210.396,-30.678
19.0,-212.186,-31.079
19.03,-214.397,-31.503
19.07,-216.643,-32.018
19.1,-219.099,-32.545
19.13,-221.24,-33.061
19.16,-223.1,-33.29
19.2,-224.82,-33.359
19.23,-226.294,-33.84
19.26,-228.54,-34.275
19.29,-230.821,-34.516
19.33,-232.681,-34.722
19.36,-234.576,-35.283
19.39,-236.998,-35.684
19.42,-238.612,-35.592
19.46,-239.42,-35.73
19.49,-241.245,-36.028
19.52,-243.631,-36.222
19.55,-245.28,-36.543
19.59,-246.719,-37.093
19.62,-249.106,-37.414
19.65,-251.176,-37.551
19.68,-252.686,-37.746
19.72,-254.335,-37.849
19.75,-256.195,-37.872
19.78,-257.634,-38.113
19.81,-259.178,-38.525
19.85,-261.179,-38.788
19.88,-263.179,-38.983
19.91,-264.758,-39.201
19.94,-265.671,-39.304
19.98,-266.267,-39.315
20.01,-267.461,-39.293
20.04,-268.9,-39.315
20.07,-270.654,-39.613
20.11,-272.163,-40.003
20.14,-273.357,-40.301
20.17,-274.515,-40.358
20.2,-275.182,-40.415
20.24,-275.182,-40.828
20.27,-275.603,-41.355
20.3,-276.761,-41.458
20.33,-277.989,-41.664
20.37,-279.147,-42.145
20.4,-280.516,-42.569
20.43,-281.815,-42.729
20.46,-282.832,-42.764
20.5,-283.675,-42.752
20.53,-284.306,-42.626
20.56,-284.657,-42.546
20.59,-285.57,-42.683
20.63,-286.588,-42.729
20.66,-286.798,-42.89
20.69,-286.974,-42.935
20.72,-287.465,-42.649
20.76,-287.325,-42.214
20.79,-286.342,-42.007
20.82,-287.079,-42.695
20.85,-288.763,-42.454
20.89,-288.342,-42.294
20.92,-287.781,-43.061
20.95,-288.939,-42.924
20.98,-289.114,-42.386
21.02,-287.395,-41.996
21.05,-285.745,-41.778
21.08,-285.851,-41.618
21.12,-286.552,-41.251
21.15,-285.815,-40.988
21.18,-284.377,-41.263
21.21,-283.85,-41.733
21.25,-283.394,-41.458
21.28,-281.744,-41.16
21.31,-280.2,-41.377
21.34,-279.919,-41.469
21.38,-279.99,-41.355
21.41,-279.007,-41.091
21.44,-277.673,-41.309
21.47,-277.042,-41.332
21.51,-275.989,-40.667
21.54,-273.848,-39.98
21.57,-271.953,-39.59
21.6,-271.461,-39.396
21.64,-270.724,-38.983
21.67,-268.689,-38.869
21.7,-266.864,-38.892
21.73,-266.232,-38.582
21.77,-265.425,-37.918
21.8,-263.039,-37.494
21.83,-260.406,-37.299
21.86,-258.757,-37.024
21.9,-257.809,-36.795
21.93,-256.581,-36.692
21.96,-255.107,-36.841
21.99,-253.914,-36.772
22.03,-251.668,-36.268
22.06,-249.211,-36.074
22.09,-247.842,-35.535
22.12,-246.649,-34.985
22.16,-244.754,-34.664
22.19,-241.806,-34.229
22.22,-238.963,-33.943
22.25,-237.349,-33.553
22.29,-236.121,-33.026
22.32,-234.085,-32.694
22.35,-231.734,-32.522
22.38,-229.839,-32.305
22.42,-228.014,-32.053
22.45,-226.083,-32.076
22.48,-224.609,-32.133
22.51,-223.346,-31.95
22.55,-221.556,-31.617
22.58,-219.099,-31.262
22.61,-216.959,-30.941
22.64,-215.134,-30.678
22.68,-213.344,-30.483
22.71,-211.554,-30.334
22.74,-209.799,-30.105
22.77,-208.009,-29.693
22.81,-206.079,-29.154
22.84,-203.833,-28.742
22.87,-201.762,-28.352
22.9,-199.937,-27.906
22.94,-198.042,-27.539
22.97,-196.077,-27.276
23.0,-193.936,-26.978
23.03,-191.62,-26.68
23.07,-189.444,-26.21
23.1,-186.847,-25.752
23.13,-184.074,-25.385
23.16,-181.407,-25.019
23.2,-179.512,-24.71
23.23,-178.178,-24.377
23.26,-175.932,-23.908
23.29,-172.563,-23.415
23.33,-169.229,-22.9
23.36,-166.632,-22.35
23.39,-164.351,-21.731
23.43,-161.368,-21.124
23.46,-158.42,-20.861
23.49,-156.244,-20.677
23.52,-153.226,-19.738
23.56,-149.26,-19.131
23.59,-145.891,-18.97
23.62,-143.329,-18.272
23.65,-140.24,-17.916
23.69,-136.591,-17.367
23.72,-133.643,-17.344
23.75,-132.098,-17.16
23.78,-129.256,-16.255
23.82,-124.588,-15.797
23.85,-120.833,-15.476
23.88,-118.938,-14.72
23.91,-116.481,-13.964
23.95,-113.007,-13.666
23.98,-109.286,-13.288
24.01,-106.058,-12.784
24.04,-103.32,-12.418
24.08,-100.443,-12.12
24.11,-96.968,-11.696
24.14,-93.108,-11.123
24.17,-89.458,-10.631
24.21,-86.896,-10.138
24.24,-84.369,-9.554
24.27,-80.93,-9.096
24.3,-76.964,-8.34
24.34,-72.612,-7.572
24.37,-68.752,-7.102
24.4,-65.628,-6.667
24.43,-62.189,-6.14
24.47,-57.942,-5.682
24.5,-54.222,-5.636
24.53,-51.871,-5.407
24.56,-49.203,-4.743
24.6,-45.203,-4.239
24.63,-41.026,-3.906
24.66,-37.517,-3.345
24.69,-34.183,-2.658
24.73,-30.112,-2.142
24.76,-26.076,-1.867
24.79,-22.04,-1.375
24.82,-17.653,-1.042
24.86,-13.02,-1.077
24.89,-9.3,-0.699
24.92,-3.825,-0.218
24.95,-0.175,-0.069
24.99,0.351,0.447
25.02,0.877,1.569
25.05,3.159,2.933
25.08,8.002,3.769
25.12,11.476,4.513
25.15,13.266,5.865
25.18,16.249,7.08
25.21,21.513,7.526
25.25,26.111,8.076
25.28,29.796,8.97
25.31,33.621,9.428
25.34,38.078,9.611
25.38,42.255,9.921
25.41,45.624,10.505
25.44,49.098,10.963
25.47,52.924,11.181
25.51,56.749,11.375
25.54,60.329,11.708
25.57,63.698,11.925
25.6,66.47,12.154
25.64,69.313,12.361
25.67,72.015,12.658
25.7,74.998,12.968
25.73,77.911,13.334
25.77,80.473,13.873
25.8,83.527,14.606
25.83,87.527,15.167
25.87,91.493,15.683
25.9,94.792,16.221
25.93,97.53,16.702
25.96,100.372,17.218
26.0,104.268,17.573
26.03,107.988,18.031
26.06,111.217,18.615
26.09,114.761,18.925
26.13,118.657,19.154
26.16,121.605,19.612
26.19,123.921,19.967
26.22,126.343,20.208
26.26,129.887,20.643
26.29,133.607,20.872
26.32,135.959,21.055
26.35,137.608,21.388
26.39,140.486,21.857
26.42,144.312,22.144
26.45,147.54,22.762
26.48,150.383,23.472
26.52,152.98,23.816
26.55,156.349,24.423
26.58,160.455,25.088
26.61,164.246,25.534
26.65,166.948,25.924
26.68,169.334,26.256
26.71,172.388,26.325
26.74,175.125,26.279
26.78,177.055,26.416
26.81,179.091,26.68
26.84,181.653,26.978
26.87,184.355,27.31
26.91,186.566,27.654
26.94,188.145,28.066
26.97,189.865,28.433
27.0,192.252,28.685
27.04,194.814,28.822
27.07,196.603,29.109
27.1,198.288,29.567
27.13,200.78,29.842
27.17,202.956,30.014
27.2,204.465,30.38
27.23,206.044,30.655
27.26,207.764,30.793
27.3,209.659,31.079
27.33,212.221,31.468
27.36,214.677,31.824
27.39,216.748,32.259
27.43,218.643,32.751
27.46,220.924,33.095
27.49,223.276,33.244
27.52,225.276,33.668
27.56,227.312,33.805
27.59,228.856,33.759
27.62,230.365,34.126
27.65,232.822,34.481
27.69,235.489,34.664
27.72,237.103,34.882
27.75,237.91,35.008
27.78,239.034,35.088
27.82,241.104,35.489
27.85,243.666,35.913
27.88,245.667,36.2
27.91,246.649,36.497
27.95,248.228,36.898
27.98,251.106,37.242
28.01,253.633,37.391
28.04,254.826,37.62
28.08,255.984,37.872
28.11,258.266,38.067
28.14,260.898,38.239
28.18,262.161,38.525
28.21,262.021,39.029
28.24,262.968,39.293
28.27,264.969,39.247
28.31,266.127,39.373
28.34,266.583,39.877
28.37,267.776,40.243
28.4,269.777,40.232
28.44,271.672,40.61
28.47,273.216,41.194
28.5,274.62,41.515
28.53,275.778,41.595
28.57,277.077,41.607
28.6,278.165,41.607
28.63,279.147,41.767
28.66,280.376,41.973
28.7,282.201,41.939
28.73,283.569,41.79
28.76,284.096,41.962
28.79,284.833,42.007
28.83,285.324,41.664
28.86,285.394,41.481
28.89,285.71,41.332
28.92,285.886,41.32
28.96,286.026,41.607
28.99,286.377,41.778
29.02,286.658,41.824
29.05,287.009,41.927
29.09,287.57,42.134
29.12,288.272,42.214
29.15,287.851,41.836
29.18,285.991,42.351
29.22,286.658,43.726
29.25,288.062,43.153
29.28,285.429,42.156
29.31,282.692,42.741
29.35,284.026,42.924
29.38,285.71,41.996
29.41,284.166,42.053
29.44,283.113,43.016
29.48,284.447,43.073
29.51,285.815,42.672
29.54,285.535,42.878
29.57,284.377,42.89
29.61,282.938,42.408
29.64,282.411,42.053
29.67,283.078,41.801
29.7,283.008,41.503
29.74,281.007,41.389
29.77,278.726,41.251
29.8,277.147,40.896
29.83,276.059,40.346
29.87,275.076,39.934
29.9,274.059,39.819
29.93,272.163,39.293
29.96,269.777,38.983
30.0,269.496,39.35
30.03,270.163,38.949
30.06,267.847,38.147
30.09,263.881,37.975
30.13,261.951,37.78
30.16,261.494,37.082
30.19,259.88,36.864
30.22,257.529,37.265
30.26,255.353,37.334
30.29,253.528,37.127
30.32,252.51,37.001
30.35,251.247,36.646
30.39,248.825,36.062
30.42,246.825,36.119
30.45,246.298,35.879
30.49,245.07,35.191
30.52,242.262,34.825
30.55,239.771,34.676
30.58,238.542,34.447
30.62,237.454,33.908
30.65,234.998,33.439
30.68,232.33,33.301
30.71,230.856,33.21
30.75,230.19,33.015
30.78,228.821,32.797
30.81,226.715,32.602
30.84,224.188,32.19
30.88,221.942,31.526
30.91,219.942,30.93
30.94,217.696,30.552
30.97,215.309,30.266
31.01,213.449,29.979
31.04,211.975,29.807
31.07,210.606,29.67
31.1,208.781,29.464
31.14,206.325,29.154
31.17,203.833,28.822
31.2,201.552,28.501
31.23,199.516,28.146
31.27,197.762,27.848
31.3,195.586,27.596
31.33,193.094,27.333
31.36,190.707,26.966
31.4,188.777,26.416
31.43,186.566,25.958
31.46,184.074,25.569
31.49,181.197,25.168
31.53,178.81,24.962
31.56,177.196,24.698
31.59,175.09,24.343
31.62,172.177,23.862
31.66,169.159,23.381
31.69,166.667,22.957
31.72,164.386,22.315
31.75,161.403,21.72
31.79,158.104,21.422
31.82,154.875,20.54
31.85,152.068,20.276
31.88,150.594,20.208
31.92,148.628,19.555
31.95,144.733,19.005
31.98,140.065,18.272
32.01,136.977,17.756
32.05,134.836,17.183
32.08,132.098,16.725
32.11,128.484,16.278
32.14,124.448,15.625
32.18,120.798,14.995
32.21,117.92,14.503
32.24,115.077,13.987
32.27,111.568,13.54
32.31,107.848,13.346
32.34,104.829,13.014
32.37,101.952,12.75
32.4,99.144,12.83
32.44,96.687,12.452
32.47,93.704,11.776
32.5,90.862,11.364
32.53,88.51,10.688
32.57,84.825,9.863
32.6,80.649,9.313
32.63,77.315,8.832
32.66,74.191,8.259
32.7,70.647,7.595
32.73,66.611,7.045
32.76,62.75,6.633
32.8,59.416,6.083
32.83,55.942,5.487
32.86,52.151,4.972
32.89,48.291,4.571
32.93,44.887,4.147
32.96,41.061,3.712
32.99,37.025,3.311
33.02,33.656,3.047
33.06,30.322,2.807
33.09,26.813,2.451
33.12,22.742,2.073
33.15,18.881,1.856
33.19,15.021,1.501
33.22,10.704,1.134
33.25,6.177,0.894
33.28,1.685,0.825
33.32,-0.281,0.275
33.35,-0.526,-0.951
33.38,-1.509,-2.36
33.41,-5.826,-3.563
33.45,-11.055,-4.571
33.48,-14.178,-5.705
33.51,-16.6,-6.954
33.54,-20.706,-7.824
33.58,-25.83,-8.42
33.61,-30.252,-9.107
33.64,-34.218,-9.714
33.67,-38.289,-9.989
33.71,-42.465,-10.207
33.74,-46.22,-10.516
33.77,-49.449,-10.883
33.8,-52.608,-11.112
33.84,-56.117,-11.295
33.87,-59.662,-11.49
33.9,-62.61,-11.845
33.93,-65.172,-12.28
33.97,-67.909,-12.704
34.0,-71.103,-13.197
34.03,-74.683,-13.735
34.06,-77.736,-14.319
34.1,-80.859,-14.961
34.13,-85.001,-15.442
34.16,-89.177,-15.9
34.19,-92.757,-16.404
34.23,-95.81,-16.828
34.26,-99.214,-17.115
34.29,-102.689,-17.275
34.32,-105.812,-17.504
34.36,-108.409,-17.894
34.39,-111.252,-18.306
34.42,-114.691,-18.524
34.45,-118.552,-19.417
34.49,-123.57,-20.574
34.52,-128.027,-21.17
34.55,-131.01,-21.514
34.58,-133.783,-21.8
34.62,-137.433,-22.086
34.65,-140.872,-22.166
34.68,-142.767,-22.235
34.71,-144.978,-22.751
34.75,-148.383,-22.991
34.78,-151.155,-23.003
34.81,-153.12,-23.484
34.84,-156.209,-24.228
34.88,-160.315,-24.836
34.91,-164.07,-25.282
34.94,-166.808,-25.855
34.97,-169.545,-26.348
35.01,-172.809,-26.497
35.04,-175.266,-26.611
35.07,-176.95,-26.783
35.1,-178.6,-27.081
35.14,-181.337,-27.47
35.17,-184.25,-27.86
35.2,-186.742,-28.238
35.24,-188.707,-28.547
35.27,-190.918,-28.788
35.3,-193.094,-28.891
35.33,-194.814,-29.017
35.37,-196.463,-29.292
35.4,-198.358,-29.704
35.43,-200.745,-30.105
35.46,-202.815,-30.403
35.5,-204.57,-30.724
35.53,-206.5,-30.999
35.56,-208.711,-31.079
35.59,-210.396,-31.159
35.63,-212.291,-31.503
35.66,-214.467,-31.961
35.69,-216.573,-32.373
35.72,-218.362,-32.74
35.76,-220.609,-33.095
35.79,-222.925,-33.336
35.82,-224.644,-33.427
35.85,-225.662,-33.542
35.89,-227.452,-33.794
35.92,-230.295,-34.092
35.95,-232.892,-34.355
35.98,-234.366,-34.642
36.02,-235.419,-34.997
36.05,-237.279,-35.214
36.08,-239.7,-35.237
36.11,-241.701,-35.26
36.15,-242.824,-35.684
36.18,-244.508,-36.257
36.21,-247.386,-36.726
36.24,-250.264,-37.127
36.28,-252.335,-37.712
36.31,-253.844,-37.941
36.34,-255.107,-37.792
36.37,-256.335,-37.757
36.41,-258.055,-37.998
36.44,-259.354,-38.41
36.47,-259.669,-38.96
36.5,-260.547,-39.441
36.54,-262.477,-39.831
36.57,-264.442,-40.049
36.6,-265.32,-40.22
36.63,-265.846,-40.255
36.67,-266.548,-40.301
36.7,-268.408,-40.805
36.73,-270.724,-41.022
36.76,-272.374,-41.469
36.8,-273.848,-41.904
36.83,-275.287,-42.099
36.86,-276.761,-41.847
36.89,-277.744,-41.973
36.93,-275.883,-40.186
36.96,-265.881,-35.627
36.99,-255.914,-34.138
37.02,-257.809,-34.974
37.06,-263.705,-34.63
37.09,-260.231,-35.203
37.12,-254.616,-37.78
37.15,-257.845,-39.705
37.19,-265.846,-40.45
37.22,-269.601,-41.973
37.25,-270.514,-44.299
37.28,-273.708,-45.41
37.32,-277.673,-45.146
37.35,-279.323,-44.837
37.38,-280.341,-45.112
37.41,-282.516,-44.585
37.45,-283.675,-43.726
37.48,-283.675,-43.68
37.51,-284.026,-43.726
37.55,-284.938,-43.336
37.58,-284.973,-43.084
37.61,-284.763,-43.325
37.64,-284.798,-43.359
37.68,-285.078,-43.096
37.71,-284.692,-42.993
37.74,-284.622,-43.187
37.77,-285.219,-43.302
37.81,-285.71,-43.119
37.84,-286.026,-42.924
37.87,-285.675,-43.004
37.9,-285.184,-42.729
37.94,-283.815,-42.168
37.97,-282.341,-41.87
38.0,-281.674,-41.675
38.03,-281.253,-41.492
38.07,-280.27,-41.366
38.1,-278.902,-41.286
38.13,-277.463,-41.16
38.16,-276.305,-40.839
38.2,-275.533,-40.346
38.23,-274.304,-39.911
38.26,-272.479,-39.888
38.29,-270.76,-40.026
38.33,-269.461,-40.049
38.36,-268.584,-39.957
38.39,-267.32,-39.877
38.42,-265.39,-39.636
38.46,-263.214,-39.27
38.49,-261.67,-38.995
38.52,-261.214,-38.72
38.55,-260.336,-38.365
38.59,-258.02,-38.067
38.62,-255.528,-37.803
38.65,-253.914,-37.517
38.68,-252.686,-36.933
38.72,-250.72,-36.314
38.75,-247.842,-36.028
38.78,-245.702,-35.89
38.81,-244.894,-35.524
38.85,-243.771,-35.157
38.88,-241.525,-35.031
38.91,-239.209,-34.939
38.94,-237.173,-34.355
38.98,-234.998,-33.908
39.01,-233.804,-34.103
39.04,-233.067,-33.897
39.07,-230.891,-33.404
39.11,-227.873,-33.301
39.14,-226.259,-33.255
39.17,-225.557,-32.671
39.2,-223.557,-32.03
39.24,-220.258,-31.617
39.27,-217.38,-31.216
39.3,-215.45,-30.701
39.33,-213.379,-30.449
39.37,-211.414,-30.3
39.4,-209.483,-30.094
39.43,-207.202,-29.83
39.46,-204.921,-29.464
39.5,-203.096,-29.051
39.53,-201.727,-28.753
39.56,-200.464,-28.456
39.59,-198.709,-28.169
39.63,-196.323,-27.894
39.66,-193.831,-27.7
39.69,-191.725,-27.425
39.72,-189.655,-26.943
39.76,-187.128,-26.646
39.79,-185.127,-26.302
39.82,-183.302,-25.741
39.86,-180.986,-25.385
39.89,-178.67,-25.007
39.92,-176.353,-24.469
39.95,-173.616,-23.954
39.99,-170.493,-23.438
40.02,-167.509,-22.842
40.05,-164.561,-22.212
40.08,-161.333,-21.731
40.12,-158.595,-21.445
40.15,-156.244,-21.204
40.18,-153.717,-20.723
40.21,-150.664,-20.265
40.25,-147.365,-19.91
40.28,-144.557,-19.36
40.31,-141.539,-18.501
40.34,-137.538,-17.745
40.38,-133.572,-17.16
40.41,-130.063,-16.599
40.44,-127.22,-16.21
40.47,-124.553,-15.832
40.51,-121.254,-15.442
40.54,-117.85,-15.121
40.57,-115.042,-14.732
40.6,-112.55,-14.434
40.64,-109.988,-14.216
40.67,-106.935,-13.815
40.7,-103.355,-13.334
40.73,-100.162,-12.876
40.77,-97.249,-12.2
40.8,-93.88,-11.444
40.83,-90.335,-10.791
40.86,-86.966,-10.241
40.9,-83.772,-9.714
40.93,-80.333,-9.359
40.96,-76.894,-9.05
40.99,-73.735,-8.66
41.03,-70.647,-8.088
41.06,-67.137,-7.549
41.09,-63.628,-6.988
41.12,-60.153,-6.415
41.16,-56.468,-5.9
41.19,-52.643,-5.396
41.22,-49.239,-4.811
41.25,-45.799,-4.239
41.29,-41.833,-3.826
41.32,-37.903,-3.505
41.35,-34.393,-3.104
41.38,-30.568,-2.715
41.42,-26.743,-2.28
41.45,-22.461,-1.925
41.48,-18.355,-1.604
41.51,-14.073,-1.237
41.55,-9.721,-0.905
41.58,-4.633,-0.619
41.61,-0.386,-0.504
41.64,0.456,0.183
41.68,0.737,1.306
41.71,1.93,2.646
41.74,6.458,3.757
41.77,11.266,4.731
41.81,14.494,6.071
41.84,17.197,7.274
41.87,21.408,7.939
41.9,25.9,8.511
41.94,29.901,9.233
41.97,33.832,9.76
42.0,38.184,10.092
42.03,42.43,10.47
42.07,46.045,10.722
42.1,48.923,10.871
42.13,51.871,11.158
42.17,55.521,11.433
42.2,58.96,11.73
42.23,61.908,12.28
42.26,64.961,12.761
42.3,68.19,13.117
42.33,71.349,13.666
42.36,74.648,14.205
42.39,77.982,14.652
42.43,81.631,15.087
42.46,85.422,15.557
42.49,89.212,15.992
42.52,93.178,16.244
42.56,96.442,16.404
42.59,99.284,16.668
42.62,101.987,16.92
42.65,104.584,17.241
42.69,107.497,17.619
42.72,110.796,18.146
42.75,114.445,18.65
42.78,118.411,19.131
42.82,121.219,19.337
42.85,123.535,19.749
42.88,126.834,20.127
42.91,130.028,20.265
42.95,132.414,20.643
42.98,134.66,20.941
43.01,137.292,21.307
43.04,140.24,21.754
43.08,143.188,22.235
43.11,145.786,22.762
43.14,148.347,23.415
43.17,152.032,23.862
43.21,156.104,24.194
43.24,159.332,24.652
43.27,162.21,25.168
43.3,165.193,25.5
43.34,168.387,25.752
43.37,170.984,26.038
43.4,172.809,26.428
43.43,174.774,26.737
43.47,177.617,27.081
43.5,180.986,27.482
43.53,183.759,27.94
43.56,185.654,28.41
43.6,187.97,28.776
43.63,190.953,28.868
43.66,193.515,28.914
43.69,195.164,29.109
43.73,196.638,29.372
43.76,199.095,29.59
43.79,201.657,29.796
43.82,203.342,30.14
43.86,204.921,30.529
43.89,206.956,30.621
43.92,208.711,30.678
43.95,210.606,30.999
43.99,212.958,31.342
44.02,215.414,31.697
44.05,217.029,32.053
44.08,218.748,32.557
44.12,221.31,32.969
44.15,223.732,33.038
44.18,224.855,33.187
44.21,226.294,33.645
44.25,229.242,33.931
44.28,231.874,34.172
44.31,233.138,34.687
44.34,234.506,35.317
44.38,236.401,35.443
44.41,237.875,35.592
44.44,239.56,35.948
44.48,241.104,35.913
44.51,242.683,36.303
44.54,245.175,36.933
44.57,247.597,37.322
44.61,249.211,37.643
44.64,250.72,38.147
44.67,252.686,38.319
44.7,254.405,38.319
44.74,256.335,38.479
44.77,258.652,38.674
44.8,260.301,38.892
44.83,261.494,39.293
44.87,263.6,39.51
44.9,265.39,39.567
44.93,266.092,39.476
44.96,266.548,39.476
45.0,267.847,39.453
45.03,269.215,39.545
45.06,270.444,40.037
45.09,272.058,40.472
45.13,273.427,40.644
45.16,274.55,40.873
45.19,275.778,40.873
45.22,276.691,40.862
45.26,277.708,40.942
45.29,278.2,41.274
45.32,278.761,41.87
45.35,279.639,42.351
45.39,280.692,42.626
45.42,281.639,42.764
45.45,282.201,42.878
45.48,283.008,42.912
45.52,283.885,42.718
45.55,284.096,42.718
45.58,284.517,42.901
45.61,285.394,43.004
45.65,286.061,42.89
45.68,286.377,42.867
45.71,286.342,42.97
45.74,286.552,42.809
45.78,286.903,42.729
45.81,286.938,42.718
45.84,287.079,43.016
45.87,288.062,42.901
45.91,288.097,42.775
45.94,287.395,43.096
45.97,287.57,43.096
46.0,287.956,42.672
46.04,287.079,42.489
46.07,286.482,42.489
46.1,286.903,42.386
46.13,287.465,42.248
46.17,286.833,42.271
46.2,285.956,42.179
46.23,284.692,41.778
46.26,282.973,41.572
46.3,281.885,41.423
46.33,281.183,41.183
46.36,280.586,41.125
46.39,279.393,41.24
46.43,277.919,41.251
46.46,276.55,40.999
46.49,275.041,40.736
46.52,273.813,40.427
46.56,272.269,40.072
46.59,270.584,39.9
46.62,269.847,39.785
46.65,269.286,39.567
46.69,268.057,39.43
46.72,266.513,39.247
46.75,265.109,38.846
46.78,263.6,38.307
46.82,261.81,38.032
46.85,260.196,37.826
46.88,258.932,37.517
46.92,257.388,37.276
46.95,255.634,37.139
46.98,253.738,36.864
47.01,251.843,36.348
47.05,249.527,35.81
47.08,247.386,35.581
47.11,246.053,35.455
47.14,244.965,35.203
47.18,242.929,34.951
47.21,240.332,34.894
47.24,238.367,34.642
47.27,236.752,34.16
47.31,234.647,33.782
47.34,232.541,33.622
47.37,231.207,33.404
47.4,229.803,33.095
47.44,227.908,32.855
47.47,225.943,32.614
47.5,223.943,32.19
47.53,221.521,31.652
47.57,218.959,31.228
47.6,216.959,30.93
47.63,215.379,30.598
47.66,213.8,30.334
47.7,212.01,30.105
47.73,209.764,29.922
47.76,207.658,29.635
47.79,205.553,29.143
47.83,203.377,28.696
47.86,201.236,28.364
47.89,199.376,27.986
47.92,197.691,27.654
47.96,195.656,27.447
47.99,193.375,27.207
48.02,191.129,26.852
48.05,189.128,26.359
48.09,186.952,25.901
48.12,184.496,25.5
48.15,181.969,25.076
48.18,179.828,24.755
48.22,178.038,24.469
48.25,175.687,24.057
48.28,172.633,23.564
48.31,169.685,23.014
48.35,167.404,22.499
48.38,165.018,21.788
48.41,161.649,21.239
48.44,157.964,20.906
48.48,154.875,20.402
48.51,152.419,20.093
48.54,150.137,19.635
48.57,147.049,19.131
48.61,143.013,18.661
48.64,139.468,18.077
48.67,136.555,17.47
48.7,133.853,17.034
48.74,130.835,16.679
48.77,127.676,16.359
48.8,124.693,15.935
48.83,121.57,15.362
48.87,117.99,14.938
48.9,114.972,14.617
48.93,112.375,14.067
48.96,109.602,13.655
49.0,106.303,13.266
49.03,102.759,12.75
49.06,99.319,12.2
49.09,96.091,11.673
49.13,93.002,11.135
49.16,89.668,10.631
49.19,85.948,10.195
49.23,83.035,9.703
49.26,80.228,9.107
49.29,76.964,8.603
49.32,73.524,8.111
49.36,70.05,7.652
49.39,66.295,7.251
49.42,62.785,6.908
49.45,59.486,6.438
49.49,56.117,5.98
49.52,52.432,5.556
49.55,48.747,5.144
49.58,45.378,4.708
49.62,42.255,4.147
49.65,38.745,3.54
49.68,35.06,2.956
49.71,31.165,2.383
49.75,27.129,1.879
49.78,23.058,1.455
49.81,18.776,1.146
49.84,14.108,0.894
49.88,9.335,0.699
49.91,4.457,0.71
49.94,0.667,0.756
49.97,-0.351,0.08
50.01,-0.526,-1.008
50.04,-1.509,-2.211
50.07,-5.615,-3.265
50.1,-10.388,-4.193
50.14,-13.231,-5.292
50.17,-15.021,-6.461
50.2,-19.022,-7.228
50.23,-24.426,-7.767
50.27,-28.989,-8.546
50.3,-32.217,-9.382
50.33,-36.218,-9.898
50.36,-40.921,-10.241
50.4,-45.518,-10.642
50.43,-49.695,-10.94
50.46,-53.239,-11.146
50.49,-56.819,-11.387
50.53,-60.75,-11.627
50.56,-64.4,-11.879
50.59,-67.313,-12.2
50.62,-70.296,-12.567
50.66,-73.805,-12.807
50.69,-76.964,-13.082
50.72,-79.07,-13.586
50.75,-81.456,-14.228
50.79,-85.246,-14.72
50.82,-89.107,-15.213
50.85,-92.336,-15.786
50.88,-94.968,-16.359
50.92,-98.196,-16.748
50.95,-101.952,-17.0
50.98,-104.935,-17.332
51.01,-107.637,-17.882
51.05,-110.374,-18.26
51.08,-113.708,-18.627
51.11,-117.604,-18.993
51.14,-120.938,-19.371
51.18,-123.395,-19.898
51.21,-126.904,-20.357
51.24,-131.116,-20.712
51.27,-134.906,-21.456
51.31,-138.17,-22.189
51.34,-141.644,-22.797
51.37,-145.47,-23.232
51.4,-149.049,-23.679
51.44,-151.682,-23.839
51.47,-153.928,-23.942
51.5,-156.525,-23.976
51.54,-159.122,-23.965
51.57,-161.403,-24.114
51.6,-164.0,-24.561
51.63,-166.843,-24.79
51.67,-168.878,-24.87
51.7,-170.773,-25.397
51.73,-173.405,-25.901
51.76,-176.213,-26.05
51.8,-178.178,-26.348
51.83,-180.389,-27.047
51.86,-183.548,-27.459
51.89,-186.285,-27.631
51.93,-188.391,-28.032
51.96,-190.672,-28.433
51.99,-193.199,-28.582
52.02,-195.48,-28.639
52.06,-197.305,-28.879
52.09,-199.271,-29.166
52.12,-201.482,-29.315
52.15,-203.096,-29.555
52.19,-204.886,-29.933
52.22,-207.097,-30.071
52.25,-208.571,-30.208
52.28,-209.834,-30.54
52.32,-211.168,-30.976
52.35,-212.993,-31.434
52.38,-215.028,-31.938
52.41,-217.134,-32.488
52.45,-219.38,-32.992
52.48,-221.556,-33.347
52.51,-223.276,-33.679
52.54,-225.171,-34.115
52.58,-227.733,-34.39
52.61,-230.014,-34.642
52.64,-231.979,-35.008
52.67,-234.05,-35.249
52.71,-236.191,-35.455
52.74,-237.981,-35.673
52.77,-239.595,-35.833
52.8,-241.35,-36.085
52.84,-243.947,-36.509
52.87,-246.404,-36.761
52.9,-247.842,-36.944
52.93,-249.141,-37.288
52.97,-251.106,-37.528
53.0,-253.142,-37.677
53.03,-254.546,-37.849
53.06,-255.809,-38.055
53.1,-257.388,-38.193
53.13,-259.143,-38.399
53.16,-261.179,-38.617
53.19,-262.898,-38.811
53.23,-264.091,-39.063
53.26,-265.144,-39.224
53.29,-265.53,-39.522
53.32,-266.162,-39.934
53.36,-267.461,-40.037
53.39,-269.11,-40.22
53.42,-270.76,-40.61
53.45,-272.023,-41.103
53.49,-273.006,-41.194
53.52,-273.567,-41.011
53.55,-274.164,-40.965
53.58,-275.041,-40.988
53.62,-275.989,-41.057
53.65,-277.077,-41.492
53.68,-278.621,-41.881
53.71,-279.674,-42.225
53.75,-280.621,-42.512
53.78,-281.815,-42.626
53.81,-283.078,-42.752
53.85,-284.306,-42.798
53.88,-285.254,-42.844
53.91,-286.447,-43.279
53.94,-288.097,-43.359
53.98,-288.623,-43.359
54.01,-288.939,-43.485
54.04,-289.922,-43.291
54.07,-290.413,-42.867
54.11,-289.43,-42.34
54.14,-288.658,-42.408
54.17,-288.728,-42.912
54.2,-289.114,-43.004
54.24,-288.448,-42.752
54.27,-287.325,-42.901
54.3,-287.289,-42.935
54.33,-287.395,-42.546
54.37,-286.237,-42.34
54.4,-285.535,-42.557
54.43,-286.272,-42.592
54.46,-286.763,-42.431
54.5,-285.921,-42.374
54.53,-284.236,-42.34
54.56,-282.938,-42.053
54.59,-282.797,-41.629
54.63,-282.622,-41.263
54.66,-281.113,-41.137
54.69,-279.288,-41.251
54.72,-278.481,-41.24
54.76,-278.34,-41.011
54.79,-277.744,-40.747
54.82,-276.234,-40.415
54.85,-274.374,-40.06
54.89,-272.9,-39.59
54.92,-271.707,-39.235
54.95,-270.549,-39.144
54.98,-269.426,-39.018
55.02,-268.268,-38.708
55.05,-266.443,-38.525
55.08,-264.337,-38.204
55.11,-262.442,-37.769
55.15,-260.722,-37.368
55.18,-258.862,-37.139
55.21,-256.686,-37.082
55.24,-255.107,-36.979
55.28,-253.563,-36.704
55.31,-251.317,-36.509
55.34,-249.036,-36.165
55.37,-246.719,-35.638
55.41,-245.14,-35.627
55.44,-243.982,-35.489
55.47,-241.911,-35.134
55.5,-239.49,-35.1
55.54,-238.332,-34.985
55.57,-237.56,-34.584
55.6,-235.664,-34.138
55.63,-233.243,-33.897
55.67,-231.558,-33.611
55.7,-230.295,-33.324
55.73,-228.645,-32.923
55.76,-226.189,-32.522
55.8,-224.329,-32.591
55.83,-223.557,-32.58
55.86,-222.293,-31.984
55.89,-219.591,-31.56
55.93,-217.274,-31.537
55.96,-216.537,-31.171
55.99,-215.134,-30.667
56.02,-212.747,-30.529
56.06,-210.536,-30.38
56.09,-208.852,-29.956
56.12,-206.921,-29.441
56.15,-204.64,-28.983
56.19,-202.184,-28.57
56.22,-199.973,-28.123
56.25,-198.077,-27.826
56.29,-196.393,-27.574
56.32,-194.252,-27.276
56.35,-191.795,-26.955
56.38,-189.584,-26.451
56.42,-187.198,-25.947
56.45,-184.776,-25.431
56.48,-182.39,-24.836
56.51,-179.863,-24.492
56.55,-177.406,-24.263
56.58,-174.879,-23.679
56.61,-171.475,-23.117
56.64,-168.246,-22.785
56.68,-165.649,-22.281
56.71,-162.772,-21.72
56.74,-159.613,-21.181
56.77,-156.911,-21.009
56.81,-154.91,-20.815
56.84,-152.243,-20.059
56.87,-148.944,-19.715
56.9,-146.417,-19.486
56.94,-144.241,-18.947
56.97,-140.767,-18.111
57.0,-136.134,-17.538
57.03,-132.695,-17.172
57.07,-130.484,-16.714
57.1,-127.852,-16.255
57.13,-124.132,-15.866
57.16,-120.201,-15.522
57.2,-117.393,-15.11
57.23,-115.428,-14.549
57.26,-112.585,-14.159
57.29,-109.181,-13.861
57.33,-105.988,-13.346
57.36,-103.145,-12.693
57.39,-99.916,-12.166
57.42,-96.126,-11.65
57.46,-92.265,-11.066
57.49,-88.826,-10.493
57.52,-85.808,-10.047
57.55,-82.684,-9.623
57.59,-79.456,-9.21
57.62,-76.051,-8.809
57.65,-72.963,-8.351
57.68,-69.804,-7.847
57.72,-66.716,-7.366
57.75,-63.312,-6.793
57.78,-59.697,-6.289
57.81,-56.258,-5.819
57.85,-52.608,-5.235
57.88,-48.642,-4.662
57.91,-44.852,-4.181
57.94,-41.202,-3.735
57.98,-37.447,-3.265
58.01,-33.516,-2.841
58.04,-29.655,-2.417
58.07,-25.83,-1.982
58.11,-21.724,-1.615
58.14,-17.267,-1.34
58.17,-12.494,-1.168
58.2,-8.458,-0.916
58.24,-3.685,-0.779
58.27,-0.316,-0.779
58.3,0.562,0.057
58.33,0.807,1.352
58.37,2.386,2.761
58.4,6.844,3.574
58.43,10.599,4.353
58.46,13.161,5.785
58.5,16.249,7.045
58.53,20.917,7.721
58.56,25.549,8.397
58.6,29.831,9.268
58.63,34.042,9.783
58.66,38.289,10.069
58.69,42.29,10.459
58.73,46.01,10.883
58.76,49.59,11.192
58.79,53.766,11.421
58.82,57.697,11.559
58.86,60.785,11.914
58.89,63.417,12.349
58.92,66.26,12.75
58.95,69.348,13.14
58.99,72.682,13.598
59.02,75.806,14.033
59.05,78.929,14.445
59.08,82.123,14.904
59.12,85.703,15.396
59.15,89.317,15.74
59.18,92.23,16.233
59.21,95.529,16.588
59.25,99.214,16.748
59.28,102.689,16.989
59.31,105.145,17.367
59.34,107.356,17.871
59.38,110.374,18.375
59.41,114.165,18.787
59.44,117.815,19.154
59.47,120.657,19.612
59.51,123.57,19.944
59.54,127.08,20.265
59.57,130.905,20.689
59.6,133.923,21.055
59.64,135.924,21.433
59.67,138.521,21.96
59.7,142.416,22.407
59.73,145.821,22.636
59.77,148.347,23.197
59.8,150.839,23.576
59.83,153.506,23.885
59.86,156.595,24.148
59.9,159.753,24.481
59.93,162.842,24.916
59.96,165.614,25.225
59.99,168.036,25.477
60.03,170.282,25.878
60.06,172.914,26.187
60.09,175.546,26.485
60.12,178.003,26.989
60.16,181.302,27.562
60.19,183.969,27.78
60.22,185.373,28.204
60.25,186.952,28.639
60.29,189.339,28.868
60.32,192.392,29.086
60.35,194.708,29.303
60.38,196.744,29.807
60.42,199.376,30.105
60.45,201.692,30.243
60.48,203.201,30.529
60.51,205.061,30.77
60.55,207.272,30.724
60.58,208.571,30.838
60.61,210.15,31.239
60.64,212.537,31.594
60.68,214.853,31.858
60.71,216.537,32.121
60.74,218.011,32.534
60.77,220.293,32.9
60.81,222.749,32.9
60.84,224.329,33.107
60.87,225.908,33.576
60.91,228.084,33.966
60.94,230.084,34.115
60.97,232.19,34.687
61.0,234.857,35.283
61.04,236.682,35.283
61.07,237.805,35.283
61.1,239.49,35.604
61.13,242.227,35.638
61.17,243.947,35.73
61.2,245.351,36.268
61.23,247.211,36.795
61.26,248.72,37.253
61.3,250.159,37.792
61.33,251.668,38.147
61.36,253.142,38.41
61.39,254.932,38.766
61.43,256.967,39.144
61.46,258.827,39.499
61.49,260.617,39.865
61.52,262.793,40.014
61.56,264.548,40.14
61.59,265.952,39.934
61.62,266.513,39.739
61.65,267.215,40.003
61.69,268.689,40.152
61.72,270.023,40.404
61.75,271.391,40.942
61.78,272.865,41.297
61.82,274.199,41.446
61.85,275.287,41.492
61.88,276.796,41.4
61.91,278.024,41.297
61.95,279.077,41.481
61.98,280.341,41.744
62.01,281.744,41.847
62.04,282.552,42.065
62.08,283.464,42.248
62.11,284.306,42.03
62.14,284.692,41.916
62.17,284.763,41.87
62.21,285.078,41.698
62.24,285.043,41.733
62.27,285.254,42.134
62.3,285.956,42.042
62.34,286.377,41.847
62.37,286.272,41.836
62.4,284.798,42.225
62.43,284.412,42.981
62.47,285.605,43.279
62.5,286.868,43.737
62.53,287.36,44.15
62.56,287.149,43.943
62.6,287.289,44.287
62.63,288.448,44.287
62.66,288.132,43.611
62.69,286.517,43.371
62.73,285.886,43.13
62.76,286.588,42.924
62.79,286.623,42.729
62.82,285.324,42.844
62.86,284.517,42.683
62.89,284.271,42.099
62.92,283.499,41.675
62.95,282.306,41.469
62.99,280.692,41.183
63.02,279.744,41.068
63.05,279.568,40.999
63.08,278.972,40.805
63.12,277.252,40.495
63.15,274.971,40.22
63.18,273.322,39.877
63.22,272.479,39.441
63.25,271.461,39.155
63.28,269.987,39.201
63.31,268.689,39.167
63.35,267.566,38.983
63.38,266.162,38.892
63.41,264.828,38.651
63.44,263.425,38.17
63.48,261.705,37.78
63.51,259.915,37.563
63.54,257.88,37.425
63.57,256.02,37.288
63.61,254.826,37.139
63.64,253.352,36.852
63.67,251.457,36.509
63.7,249.106,36.188
63.74,247.07,35.959
63.77,245.807,35.718
63.8,244.298,35.363
63.83,242.297,34.905
63.87,239.279,34.458
63.9,236.787,34.355
63.93,235.699,33.886
63.96,233.839,33.278
64.0,231.418,33.381
64.03,230.049,33.37
64.06,228.891,32.877
64.09,226.855,32.614
64.13,225.171,32.602
64.16,223.872,32.247
64.19,221.837,31.743
64.22,219.521,31.423
64.26,217.555,31.113
64.29,215.8,30.712
64.32,213.8,30.472
64.35,211.8,30.288
64.39,209.904,29.991
64.42,208.115,29.532
64.45,205.833,29.04
64.48,203.271,28.673
64.52,201.06,28.295
64.55,199.06,27.952
64.58,197.27,27.745
64.61,195.726,27.539
64.65,193.69,27.276
64.68,190.988,27.024
64.71,188.461,26.669
64.74,186.707,26.176
64.78,184.776,25.66
64.81,181.969,25.259
64.84,179.442,25.042
64.87,177.933,24.744
64.91,176.318,24.228
64.94,173.125,23.61
64.97,169.299,23.129
65.0,166.351,22.636
65.04,164.07,22.052
65.07,161.368,21.617
65.1,158.701,21.261
65.13,155.682,20.563
65.17,152.734,20.368
65.2,150.488,19.99
65.23,147.926,19.474
65.26,145.084,18.947
65.3,141.434,17.939
65.33,137.328,17.584
65.36,133.994,17.264
65.39,131.291,16.794
65.43,128.343,16.416
65.46,125.009,16.026
65.49,121.605,15.625
65.52,118.411,15.121
65.56,115.253,14.675
65.59,112.27,14.239
65.62,109.427,13.838
65.66,106.444,13.392
65.69,103.25,12.922
65.72,99.846,12.395
65.75,96.617,11.822
65.79,93.248,11.226
65.82,89.984,10.631
65.85,86.79,9.978
65.88,83.351,9.52
65.92,79.701,9.142
65.95,76.051,8.718
65.98,72.437,8.225
66.01,69.032,7.778
66.05,66.049,7.24
66.08,62.926,6.656
66.11,59.416,6.186
66.14,55.766,5.831
66.18,52.362,5.361
66.21,48.431,4.857
66.24,44.852,4.365
66.27,41.237,3.792
66.31,37.201,3.276
66.34,33.2,2.887
66.37,29.269,2.52
66.4,25.549,2.188
66.44,22.005,1.867
66.47,17.828,1.673
66.5,13.828,1.489
66.53,9.721,1.226
66.57,5.475,1.157
66.6,1.474,1.249
66.63,-0.246,0.653
66.66,-0.562,-0.527
66.7,-0.737,-1.776
66.73,-3.685,-3.127
66.76,-9.23,-4.239
66.79,-13.652,-5.396
66.83,-16.354,-6.873
66.86,-20.074,-7.985
66.89,-25.198,-8.569
66.92,-30.006,-9.256
66.96,-34.218,-9.978
66.99,-38.324,-10.39
67.02,-42.395,-10.631
67.05,-46.08,-11.009
67.09,-49.976,-11.295
67.12,-53.766,-11.41
67.15,-57.275,-11.582
67.18,-60.539,-11.937
67.22,-64.014,-12.2
67.25,-67.242,-12.418
67.28,-70.19,-12.819
67.31,-72.963,-13.266
67.35,-75.841,-13.655
67.38,-78.683,-14.102
67.41,-81.772,-14.652
67.44,-85.176,-15.19
67.48,-88.896,-15.648
67.51,-92.581,-16.049
67.54,-96.161,-16.416
67.57,-99.53,-16.645
67.61,-102.583,-16.828
67.64,-105.531,-17.034
67.67,-108.234,-17.435
67.7,-110.936,-17.836
67.74,-113.673,-18.272
67.77,-116.621,-18.879
67.8,-119.815,-19.417
67.83,-123.044,-19.864
67.87,-126.659,-20.265
67.9,-130.133,-20.712
67.93,-133.607,-21.216
67.97,-137.047,-21.72
68.0,-140.486,-22.235
68.03,-143.294,-22.35
68.06,-145.926,-23.026
68.1,-149.084,-23.266
68.13,-151.892,-23.45
68.16,-154.068,-23.644
68.19,-156.314,-23.965
68.23,-158.595,-24.32
68.26,-161.578,-24.985
68.29,-165.053,-25.42
68.32,-167.58,-25.603
68.36,-169.545,-26.05
68.39,-172.739,-26.749
68.42,-176.073,-26.806
68.45,-177.477,-26.726
68.49,-178.915,-27.276
68.52,-182.32,-27.7
68.55,-186.18,-28.043
68.58,-188.707,-28.456
68.62,-190.497,-28.834
68.65,-192.497,-28.983
68.68,-195.2,-29.051
68.71,-197.551,-29.154
68.75,-199.165,-29.509
68.78,-201.06,-29.853
68.81,-203.131,-30.014
68.84,-204.956,-30.3
68.88,-206.395,-30.621
68.91,-207.869,-30.804
68.94,-209.729,-30.964
68.97,-211.94,-31.274
69.01,-214.397,-31.709
69.04,-216.573,-32.041
69.07,-218.398,-32.476
69.1,-220.644,-32.969
69.14,-223.1,-33.129
69.17,-224.82,-33.244
69.2,-226.294,-33.588
69.23,-227.979,-34.046
69.27,-229.874,-34.458
69.3,-231.699,-35.008
69.33,-234.331,-35.421
69.36,-236.928,-35.707
69.4,-238.332,-35.97
69.43,-239.665,-36.211
69.46,-242.473,-36.52
69.49,-245.245,-36.612
69.53,-246.684,-36.784
69.56,-247.562,-37.116
69.59,-249.492,-37.368
69.62,-251.773,-37.46
69.66,-253.844,-37.586
69.69,-255.458,-37.769
69.72,-256.616,-37.929
69.75,-257.915,-38.113
69.79,-259.775,-38.353
69.82,-261.951,-38.525
69.85,-263.249,-38.777
69.88,-264.021,-39.063
69.92,-265.25,-39.144
69.95,-266.443,-39.075
69.98,-267.285,-39.258
70.01,-268.654,-39.476
70.05,-270.374,-39.533
70.08,-271.602,-39.957
70.11,-273.076,-40.346
70.14,-273.988,-40.255
70.18,-274.374,-40.266
70.21,-274.901,-40.266
70.24,-275.076,-40.495
70.28,-275.533,-40.942
70.31,-276.55,-41.446
70.34,-277.989,-41.893
70.37,-279.358,-42.374
70.41,-280.727,-42.798
70.44,-282.025,-43.096
70.47,-283.675,-43.142
70.5,-284.868,-43.153
70.54,-285.64,-43.268
70.57,-286.623,-43.52
70.6,-287.746,-43.52
70.63,-288.412,-43.428
70.67,-288.869,-43.348
70.7,-289.325,-43.279
70.73,-289.395,-43.016
70.76,-288.553,-42.477
70.8,-288.518,-42.844
70.83,-289.992,-43.016
70.86,-289.886,-42.328
70.89,-288.483,-42.557
70.93,-287.991,-42.477
70.96,-287.5,-41.847
70.99,-285.886,-41.355
71.02,-284.903,-41.538
71.06,-285.886,-41.618
71.09,-286.447,-41.469
71.12,-285.219,-41.492
71.15,-284.201,-41.87
71.19,-284.482,-41.813
71.22,-283.569,-41.435
71.25,-281.042,-41.492
71.28,-279.498,-41.698
71.32,-279.955,-41.733
71.35,-280.305,-41.526
71.38,-279.323,-41.595
71.41,-277.533,-41.595
71.45,-276.27,-41.309
71.48,-275.568,-40.782
71.51,-274.515,-40.381
71.54,-272.725,-40.094
71.58,-271.321,-39.842
71.61,-270.409,-39.682
71.64,-269.707,-39.556
71.67,-268.689,-39.247
71.71,-266.969,-38.96
71.74,-264.934,-38.491
71.77,-262.828,-37.987
71.8,-261.319,-37.54
71.84,-259.985,-37.105
71.87,-258.02,-36.864
71.9,-255.634,-36.761
71.93,-253.984,-36.623
71.97,-252.299,-36.074
72.0,-250.159,-35.615
72.03,-247.983,-35.432
72.06,-246.509,-35.226
72.1,-245.175,-34.917
72.13,-243.245,-34.676
72.16,-241.209,-34.493
72.19,-239.595,-34.195
72.23,-238.261,-33.84
72.26,-236.401,-33.462
72.29,-234.015,-33.175
72.32,-231.804,-32.958
72.36,-230.435,-32.74
72.39,-228.996,-32.396
72.42,-226.505,-32.213
72.45,-224.644,-32.408
72.49,-223.978,-32.247
72.52,-222.679,-31.56
72.55,-219.556,-31.193
72.59,-217.029,-31.136
72.62,-215.941,-30.747
72.65,-214.923,-30.266
72.68,-213.098,-30.002
72.72,-210.641,-29.819
72.75,-208.466,-29.372
72.78,-206.184,-28.765
72.81,-203.693,-28.295
72.85,-201.376,-27.883
72.88,-199.2,-27.505
72.91,-196.919,-27.39
72.94,-195.024,-27.321
72.98,-193.234,-27.092
73.01,-191.444,-26.726
73.04,-189.163,-26.256
73.07,-186.391,-25.809
73.11,-183.794,-25.34
73.14,-181.548,-24.801
73.17,-179.582,-24.446
73.2,-177.512,-24.183
73.24,-174.985,-23.759
73.27,-171.861,-23.278
73.3,-168.878,-22.797
73.33,-166.316,-22.292
73.37,-163.93,-21.697
73.4,-160.806,-21.044
73.43,-157.578,-20.872
73.46,-155.437,-20.62
73.5,-153.226,-19.807
73.53,-149.962,-19.417
73.56,-146.593,-19.188
73.59,-143.82,-18.604
73.63,-140.451,-17.871
73.66,-136.485,-17.344
73.69,-133.046,-16.908
73.72,-130.098,-16.507
73.76,-127.185,-16.061
73.79,-123.886,-15.637
73.82,-120.728,-15.213
73.85,-117.92,-14.732
73.89,-115.604,-14.228
73.92,-112.936,-13.758
73.95,-109.602,-13.369
73.98,-106.233,-12.968
74.02,-102.934,-12.475
74.05,-99.495,-12.005
74.08,-95.95,-11.524
74.11,-92.16,-10.986
74.15,-88.651,-10.459
74.18,-85.983,-9.943
74.21,-83.386,-9.394
74.24,-80.017,-8.935
74.28,-76.543,-8.534
74.31,-73.595,-7.95
74.34,-70.401,-7.228
74.37,-66.225,-6.828
74.41,-62.189,-6.484
74.44,-58.609,-5.991
74.47,-55.135,-5.522
74.5,-51.45,-5.189
74.54,-47.659,-4.869
74.57,-44.29,-4.365
74.6,-40.991,-3.872
74.63,-37.798,-3.482
74.67,-34.885,-2.83
74.7,-30.849,-2.165
74.73,-26.181,-1.776
74.76,-22.04,-1.398
74.8,-18.039,-0.894
74.83,-13.301,-0.676
74.86,-8.072,-0.699
74.89,-3.053,-0.676
74.93,-0.105,-0.424
74.96,0.491,0.355
74.99,0.772,1.455
75.03,3.123,2.623
75.06,7.791,3.46
75.09,11.371,4.33
75.12,13.406,5.762
75.16,16.425,7.022
75.19,21.373,7.584
75.22,26.321,8.191
75.25,30.392,9.05
75.29,33.972,9.726
75.32,38.289,10.035
75.35,42.641,10.356
75.38,46.957,10.757
75.42,50.713,11.009
75.45,54.117,11.204
75.48,57.626,11.421
75.51,61.241,11.559
75.55,64.435,11.753
75.58,67.418,12.005
75.61,70.085,12.292
75.64,72.998,12.716
75.68,76.262,13.036
75.71,79.07,13.392
75.74,81.491,13.987
75.77,84.404,14.64
75.81,88.159,15.19
75.84,92.16,15.706
75.87,95.389,16.175
75.9,98.337,16.553
75.94,101.46,16.885
75.97,104.443,17.321
76.0,107.567,17.802
76.03,110.796,18.317
76.07,114.691,18.695
76.1,118.376,19.016
76.13,121.149,19.44
76.16,123.325,19.852
76.2,126.378,20.299
76.23,130.414,20.689
76.26,133.958,21.067
76.29,136.134,21.422
76.33,138.486,21.926
76.36,142.451,22.407
76.39,146.558,22.59
76.42,149.4,22.968
76.46,151.717,23.289
76.49,154.243,23.576
76.52,157.086,23.828
76.55,159.929,24.171
76.59,162.491,24.721
76.62,165.263,25.191
76.65,168.246,25.489
76.68,170.844,25.855
76.72,173.405,26.176
76.75,175.757,26.359
76.78,178.249,26.68
76.81,181.372,27.047
76.85,184.496,27.344
76.88,186.882,27.722
76.91,188.777,28.181
76.94,190.988,28.41
76.98,193.34,28.467
77.01,195.375,28.593
77.04,197.2,28.834
77.07,199.2,29.063
77.11,201.447,29.315
77.14,203.412,29.658
77.17,204.781,30.162
77.2,205.939,30.54
77.24,207.062,30.884
77.27,208.922,31.274
77.3,211.554,31.663
77.34,214.362,32.156
77.37,216.678,32.522
77.4,218.678,32.912
77.43,221.31,33.301
77.47,223.837,33.301
77.5,225.311,33.393
77.53,226.645,33.748
77.56,228.996,34.057
77.6,230.997,34.126
77.63,232.611,34.619
77.66,234.998,35.191
77.69,237.209,35.191
77.73,238.191,35.169
77.76,239.42,35.512
77.79,241.911,35.741
77.82,243.912,35.856
77.86,245.351,36.28
77.89,247.351,36.83
77.92,250.018,37.139
77.95,252.159,37.391
77.99,253.423,37.597
78.02,254.686,37.746
78.05,256.651,37.838
78.08,258.792,38.044
78.12,260.371,38.365
78.15,261.81,38.685
78.18,263.144,38.914
78.21,263.705,39.315
78.25,264.162,39.636
78.28,265.144,39.808
78.31,266.408,39.957
78.34,267.706,40.255
78.38,269.215,40.702
78.41,271.181,41.057
78.44,272.865,41.343
78.47,274.339,41.595
78.51,275.708,41.607
78.54,276.866,41.538
78.57,277.849,41.629
78.6,278.902,41.836
78.64,280.13,41.973
78.67,281.218,42.225
78.7,282.166,42.523
78.73,283.289,42.569
78.77,284.061,42.408
78.8,284.833,42.248
78.83,285.114,41.973
78.86,285.008,41.87
78.9,285.429,41.985
78.93,286.552,41.95
78.96,286.728,41.847
78.99,286.272,42.191
79.03,286.412,42.202
79.06,286.517,41.95
79.09,286.974,42.156
79.12,287.465,42.225
79.16,287.886,42.764
79.19,287.781,43.245
79.22,286.903,43.05
79.25,285.921,42.993
79.29,286.272,42.947
79.32,286.342,42.557
79.35,285.114,42.294
79.38,284.166,42.328
79.42,284.833,42.454
79.45,285.745,42.443
79.48,285.254,42.58
79.51,283.78,42.775
79.55,282.727,42.638
79.58,282.727,42.237
79.61,282.973,41.859
79.65,282.236,41.549
79.68,280.446,41.549
79.71,279.568,41.458
79.74,279.077,41.045
79.78,277.744,40.713
79.81,275.848,40.404
79.84,274.129,39.923
79.87,272.725,39.419
79.91,271.461,39.144
79.94,270.409,39.041
79.97,269.496,38.834
80.0,268.233,38.559
80.04,266.373,38.388
80.07,264.478,38.136
80.1,262.863,37.689
80.13,261.319,37.322
80.17,259.529,37.173
80.2,257.002,37.185
80.23,254.967,37.173
80.26,253.703,37.105
80.3,252.58,36.944
80.33,250.65,36.658
80.36,248.439,36.555
80.39,246.474,36.222
80.43,244.859,35.787
80.46,243.385,35.455
80.49,241.525,35.123
80.52,239.595,35.008
80.56,237.91,34.882
80.59,236.05,34.344
80.62,233.699,33.748
80.65,232.19,33.691
80.69,231.839,33.404
80.72,230.154,32.946
80.75,227.242,32.855
80.78,225.487,32.797
80.82,224.574,32.224
80.85,222.504,31.686
80.88,219.626,31.423
80.91,217.31,31.067
80.95,215.59,30.621
80.98,213.765,30.357
81.01,211.8,30.174
81.04,209.624,29.922
81.08,207.413,29.578
81.11,205.237,29.166
81.14,203.096,28.788
81.17,201.236,28.41
81.21,199.236,28.055
81.24,197.2,27.848
81.27,195.34,27.677
81.3,193.655,27.379
81.34,191.304,27.058
81.37,188.882,26.634
81.4,186.636,26.153
81.43,184.25,25.683
81.47,181.688,25.248
81.5,179.372,24.985
81.53,177.477,24.801
81.56,175.546,24.354
81.6,172.528,23.782
81.63,169.545,23.301
81.66,167.404,22.739
81.69,164.842,22.029
81.73,161.298,21.582
81.76,157.788,21.319
81.79,154.98,20.792
81.82,152.734,20.322
81.86,150.067,19.715
81.89,146.768,19.257
81.92,143.083,18.718
81.96,139.609,18.088
81.99,136.766,17.55
82.02,133.994,17.183
82.05,130.94,16.874
82.09,128.098,16.553
82.12,125.36,16.095
82.15,122.096,15.557
82.18,118.411,15.121
82.22,115.077,14.709
82.25,111.813,14.193
82.28,108.69,13.792
82.31,105.812,13.357
82.35,102.654,12.853
82.38,98.863,12.452
82.41,95.564,11.983
82.44,92.932,11.272
82.48,90.089,10.596
82.51,86.58,10.092
82.54,82.965,9.691
82.57,79.736,9.107
82.61,76.367,8.58
82.64,72.858,8.191
82.67,69.524,7.744
82.7,66.225,7.309
82.74,63.347,6.816
82.77,60.294,6.22
82.8,56.433,5.819
82.83,52.538,5.407
82.87,48.923,4.823
82.9,45.343,4.204
82.93,41.412,3.7
82.96,37.025,3.299
83.0,33.095,2.91
83.03,29.48,2.463
83.06,25.584,2.154
83.09,21.759,1.867
83.13,17.723,1.638
83.16,13.722,1.409
83.19,9.897,1.123
83.22,5.37,0.951
83.26,0.983,0.997
83.29,-0.246,0.367
83.32,-0.597,-0.756
83.35,-0.948,-2.005
83.39,-4.282,-3.265
83.42,-9.721,-4.307
83.45,-13.757,-5.499
83.48,-16.53,-6.942
83.52,-20.566,-7.87
83.55,-25.584,-8.351
83.58,-30.112,-9.084
83.61,-33.972,-9.84
83.65,-38.043,-10.207
83.68,-42.255,-10.493
83.71,-46.571,-10.883
83.74,-50.467,-11.204
83.78,-53.906,-11.375
83.81,-57.24,-11.559
83.84,-60.715,-11.765
83.87,-63.943,-12.017
83.91,-66.646,-12.418
83.94,-69.524,-12.807
83.97,-72.261,-13.3
84.0,-75.139,-13.93
84.04,-78.543,-14.365
84.07,-82.193,-14.801
84.1,-85.527,-15.247
84.13,-88.756,-15.683
84.17,-92.476,-16.026
84.2,-96.266,-16.381
84.23,-99.741,-16.645
84.27,-102.232,-16.943
84.3,-104.478,-17.367
84.33,-107.426,-17.882
84.36,-110.831,-18.352
84.4,-114.13,-18.856
84.43,-117.358,-19.36
84.46,-120.833,-19.715
84.49,-124.272,-19.99
84.53,-127.29,-20.288
84.56,-130.098,-20.597
84.59,-132.941,-20.975
84.62,-136.169,-21.456
84.66,-139.574,-21.926
84.69,-142.346,-22.086
84.72,-145.154,-22.808
84.75,-148.523,-23.152
84.79,-151.752,-23.472
84.82,-153.998,-23.793
84.85,-156.349,-24.171
84.88,-159.262,-24.377
84.92,-162.456,-25.053
84.95,-165.79,-25.603
84.98,-168.387,-25.683
85.01,-170.352,-26.016
85.05,-173.476,-26.691
85.08,-177.126,-26.749
85.11,-178.6,-26.6
85.14,-179.863,-27.299
85.18,-183.864,-27.963
85.21,-187.549,-28.02
85.24,-188.356,-28.307
85.27,-189.409,-29.04
85.31,-192.778,-29.154
85.34,-195.656,-29.028
85.37,-196.884,-29.383
85.4,-198.358,-29.968
85.44,-201.236,-30.449
85.47,-203.658,-30.437
85.5,-204.57,-30.563
85.53,-205.833,-31.125
85.57,-208.325,-31.239
85.6,-210.501,-31.125
85.63,-211.905,-31.48
85.66,-214.011,-32.018
85.7,-216.573,-32.259
85.73,-218.608,-32.614
85.76,-220.679,-33.164
85.79,-222.89,-33.359
85.83,-224.644,-33.393
85.86,-226.294,-33.748
85.89,-228.47,-34.149
85.92,-230.576,-34.47
85.96,-232.646,-34.882
85.99,-235.103,-35.169
86.02,-237.209,-35.409
86.05,-238.683,-35.524
86.09,-240.192,-35.569
86.12,-242.297,-36.028
86.15,-244.614,-36.348
86.18,-246.333,-36.509
86.22,-247.456,-36.807
86.25,-248.369,-37.357
86.28,-249.913,-37.815
86.31,-251.738,-38.124
86.35,-253.738,-38.456
86.38,-255.423,-38.8
86.41,-256.757,-39.109
86.44,-258.546,-39.441
86.48,-260.828,-39.671
86.51,-262.723,-39.923
86.54,-264.232,-40.094
86.57,-265.285,-40.094
86.61,-265.987,-40.117
86.64,-267.145,-40.14
86.67,-268.268,-40.255
86.71,-269.566,-40.667
86.74,-271.251,-41.022
86.77,-272.76,-41.332
86.8,-274.129,-41.366
86.84,-275.287,-41.217
86.87,-276.27,-41.148
86.9,-277.147,-41.183
86.93,-278.2,-41.274
86.97,-279.463,-41.503
87.0,-280.902,-41.767
87.03,-282.306,-41.973
87.06,-283.218,-42.202
87.1,-284.026,-42.317
87.13,-284.622,-42.305
87.16,-284.763,-42.305
87.19,-285.184,-42.363
87.23,-286.166,-42.305
87.26,-286.307,-42.603
87.29,-286.588,-43.611
87.32,-288.939,-44.596
87.36,-291.676,-45.089
87.39,-293.501,-45.811
87.42,-295.712,-46.59
87.45,-297.888,-46.888
87.49,-299.117,-47.048
87.52,-300.064,-46.842
87.55,-300.415,-46.189
87.58,-299.397,-45.513
87.62,-297.888,-44.642
87.65,-296.344,-43.691
87.68,-295.326,-42.947
87.71,-294.203,-42.592
87.75,-292.554,-42.512
87.78,-291.255,-42.34
87.81,-290.132,-41.996
87.84,-288.412,-41.71
87.88,-286.412,-41.458
87.91,-285.078,-41.08
87.94,-283.604,-40.839
87.97,-282.166,-40.942
88.01,-281.534,-40.965
88.04,-280.762,-40.896
88.07,-279.323,-40.736
88.1,-277.393,-40.369
88.14,-275.462,-39.854
88.17,-273.883,-39.453
88.2,-272.62,-39.155
88.23,-270.689,-39.052
88.27,-268.443,-39.373
88.3,-267.32,-39.579
88.33,-266.443,-39.315
88.36,-264.618,-38.995
88.4,-262.372,-38.754
88.43,-260.547,-38.422
88.46,-259.178,-38.136
88.49,-258.09,-37.941
88.53,-256.546,-37.861
88.56,-254.932,-37.7
88.59,-253.809,-37.322
88.62,-252.229,-36.956
88.66,-249.702,-36.704
88.69,-247.842,-36.383
88.72,-246.719,-35.948
88.75,-245.14,-35.684
88.79,-243.14,-35.558
88.82,-241.631,-35.375
88.85,-240.437,-34.985
88.88,-238.647,-34.561
88.92,-236.05,-34.218
88.95,-233.91,-33.977
88.98,-232.751,-33.542
89.02,-231.242,-33.026
89.05,-229.242,-33.061
89.08,-227.838,-33.038
89.11,-226.715,-32.648
89.15,-224.434,-31.881
89.18,-221.17,-31.251
89.21,-218.082,-30.77
89.24,-215.695,-30.472
89.28,-213.484,-30.277
89.31,-211.589,-30.128
89.34,-209.904,-30.025
89.37,-208.115,-30.036
89.41,-206.255,-29.704
89.44,-203.833,-29.269
89.47,-201.447,-29.109
89.5,-199.867,-28.845
89.54,-198.183,-28.559
89.57,-196.323,-28.456
89.6,-194.708,-28.341
89.63,-192.953,-27.86
89.67,-190.427,-27.241
89.7,-187.514,-26.772
89.73,-185.443,-26.371
89.76,-180.53,-23.828
89.8,-169.264,-20.196
89.83,-159.122,-18.959
89.86,-156.876,-18.799
89.89,-157.332,-18.627
89.93,-155.367,-19.497
89.96,-152.032,-20.609
89.99,-150.278,-21.239
90.02,-150.909,-21.788
90.06,-151.787,-22.247
90.09,-150.874,-22.396
90.12,-148.558,-22.155
90.15,-146.417,-21.64
90.19,-145.119,-21.055
90.22,-143.329,-20.288
90.25,-140.17,-19.406
90.28,-136.906,-18.695
90.32,-135.011,-18.214
90.35,-133.748,-17.699
90.38,-131.256,-17.229
90.41,-127.992,-16.989
90.45,-125.781,-16.553
90.48,-123.43,-15.832
90.51,-119.394,-15.316
90.54,-115.709,-14.915
90.58,-113.252,-14.319
90.61,-110.55,-13.827
90.64,-107.076,-13.621
90.67,-103.917,-13.243
90.71,-101.109,-12.727
90.74,-98.196,-12.166
90.77,-94.968,-11.501
90.8,-91.563,-10.791
90.84,-88.124,-10.241
90.87,-84.825,-9.749
90.9,-80.965,-9.268
90.93,-76.999,-8.867
90.97,-73.735,-8.454
91.0,-70.506,-7.778
91.03,-66.646,-7.183
91.06,-62.75,-6.724
91.1,-59.346,-6.278
91.13,-56.433,-5.751
91.16,-53.204,-5.224
91.19,-49.203,-4.8
91.23,-45.273,-4.41
91.26,-41.588,-3.792
91.29,-37.762,-3.265
91.33,-33.516,-3.013
91.36,-29.796,-2.704
91.39,-26.286,-2.257
91.42,-22.601,-1.936
91.46,-19.022,-1.684
91.49,-15.091,-1.512
91.52,-10.95,-1.443
91.55,-7.44,-1.157
91.59,-2.773,-1.042
91.62,0.035,-0.813
91.65,0.667,0.218
91.68,0.948,1.753
91.72,3.334,3.265
91.75,8.774,4.33
91.78,13.371,5.51
91.81,16.705,7.045
91.85,20.636,8.271
91.88,25.69,8.844
91.91,30.428,9.462
91.94,34.955,10.173
91.98,39.236,10.505
92.01,42.641,10.768
92.04,46.396,11.249
92.07,50.783,11.444
92.11,54.362,11.41
92.14,57.065,11.49
92.17,59.697,11.788
92.2,63.136,11.994
92.24,66.119,12.235
92.27,68.26,12.704
92.3,70.647,13.197
92.33,74.086,13.655
92.37,78.052,13.987
92.4,80.719,14.445
92.43,83.176,15.213
92.46,87.212,15.832
92.5,91.879,16.21
92.53,95.74,16.542
92.56,98.758,16.874
92.59,101.846,17.137
92.63,105.321,17.286
92.66,108.479,17.401
92.69,110.936,17.756
92.72,113.814,18.26
92.76,116.902,18.615
92.79,119.815,18.982
92.82,122.342,19.417
92.85,125.185,19.83
92.89,128.378,20.208
92.92,131.396,20.62
92.95,134.344,21.021
92.98,137.608,21.502
93.02,140.802,22.018
93.05,143.89,22.522
93.08,147.014,22.991
93.11,150.558,23.404
93.15,153.612,23.747
93.18,156.209,24.263
93.21,159.332,24.744
93.24,162.701,25.191
93.28,165.86,25.569
93.31,168.668,25.844
93.34,171.019,26.107
93.37,173.335,26.371
93.41,176.213,26.474
93.44,179.196,26.634
93.47,181.758,27.001
93.5,184.004,27.459
93.54,186.707,27.7
93.57,188.988,27.917
93.6,190.742,28.284
93.64,192.638,28.501
93.67,194.603,28.616
93.7,196.638,28.948
93.73,198.99,29.326
93.77,201.587,29.521
93.8,203.166,29.75
93.83,204.956,30.151
93.86,207.062,30.197
93.9,208.746,30.288
93.93,210.396,30.609
93.96,212.642,30.976
93.99,215.063,31.308
94.03,217.134,31.743
94.06,219.24,32.259
94.09,221.837,32.694
94.12,223.837,32.843
94.16,225.522,32.923
94.19,227.698,33.152
94.22,229.733,33.507
94.25,231.242,33.851
94.29,232.05,34.344
94.32,233.524,34.905
94.35,236.331,35.466
94.38,238.928,35.558
94.42,239.876,35.707
94.45,241.42,36.474
94.48,244.438,36.818
94.51,246.895,36.921
94.55,248.404,37.322
94.58,250.475,37.838
94.61,252.826,37.895
94.64,254.405,37.952
94.68,255.458,38.136
94.71,256.546,38.113
94.74,258.055,38.25
94.77,259.845,38.628
94.81,261.88,38.834
94.84,263.284,38.846
94.87,264.407,39.075
94.9,265.285,39.189
94.94,266.338,39.189
94.97,267.882,39.373
95.0,269.952,39.648
95.03,271.181,39.819
95.07,271.707,40.232
95.1,272.9,40.598
95.13,274.62,40.598
95.16,275.813,40.576
95.2,277.007,40.782
95.23,278.27,40.965
95.26,278.761,41.343
95.29,279.182,41.939
95.33,280.235,42.191
95.36,281.639,42.179
95.39,282.622,42.225
95.42,283.289,42.443
95.46,284.096,42.5
95.49,284.763,42.317
95.52,284.692,42.225
95.55,285.254,42.546
95.59,286.763,42.466
95.62,287.009,42.134
95.65,286.763,42.386
95.68,287.219,42.546
95.72,287.64,42.443
95.75,287.5,42.202
95.78,287.149,42.191
95.81,287.851,42.305
95.85,288.483,42.019
95.88,287.64,42.065
95.91,287.044,42.191
95.94,287.43,41.836
95.98,287.395,41.389
96.01,285.956,41.274
96.04,284.833,41.343
96.08,285.219,41.423
96.11,286.096,41.492
96.14,285.921,41.652
96.17,285.114,41.687
96.21,284.447,41.389
96.24,282.867,41.183
96.27,280.762,41.32
96.3,279.779,41.309
96.34,279.955,41.137
96.37,279.533,41.057
96.4,278.024,41.068
96.43,276.234,40.873
96.47,275.041,40.427
96.5,273.918,39.98
96.53,272.269,39.693
96.56,270.9,39.453
96.6,269.917,39.327
96.63,269.145,39.258
96.66,268.057,39.086
96.69,266.583,38.811
96.73,264.828,38.41
96.76,262.828,37.952
96.79,261.179,37.574
96.82,260.301,37.242
96.86,258.932,36.944
96.89,256.827,36.761
96.92,254.791,36.646
96.95,253.668,36.348
96.99,252.264,35.959
97.02,249.808,35.753
97.05,247.632,35.684
97.08,246.509,35.375
97.12,245.175,34.974
97.15,243.42,34.63
97.18,241.35,34.344
97.21,238.542,34.0
97.25,235.98,33.679
97.28,234.155,33.29
97.31,232.295,32.786
97.34,230.084,32.751
97.38,228.4,32.706
97.41,226.61,32.305
97.44,224.609,31.904
97.47,222.96,31.835
97.51,221.521,31.594
97.54,219.415,31.136
97.57,217.204,30.896
97.6,215.765,30.678
97.64,214.221,30.392
97.67,212.221,30.151
97.7,210.396,29.922
97.73,208.746,29.475
97.77,206.641,28.902
97.8,203.903,28.478
97.83,201.482,28.1
97.86,199.762,27.654
97.9,198.148,27.31
97.93,195.937,27.15
97.96,193.55,26.966
97.99,191.479,26.565
98.03,189.444,26.164
98.06,187.338,25.683
98.09,184.671,25.179
98.12,181.898,24.733
98.16,179.512,24.481
98.19,177.617,24.297
98.22,175.546,23.862
98.25,172.528,23.289
98.29,169.44,22.945
98.32,166.878,22.35
98.35,163.824,21.514
98.39,160.736,21.124
98.42,158.069,20.677
98.45,155.577,20.196
98.48,152.419,19.921
98.52,149.576,19.715
98.55,147.224,19.131
98.58,144.171,18.34
98.61,139.644,17.607
98.65,135.011,17.057
98.68,131.993,16.576
98.71,129.607,16.152
98.74,126.553,15.786
98.78,123.009,15.568
98.81,119.885,15.213
98.84,117.534,14.789
98.87,114.972,14.457
98.91,112.234,14.102
98.94,109.462,13.758
98.97,106.97,13.311
99.0,104.092,12.807
99.04,100.337,12.349
99.07,96.582,11.822
99.1,93.108,11.169
99.13,89.633,10.608
99.17,86.159,10.138
99.2,83.702,9.577
99.23,81.281,8.901
99.26,77.946,8.374
99.3,74.016,7.778
99.33,70.12,7.091
99.36,65.909,6.553
99.39,62.013,6.197
99.43,58.574,5.728
99.46,55.099,5.418
99.49,51.625,5.247
99.52,48.326,4.926
99.56,44.711,4.502
99.59,41.342,4.135
99.62,38.57,3.54
99.65,35.376,2.887
99.69,31.551,2.394
99.72,27.55,1.925
99.75,23.759,1.409
99.78,19.548,1.065
99.82,14.81,0.928
99.85,10.178,0.997
99.88,6.212,1.02
99.91,2.106,0.939
99.95,-0.14,0.481
99.98,-0.526,-0.664
100.01,-1.193,-2.039
100.04,-4.878,-3.23
100.08,-10.002,-4.17
100.11,-13.792,-5.533
100.14,-16.951,-7.068
100.17,-21.443,-7.973
100.21,-26.602,-8.649
100.24,-31.48,-9.451
100.27,-35.867,-10.001
100.3,-39.482,-10.161
100.34,-43.027,-10.436
100.37,-47.028,-10.688
100.4,-50.818,-10.757
100.43,-54.327,-10.803
100.47,-57.767,-10.963
100.5,-61.171,-11.135
100.53,-64.4,-11.375
100.56,-67.313,-11.708
100.6,-70.015,-12.063
100.63,-72.717,-12.521
100.66,-75.385,-13.014
100.7,-78.368,-13.518
100.73,-81.421,-14.125
100.76,-84.72,-14.778
100.79,-88.194,-15.35
100.83,-91.739,-15.866
100.86,-95.319,-16.324
100.89,-98.758,-16.645
100.92,-101.741,-17.023
100.96,-104.97,-17.412
100.99,-108.725,-17.722
101.02,-112.059,-18.031
101.05,-114.621,-18.524
101.09,-117.253,-19.051
101.12,-120.763,-19.417
101.15,-123.991,-19.715
101.18,-126.939,-20.242
101.22,-129.817,-20.597
101.25,-132.66,-20.941
101.28,-135.924,-21.525
101.31,-139.398,-22.018
101.35,-142.873,-22.464
101.38,-145.891,-22.797
101.41,-148.242,-22.797
101.44,-150.594,-23.026
101.48,-154.068,-23.484
101.51,-157.542,-23.667
101.54,-159.613,-23.954
101.57,-161.613,-24.664
101.61,-165.369,-25.179
101.64,-168.808,-25.385
101.67,-170.668,-25.867
101.7,-172.318,-26.428
101.74,-175.581,-26.634
101.77,-179.231,-26.703
101.8,-181.969,-27.321
101.83,-184.25,-28.02
101.87,-186.882,-28.238
101.9,-189.339,-28.272
101.93,-191.655,-28.444
101.96,-193.901,-28.524
102.0,-195.375,-28.639
102.03,-197.13,-28.868
102.06,-199.411,-29.2
102.09,-201.973,-29.544
102.13,-204.149,-29.75
102.16,-205.447,-29.956
102.19,-206.816,-30.094
102.22,-208.536,-30.14
102.26,-210.115,-30.334
102.29,-211.378,-30.827
102.32,-213.133,-31.468
102.35,-215.379,-32.007
102.39,-217.485,-32.568
102.42,-219.415,-33.118
102.45,-221.626,-33.416
102.48,-224.013,-33.874
102.52,-225.838,-34.115
102.55,-227.452,-34.367
102.58,-229.944,-34.836
102.61,-232.962,-35.146
102.65,-235.243,-35.501
102.68,-236.682,-35.753
102.71,-237.946,-35.787
102.74,-239.244,-35.673
102.78,-241.455,-36.131
102.81,-244.298,-36.578
102.84,-246.263,-36.692
102.87,-247.035,-37.093
102.91,-248.93,-37.677
102.94,-252.089,-37.872
102.97,-254.3,-37.918
103.01,-255.177,-38.239
103.04,-256.3,-38.548
103.07,-258.476,-38.617
103.1,-260.793,-38.754
103.14,-262.161,-39.121
103.17,-263.179,-39.453
103.2,-264.688,-39.51
103.23,-265.776,-39.464
103.27,-265.811,-39.797
103.3,-266.653,-40.175
103.33,-268.443,-39.934
103.36,-269.601,-40.175
103.4,-270.935,-40.885
103.43,-272.655,-41.206
103.46,-274.094,-41.171
103.49,-274.971,-41.32
103.53,-275.954,-41.538
103.56,-277.042,-41.618
103.59,-278.2,-41.744
103.62,-279.604,-41.973
103.66,-280.867,-42.271
103.69,-282.411,-42.557
103.72,-283.675,-42.592
103.75,-284.447,-42.638
103.79,-285.254,-42.603
103.82,-285.921,-42.397
103.85,-286.096,-42.363
103.88,-287.289,-42.855
103.92,-289.29,-43.073
103.95,-290.343,-43.176
103.98,-290.799,-43.554
104.01,-291.922,-43.6
104.05,-292.378,-43.187
104.08,-290.553,-42.431
104.11,-288.553,-41.996
104.14,-289.009,-41.87
104.18,-289.009,-41.618
104.21,-285.851,-41.687
104.24,-283.253,-41.87
104.27,-283.324,-41.721
104.31,-284.201,-41.549
104.34,-283.569,-41.629
104.37,-281.709,-41.813
104.4,-280.937,-41.985
104.44,-281.92,-42.053
104.47,-283.008,-42.076
104.5,-282.481,-42.237
104.53,-281.042,-42.386
104.57,-280.376,-42.305
104.6,-280.305,-42.042
104.63,-280.341,-41.744
104.66,-279.498,-41.481
104.7,-277.673,-41.458
104.73,-276.691,-41.309
104.76,-276.375,-40.896
104.79,-275.357,-40.507
104.83,-273.708,-40.266
104.86,-272.409,-39.865
104.89,-271.181,-39.361
104.92,-269.742,-39.178
104.96,-268.654,-39.041
104.99,-267.496,-38.811
105.02,-266.302,-38.582
105.05,-264.548,-38.284
105.09,-262.231,-37.998
105.12,-260.652,-37.723
105.15,-259.599,-37.345
105.18,-257.634,-37.105
105.22,-255.072,-37.059
105.25,-253.107,-37.013
105.28,-251.878,-36.875
105.31,-250.545,-36.681
105.35,-248.72,-36.463
105.38,-247.105,-36.257
105.41,-245.667,-35.925
105.45,-244.087,-35.615
105.48,-242.122,-35.249
105.51,-239.49,-34.779
105.54,-237.279,-34.47
105.58,-235.84,-34.023
105.61,-234.085,-33.53
105.64,-231.874,-33.324
105.67,-229.909,-33.233
105.71,-228.365,-32.889
105.74,-226.645,-32.454
105.77,-224.364,-32.202
105.8,-222.293,-31.95
105.84,-220.293,-31.48
105.87,-218.257,-31.067
105.9,-216.292,-30.827
105.93,-214.432,-30.678
105.97,-212.537,-30.346
106.0,-210.571,-29.899
106.03,-209.132,-29.865
106.06,-207.974,-29.716
106.1,-205.693,-29.28
106.13,-202.815,-29.005
106.16,-201.06,-28.742
106.19,-199.937,-28.192
106.23,-197.867,-27.745
106.26,-194.814,-27.596
106.29,-192.392,-27.459
106.32,-191.023,-27.138
106.36,-189.655,-26.76
106.39,-187.303,-26.348
106.42,-184.39,-25.981
106.45,-182.285,-25.638
106.49,-180.775,-25.259
106.52,-178.389,-24.859
106.55,-175.055,-24.286
106.58,-171.51,-23.644
106.62,-168.808,-23.083
106.65,-166.457,-22.487
106.68,-163.403,-21.892
106.71,-159.683,-21.399
106.75,-157.086,-21.261
106.78,-155.823,-21.204
106.81,-153.436,-20.483
106.84,-149.576,-20.127
106.88,-146.628,-19.841
106.91,-144.276,-19.142
106.94,-141.293,-18.306
106.97,-137.328,-17.653
107.01,-133.678,-17.321
107.04,-130.94,-16.92
107.07,-128.238,-16.393
107.1,-124.974,-15.958
107.14,-121.57,-15.545
107.17,-118.201,-15.133
107.2,-115.393,-14.617
107.23,-112.796,-14.079
107.27,-109.743,-13.644
107.3,-106.444,-13.254
107.33,-103.075,-12.693
107.36,-99.706,-12.12
107.4,-96.442,-11.524
107.43,-92.827,-10.906
107.46,-88.721,-10.356
107.49,-85.457,-9.817
107.53,-82.614,-9.245
107.56,-79.14,-8.786
107.59,-75.455,-8.408
107.62,-72.121,-7.939
107.66,-68.892,-7.366
107.69,-65.453,-6.954
107.72,-61.838,-6.587
107.76,-58.223,-6.232
107.79,-54.959,-5.751
107.82,-51.695,-5.247
107.85,-48.256,-4.834
107.89,-44.817,-4.399
107.92,-41.412,-3.849
107.95,-37.762,-3.368
107.98,-33.902,-2.978
108.02,-29.866,-2.6
108.05,-26.041,-2.188
108.08,-21.935,-1.776
108.11,-17.688,-1.375
108.15,-12.985,-1.077
108.18,-8.563,-0.79
108.21,-3.58,-0.653
108.24,-0.14,-0.504
108.28,0.526,0.367
108.31,0.842,1.65
108.34,2.808,2.91
108.37,7.475,3.803
108.41,11.652,4.846
108.44,14.424,6.197
108.47,17.863,7.251
108.5,22.075,7.87
108.54,26.216,8.66
108.57,30.743,9.336
108.6,35.06,9.691
108.63,38.885,10.069
108.67,42.395,10.321
108.7,46.291,10.402
108.73,50.151,10.631
108.76,53.836,10.894
108.8,56.609,11.135
108.83,59.135,11.582
108.86,62.189,12.063
108.89,65.628,12.532
108.93,68.892,13.014
108.96,71.805,13.689
108.99,74.753,14.342
109.02,78.262,14.789
109.06,82.018,15.202
109.09,85.176,15.832
109.12,88.826,16.301
109.15,92.862,16.553
109.19,96.196,16.92
109.22,99.144,17.195
109.25,102.127,17.367
109.28,105.286,17.699
109.32,108.69,18.1
109.35,112.024,18.489
109.38,114.972,18.925
109.41,118.552,19.28
109.45,121.815,19.612
109.48,124.342,19.99
109.51,126.799,20.311
109.54,129.993,20.654
109.58,133.467,21.032
109.61,135.994,21.456
109.64,138.24,22.018
109.67,141.855,22.648
109.71,146.101,23.06
109.74,148.979,23.427
109.77,150.734,23.793
109.8,153.542,24.171
109.84,157.648,24.377
109.87,160.947,24.607
109.9,163.193,25.179
109.93,165.79,25.626
109.97,168.668,25.832
110.0,171.194,26.176
110.03,173.476,26.554
110.07,175.862,26.76
110.1,178.214,27.058
110.13,180.775,27.574
110.16,183.688,28.043
110.2,186.356,28.352
110.23,188.882,28.65
110.26,191.023,28.879
110.29,192.918,29.04
110.33,194.603,29.189
110.36,196.674,29.441
110.39,199.271,29.658
110.42,201.271,29.945
110.46,202.675,30.334
110.49,204.605,30.644
110.52,206.711,30.758
110.55,208.255,30.941
110.59,210.045,31.251
110.62,212.326,31.537
110.65,214.713,31.915
110.68,216.888,32.316
110.72,219.135,32.648
110.75,221.837,32.9
110.78,223.732,32.9
110.81,224.539,32.946
110.85,225.838,33.347
110.88,228.435,33.599
110.91,230.646,33.84
110.94,231.699,34.183
110.98,233.243,34.722
111.01,235.84,35.214
111.04,238.051,35.432
111.07,239.49,35.673
111.11,240.823,35.718
111.14,243.069,36.131
111.17,246.263,36.497
111.2,248.544,36.669
111.24,248.439,37.242
111.27,248.685,38.147
111.3,251.247,38.422
111.33,253.668,38.548
111.37,255.142,39.189
111.4,256.757,39.739
111.43,258.371,40.026
111.46,260.266,40.415
111.5,262.758,40.747
111.53,265.144,40.873
111.56,266.302,40.77
111.59,266.864,40.724
111.63,267.882,40.633
111.66,269.391,40.541
111.69,270.76,40.805
111.72,272.269,41.183
111.76,273.322,41.503
111.79,274.655,41.721
111.82,275.848,41.595
111.85,276.48,41.721
111.89,277.638,41.881
111.92,279.042,41.71
111.95,279.955,41.801
111.98,281.148,42.225
112.02,282.376,42.397
112.05,283.183,42.466
112.08,283.92,42.443
112.11,284.096,42.466
112.15,284.061,42.5
112.18,284.447,42.374
112.21,285.043,42.248
112.24,285.64,42.408
112.28,286.166,42.557
112.31,286.412,42.592
112.34,286.517,42.546
112.38,286.693,42.294
112.41,286.938,42.363
112.44,286.517,42.638
112.47,286.096,43.13
112.51,286.517,43.588
112.54,287.535,43.439
112.57,287.5,43.187
112.6,286.693,43.371
112.64,286.307,43.268
112.67,286.447,42.844
112.7,285.921,42.603
112.73,285.5,42.798
112.77,285.57,42.878
112.8,285.429,42.764
112.83,284.868,42.626
112.86,283.745,42.466
112.9,282.867,42.156
112.93,282.095,41.79
112.96,281.183,41.538
112.99,280.095,41.503
113.03,279.393,41.446
113.06,278.621,41.16
113.09,277.498,40.77
113.12,275.638,40.427
113.16,273.532,40.152
113.19,272.163,39.774
113.22,271.146,39.384
113.25,270.058,39.315
113.29,268.654,39.35
113.32,267.075,39.224
113.35,265.916,38.96
113.38,264.828,38.571
113.42,263.249,38.113
113.45,261.389,37.712
113.48,259.634,37.425
113.51,258.336,37.127
113.55,256.721,36.83
113.58,253.984,36.795
113.61,251.562,36.784
113.64,249.913,36.406
113.68,248.72,36.177
113.71,246.93,35.993
113.74,244.333,35.81
113.77,242.332,35.535
113.81,240.788,35.18
113.84,239.525,35.111
113.87,237.805,34.836
113.9,235.243,34.355
113.94,232.506,34.092
113.97,231.137,33.943
114.0,230.4,33.668
114.03,228.751,33.45
114.07,226.715,33.347
114.1,224.925,33.038
114.13,223.627,32.614
114.16,221.802,32.064
114.2,218.924,31.491
114.23,216.783,31.468
114.26,215.976,31.193
114.29,214.362,30.758
114.33,211.975,30.632
114.36,210.045,30.518
114.39,208.501,30.082
114.42,206.29,29.578
114.46,203.728,29.154
114.49,201.482,28.731
114.52,199.411,28.238
114.55,197.411,27.963
114.59,195.164,27.826
114.62,193.164,27.562
114.65,191.304,27.15
114.69,189.304,26.691
114.72,186.566,26.29
114.75,183.934,25.947
114.78,181.653,25.42
114.82,179.512,25.076
114.85,177.722,24.859
114.88,175.406,24.446
114.91,172.142,23.862
114.95,168.913,23.301
114.98,166.597,22.808
115.01,164.175,22.166
115.04,160.736,21.64
115.08,157.332,21.319
115.11,154.77,20.769
115.14,152.594,20.334
115.17,149.646,19.818
115.21,146.172,19.486
115.24,142.767,19.062
115.27,139.117,18.295
115.3,135.713,17.676
115.34,132.906,17.344
115.37,130.484,17.023
115.4,127.887,16.565
115.43,124.834,16.095
115.47,121.324,15.683
115.5,117.955,15.224
115.53,115.007,14.697
115.56,111.989,14.251
115.6,109.181,13.918
115.63,106.409,13.54
115.66,103.285,13.082
115.69,99.846,12.635
115.73,96.687,12.086
115.76,93.423,11.433
115.79,90.265,10.745
115.82,86.545,10.092
115.86,82.614,9.68
115.89,79.315,9.279
115.92,76.227,8.741
115.95,72.823,8.259
115.99,69.418,7.79
116.02,65.733,7.274
116.05,62.259,6.816
116.08,58.89,6.301
116.12,55.591,5.911
116.15,52.327,5.522
116.18,48.782,5.098
116.21,45.203,4.582
116.25,41.623,4.113
116.28,38.148,3.631
116.31,34.253,3.196
116.34,30.182,2.807
116.38,26.427,2.429
116.41,22.917,1.947
116.44,18.846,1.569
116.47,14.108,1.375
116.51,9.792,1.111
116.54,5.229,0.882
116.57,0.948,0.802
