Trigger_Date,2023/08/25
Trigger_Time,T 11:52:05.688 PDT
Samples_Per_Cycle,512
Microseconds_Per_Sample,32.545
Time (ms),Voltage (V),Current (A)
-16.66,4.843,0.298
-16.63,4.808,0.332
-16.6,8.037,0.813
-16.57,12.073,0.676
-16.53,14.214,0.985
-16.5,18.39,1.707
-16.47,23.514,2.486
-16.44,29.305,2.99
-16.4,34.042,3.07
-16.37,36.78,3.356
-16.34,38.113,4.239
-16.31,39.798,5.247
-16.27,42.43,5.808
-16.24,45.343,5.888
-16.21,48.08,5.762
-16.18,50.888,5.785
-16.14,54.152,6.152
-16.11,57.942,6.621
-16.08,62.048,7.125
-16.04,65.804,7.767
-16.01,69.243,8.557
-15.98,72.682,9.439
-15.95,76.086,10.207
-15.91,79.385,10.734
-15.88,82.404,11.215
-15.85,85.457,11.753
-15.82,88.791,12.223
-15.78,92.02,12.578
-15.75,95.284,12.991
-15.72,98.477,13.472
-15.69,101.881,13.941
-15.65,105.251,14.445
-15.62,108.514,14.984
-15.59,111.813,15.683
-15.56,115.077,16.198
-15.52,118.166,16.645
-15.49,120.903,17.057
-15.46,124.062,17.699
-15.43,127.396,18.237
-15.39,130.695,18.547
-15.36,134.029,19.257
-15.33,137.398,19.852
-15.3,140.942,20.437
-15.26,144.136,21.113
-15.23,147.084,21.64
-15.2,149.927,22.166
-15.17,153.085,22.762
-15.13,156.209,23.209
-15.1,159.122,23.495
-15.07,161.789,23.862
-15.04,164.632,24.309
-15.0,167.615,24.652
-14.97,170.457,24.985
-14.94,173.195,25.374
-14.91,175.792,25.706
-14.87,178.459,26.096
-14.84,181.302,26.531
-14.81,183.934,26.898
-14.78,186.32,27.207
-14.74,188.637,27.562
-14.71,191.023,27.837
-14.68,193.234,27.997
-14.65,195.27,28.181
-14.61,197.2,28.41
-14.58,199.271,28.582
-14.55,201.552,28.845
-14.52,203.798,29.028
-14.48,205.693,29.2
-14.45,207.307,29.475
-14.42,209.343,29.842
-14.39,211.519,30.162
-14.35,213.695,30.46
-14.32,215.59,30.804
-14.29,217.52,31.193
-14.25,219.591,31.629
-14.22,221.661,31.984
-14.19,223.381,32.259
-14.16,224.995,32.66
-14.12,227.066,33.095
-14.09,229.172,33.381
-14.06,231.102,33.656
-14.03,232.787,33.954
-13.99,234.752,34.39
-13.96,236.647,34.802
-13.93,238.261,35.008
-13.9,239.735,35.34
-13.86,241.49,35.787
-13.83,243.35,36.131
-13.8,245.105,36.348
-13.77,246.649,36.738
-13.73,248.158,37.036
-13.7,249.562,37.196
-13.67,250.861,37.425
-13.64,252.545,37.712
-13.6,254.089,37.861
-13.57,255.318,38.09
-13.54,256.827,38.514
-13.51,258.652,38.846
-13.47,260.371,39.201
-13.44,261.916,39.739
-13.41,263.179,40.026
-13.38,264.442,40.266
-13.34,265.846,40.656
-13.31,267.496,41.011
-13.28,269.075,41.24
-13.25,270.303,41.526
-13.21,271.321,41.893
-13.18,272.549,42.179
-13.15,273.883,42.26
-13.12,274.936,42.386
-13.08,275.883,42.66
-13.05,276.971,42.912
-13.02,278.13,43.119
-12.99,279.288,43.325
-12.95,280.341,43.497
-12.92,281.113,43.611
-12.89,281.744,43.772
-12.86,282.552,43.875
-12.82,283.113,43.852
-12.79,283.71,43.943
-12.76,284.587,44.115
-12.73,285.324,44.287
-12.69,285.5,44.127
-12.66,285.886,44.241
-12.63,286.272,44.356
-12.6,286.482,44.241
-12.56,286.377,44.081
-12.53,286.272,43.955
-12.5,286.623,43.898
-12.46,286.728,43.76
-12.43,286.552,43.737
-12.4,286.588,43.795
-12.37,286.447,43.737
-12.33,286.342,43.669
-12.3,286.166,43.543
-12.27,285.921,43.508
-12.24,285.71,43.462
-12.2,285.535,43.611
-12.17,285.184,43.554
-12.14,284.306,43.302
-12.11,283.604,43.107
-12.07,283.183,42.993
-12.04,282.306,42.66
-12.01,281.042,42.305
-11.98,280.095,42.282
-11.94,279.849,42.305
-11.91,279.112,42.076
-11.88,277.814,41.847
-11.85,276.726,41.733
-11.81,275.743,41.423
-11.78,274.55,41.251
-11.75,273.216,40.988
-11.72,271.742,40.736
-11.68,270.444,40.507
-11.65,269.25,40.335
-11.62,267.952,40.094
-11.59,266.338,39.865
-11.55,264.899,39.579
-11.52,263.565,39.293
-11.49,262.091,39.029
-11.46,260.477,38.788
-11.42,258.862,38.514
-11.39,257.178,38.307
-11.36,255.493,38.09
-11.33,254.019,37.815
-11.29,252.194,37.563
-11.26,250.194,37.311
-11.23,248.299,37.139
-11.2,246.754,36.944
-11.16,245.07,36.658
-11.13,243.245,36.44
-11.1,241.595,36.348
-11.07,239.911,36.234
-11.03,237.946,36.039
-11.0,236.296,35.936
-10.97,234.752,35.867
-10.94,233.032,35.638
-10.9,231.067,35.443
-10.87,229.137,35.295
-10.84,227.171,35.1
-10.81,225.241,34.79
-10.77,223.1,34.447
-10.74,220.959,34.149
-10.71,218.819,33.84
-10.67,216.924,33.53
-10.64,214.783,33.267
-10.61,212.712,33.061
-10.58,210.712,32.855
-10.54,208.711,32.602
-10.51,206.5,32.328
-10.48,204.359,32.098
-10.45,202.289,31.812
-10.41,200.043,31.48
-10.38,197.726,31.274
-10.35,195.586,31.033
-10.32,193.41,30.655
-10.28,190.988,30.254
-10.25,188.286,29.933
-10.22,185.583,29.578
-10.19,183.197,29.177
-10.15,180.916,28.776
-10.12,178.389,28.307
-10.09,175.546,27.906
-10.06,172.774,27.505
-10.02,170.212,27.058
-9.99,167.685,26.577
-9.96,164.632,26.016
-9.93,161.543,25.5
-9.89,158.49,25.111
-9.86,155.437,24.435
-9.83,152.699,24.068
-9.8,149.857,23.587
-9.76,147.119,23.175
-9.73,144.031,22.762
-9.7,140.907,22.155
-9.67,137.749,21.857
-9.63,134.906,21.422
-9.6,132.169,20.906
-9.57,128.975,20.379
-9.54,125.36,19.818
-9.5,121.851,19.337
-9.47,118.762,18.902
-9.44,115.814,18.272
-9.41,112.515,17.55
-9.37,109.006,17.057
-9.34,105.637,16.611
-9.31,102.478,16.106
-9.28,99.46,15.66
-9.24,96.231,15.167
-9.21,92.862,14.663
-9.18,89.528,14.285
-9.15,86.44,13.827
-9.11,83.105,13.311
-9.08,79.701,12.876
-9.05,76.437,12.475
-9.02,73.454,11.96
-8.98,70.261,11.582
-8.95,67.032,11.169
-8.92,63.593,10.642
-8.88,60.223,10.173
-8.85,56.96,9.909
-8.82,54.117,9.394
-8.79,50.572,8.752
-8.75,46.782,8.191
-8.72,42.851,7.767
-8.69,40.851,6.828
-8.66,43.202,4.536
-8.62,47.098,0.0
-8.59,35.797,-2.234
-8.56,25.9,-0.229
-8.53,27.304,-0.092
-8.49,22.917,-0.997
-8.46,15.582,-0.962
-8.43,8.633,-0.894
-8.4,2.948,-0.722
-8.36,-1.334,-0.573
-8.33,-3.334,-0.218
-8.3,-3.896,-0.344
-8.27,-6.808,-0.561
-8.23,-9.195,-0.733
-8.2,-12.038,-1.226
-8.17,-16.881,-1.501
-8.14,-21.724,-1.936
-8.1,-27.164,-2.451
-8.07,-32.358,-2.807
-8.04,-36.85,-3.013
-8.01,-39.342,-3.288
-7.97,-40.535,-3.918
-7.94,-41.904,-4.88
-7.91,-44.536,-5.59
-7.88,-47.765,-5.648
-7.84,-50.783,-5.579
-7.81,-53.801,-5.797
-7.78,-57.346,-6.255
-7.75,-61.241,-6.828
-7.71,-65.347,-7.549
-7.68,-69.489,-8.374
-7.65,-73.244,-9.222
-7.62,-76.788,-10.081
-7.58,-80.122,-10.757
-7.55,-83.351,-11.398
-7.52,-86.58,-12.051
-7.49,-89.598,-12.487
-7.45,-92.581,-12.842
-7.42,-95.775,-13.254
-7.39,-99.109,-13.644
-7.36,-102.513,-13.999
-7.32,-105.847,-14.48
-7.29,-109.216,-14.938
-7.26,-112.41,-15.431
-7.23,-115.569,-16.072
-7.19,-118.762,-16.633
-7.16,-122.026,-17.046
-7.13,-125.325,-17.71
-7.09,-128.448,-18.18
-7.06,-131.467,-18.65
-7.03,-134.52,-19.28
-7.0,-137.784,-19.841
-6.96,-141.223,-20.322
-6.93,-144.136,-20.643
-6.9,-146.628,-20.849
-6.87,-149.084,-21.296
-6.83,-151.997,-21.834
-6.8,-155.121,-22.132
-6.77,-157.999,-22.35
-6.74,-160.806,-22.819
-6.7,-163.754,-23.415
-6.67,-166.808,-23.85
-6.64,-169.65,-24.274
-6.61,-172.142,-24.824
-6.57,-174.774,-25.271
-6.54,-177.512,-25.683
-6.51,-180.319,-26.073
-6.48,-183.057,-26.565
-6.44,-185.443,-26.817
-6.41,-187.444,-27.012
-6.38,-189.549,-27.344
-6.35,-192.216,-27.848
-6.31,-194.989,-28.169
-6.28,-197.411,-28.341
-6.25,-199.727,-28.811
-6.22,-202.429,-29.464
-6.18,-204.851,-29.762
-6.15,-206.676,-29.91
-6.12,-208.536,-30.323
-6.09,-210.501,-30.621
-6.05,-212.502,-30.724
-6.02,-214.432,-30.873
-5.99,-216.292,-31.136
-5.96,-218.257,-31.411
-5.92,-220.398,-31.72
-5.89,-222.609,-32.144
-5.86,-224.785,-32.568
-5.83,-226.961,-33.072
-5.79,-229.277,-33.725
-5.76,-231.523,-34.115
-5.73,-233.173,-34.458
-5.7,-234.857,-34.836
-5.66,-236.577,-35.134
-5.63,-238.261,-35.214
-5.6,-239.63,-35.237
-5.57,-240.753,-35.295
-5.53,-242.157,-35.547
-5.5,-244.052,-35.856
-5.47,-246.053,-36.211
-5.44,-248.018,-36.658
-5.4,-249.913,-37.185
-5.37,-251.668,-37.723
-5.34,-253.352,-38.193
-5.3,-254.861,-38.491
-5.27,-256.265,-38.731
-5.24,-257.634,-38.995
-5.21,-259.108,-39.086
-5.17,-260.161,-39.109
-5.14,-261.214,-39.258
-5.11,-262.267,-39.419
-5.08,-263.179,-39.441
-5.04,-264.232,-39.567
-5.01,-265.425,-39.785
-4.98,-266.618,-40.014
-4.95,-267.706,-40.301
-4.91,-268.829,-40.621
-4.88,-270.093,-40.77
-4.85,-271.04,-40.954
-4.82,-271.848,-41.274
-4.78,-272.9,-41.549
-4.75,-273.953,-41.801
-4.72,-275.076,-42.053
-4.69,-276.41,-42.374
-4.65,-277.708,-42.683
-4.62,-278.691,-43.142
-4.59,-279.779,-43.52
-4.56,-280.762,-43.68
-4.52,-281.569,-43.898
-4.49,-282.516,-43.966
-4.46,-283.218,-43.966
-4.43,-283.675,-44.253
-4.39,-284.201,-44.253
-4.36,-285.114,-44.436
-4.33,-285.78,-44.619
-4.3,-286.552,-44.745
-4.26,-286.903,-44.86
-4.23,-286.833,-44.7
-4.2,-286.728,-44.631
-4.17,-287.149,-44.585
-4.13,-287.149,-44.413
-4.1,-286.728,-44.184
-4.07,-286.307,-44.001
-4.04,-286.096,-43.84
-4.0,-285.64,-43.611
-3.97,-285.219,-43.394
-3.94,-284.868,-43.21
-3.91,-284.412,-43.222
-3.87,-284.096,-43.084
-3.84,-284.096,-43.107
-3.81,-283.92,-43.359
-3.78,-283.429,-43.359
-3.74,-282.481,-43.153
-3.71,-281.92,-43.073
-3.68,-281.393,-42.958
-3.65,-280.551,-42.58
-3.61,-279.288,-42.26
-3.58,-278.2,-42.145
-3.55,-277.322,-41.904
-3.51,-276.62,-41.595
-3.48,-275.357,-41.366
-3.45,-273.602,-41.022
-3.42,-272.234,-40.919
-3.38,-271.637,-40.828
-3.35,-270.654,-40.507
-3.32,-269.04,-40.232
-3.29,-267.531,-40.175
-3.25,-266.267,-40.014
-3.22,-264.969,-39.705
-3.19,-263.53,-39.464
-3.16,-261.951,-39.27
-3.12,-260.266,-39.063
-3.09,-259.003,-38.914
-3.06,-257.845,-38.8
-3.03,-256.23,-38.582
-2.99,-254.37,-38.319
-2.96,-252.615,-38.09
-2.93,-251.001,-37.918
-2.9,-249.457,-37.666
-2.86,-247.421,-37.208
-2.83,-245.035,-36.818
-2.8,-243.14,-36.692
-2.77,-241.49,-36.326
-2.73,-239.314,-35.81
-2.7,-236.928,-35.489
-2.67,-234.998,-35.398
-2.64,-233.453,-35.214
-2.6,-231.664,-34.951
-2.57,-229.768,-34.848
-2.54,-228.294,-34.882
-2.51,-226.996,-34.813
-2.47,-225.171,-34.538
-2.44,-222.89,-34.378
-2.41,-220.819,-34.355
-2.38,-219.029,-34.183
-2.34,-217.239,-33.817
-2.31,-215.028,-33.45
-2.28,-212.817,-33.233
-2.25,-210.747,-33.015
-2.21,-208.746,-32.694
-2.18,-206.535,-32.35
-2.15,-204.254,-32.064
-2.12,-202.113,-31.789
-2.08,-199.937,-31.48
-2.05,-197.621,-31.251
-2.02,-195.515,-30.907
-1.99,-193.129,-30.46
-1.95,-190.462,-30.071
-1.92,-187.9,-29.75
-1.89,-185.443,-29.361
-1.86,-182.986,-28.868
-1.82,-180.354,-28.444
-1.79,-177.722,-28.089
-1.76,-175.125,-27.631
-1.72,-172.388,-27.127
-1.69,-169.44,-26.714
-1.66,-166.632,-26.29
-1.63,-163.93,-25.764
-1.59,-160.912,-25.248
-1.56,-158.139,-24.847
-1.53,-155.577,-24.423
-1.5,-152.699,-23.908
-1.46,-149.506,-23.438
-1.43,-146.347,-23.071
-1.4,-143.504,-22.659
-1.37,-140.767,-22.224
-1.33,-137.924,-21.731
-1.3,-135.152,-21.399
-1.27,-132.098,-20.998
-1.24,-128.729,-20.368
-1.2,-125.43,-19.933
-1.17,-122.202,-19.44
-1.14,-119.043,-18.764
-1.11,-115.533,-18.031
-1.07,-111.813,-17.447
-1.04,-108.304,-16.885
-1.01,-105.11,-16.324
-0.98,-102.127,-15.797
-0.94,-99.249,-15.419
-0.91,-96.196,-15.053
-0.88,-93.108,-14.697
-0.85,-89.844,-14.297
-0.81,-86.369,-13.815
-0.78,-82.895,-13.426
-0.75,-79.701,-12.91
-0.72,-76.332,-12.292
-0.68,-72.928,-11.788
-0.65,-69.629,-11.249
-0.62,-66.4,-10.711
-0.59,-62.891,-10.161
-0.55,-59.486,-9.542
-0.52,-55.836,-9.096
-0.49,-52.538,-8.592
-0.46,-48.853,-7.973
-0.42,-45.413,-7.297
-0.39,-41.342,-6.713
-0.36,-38.429,-6.083
-0.33,-39.026,-4.594
-0.29,-44.15,-0.813
-0.26,-36.85,2.211
-0.23,-25.584,0.584
-0.2,-27.164,-0.057
-0.16,-24.11,1.02
-0.13,-16.705,1.065
-0.1,-10.107,0.882
-0.07,-4.562,0.871
-0.03,1.299,0.882
0.0,4.703,0.389
0.03,5.229,0.344
0.07,7.791,0.676
0.1,11.02,0.573
0.13,13.441,0.802
0.16,17.056,1.363
0.2,21.619,2.096
0.23,27.023,2.692
0.26,32.253,2.91
0.29,36.113,2.978
0.33,38.184,3.482
0.36,39.693,4.456
0.39,42.009,5.281
0.42,44.992,5.567
0.46,47.729,5.544
0.49,50.151,5.625
0.52,52.994,5.957
0.55,56.609,6.404
0.59,60.68,6.862
0.62,64.645,7.354
0.65,68.19,8.053
0.68,71.664,8.912
0.72,75.174,9.806
0.75,78.648,10.596
0.78,82.053,11.284
0.81,85.352,11.868
0.85,88.756,12.406
0.88,92.125,12.853
0.91,95.459,13.334
0.94,98.828,13.884
0.98,102.373,14.434
1.01,105.952,15.007
1.04,109.497,15.637
1.07,113.007,16.152
1.11,116.411,16.771
1.14,119.604,17.412
1.17,122.763,17.905
1.2,125.711,18.398
1.24,128.729,18.913
1.27,131.923,19.268
1.3,135.152,19.658
1.33,138.416,20.162
1.37,141.574,20.586
1.4,144.347,20.895
1.43,147.26,21.422
1.46,150.208,21.937
1.5,153.12,22.189
1.53,155.893,22.556
1.56,158.595,22.945
1.59,161.438,23.392
1.63,164.281,23.782
1.66,167.088,24.102
1.69,169.931,24.469
1.72,172.493,24.881
1.76,175.02,25.271
1.79,177.652,25.626
1.82,180.354,26.05
1.86,182.916,26.394
1.89,185.583,26.806
1.92,188.321,27.333
1.95,191.023,27.745
1.99,193.094,27.917
2.02,195.164,28.398
2.05,197.797,28.994
2.08,200.569,29.154
2.12,202.71,29.212
2.15,204.816,29.624
2.18,206.992,30.082
2.21,209.167,30.323
2.25,210.852,30.403
2.28,212.782,30.724
2.31,215.063,31.045
2.34,217.064,31.159
2.38,218.713,31.457
2.41,220.609,31.892
2.44,222.855,32.282
2.47,224.96,32.522
2.51,226.68,32.855
2.54,228.084,33.049
2.57,229.839,33.37
2.6,231.769,33.645
2.64,233.383,33.759
2.67,234.752,34.0
2.7,236.261,34.286
2.73,237.91,34.493
2.77,239.63,34.733
2.8,241.35,35.054
2.83,242.859,35.432
2.86,244.438,35.787
2.9,246.053,36.085
2.93,247.702,36.406
2.96,249.246,36.83
2.99,250.861,37.185
3.03,252.58,37.494
3.06,254.124,37.918
3.09,255.809,38.388
3.12,257.599,38.766
3.16,259.389,39.224
3.19,261.108,39.693
3.22,262.582,40.014
3.25,263.811,40.198
3.29,265.004,40.484
3.32,266.548,40.77
3.35,267.952,41.022
3.38,269.25,41.24
3.42,270.409,41.446
3.45,271.532,41.698
3.48,272.83,41.939
3.51,274.094,42.019
3.55,275.076,42.214
3.58,276.024,42.546
3.61,277.322,42.729
3.65,278.375,42.89
3.68,279.428,43.199
3.71,280.446,43.394
3.74,281.218,43.474
3.78,281.955,43.531
3.81,282.587,43.646
3.84,283.078,43.623
3.87,283.604,43.646
3.91,284.271,43.817
3.94,285.078,43.932
3.97,285.5,43.966
4.0,285.851,44.092
4.04,286.026,44.058
4.07,286.026,43.943
4.1,285.991,43.84
4.13,285.991,43.623
4.17,285.886,43.52
4.2,286.166,43.657
4.23,286.096,43.554
4.26,285.64,43.382
4.3,285.57,43.394
4.33,285.921,43.508
4.36,285.429,43.325
4.39,284.692,43.119
4.43,284.447,43.291
4.46,284.938,43.291
4.49,284.938,43.245
4.52,284.201,43.256
4.56,283.64,43.233
4.59,283.324,43.107
4.62,282.657,42.947
4.65,281.639,42.798
4.69,280.867,42.706
4.72,280.305,42.5
4.75,279.393,42.202
4.78,278.13,41.996
4.82,276.866,41.744
4.85,275.919,41.549
4.88,274.655,41.274
4.91,273.322,40.942
4.95,272.093,40.747
4.98,271.111,40.576
5.01,269.847,40.289
5.04,268.127,40.049
5.08,266.548,39.842
5.11,265.32,39.625
5.14,263.776,39.327
5.17,262.021,38.937
5.21,260.371,38.743
5.24,258.932,38.514
5.27,257.564,38.273
5.3,255.879,38.01
5.34,253.738,37.757
5.37,251.843,37.563
5.4,250.65,37.574
5.44,249.246,37.334
5.47,247.421,36.956
5.5,245.526,36.738
5.53,243.842,36.658
5.57,242.297,36.555
5.6,240.578,36.383
5.63,238.647,36.177
5.66,236.928,36.028
5.7,235.278,35.89
5.73,233.418,35.661
5.76,231.488,35.478
5.79,229.733,35.363
5.83,227.803,35.1
5.86,225.803,34.722
5.89,223.697,34.401
5.92,221.591,34.16
5.96,219.45,33.897
5.99,217.45,33.656
6.02,215.485,33.439
6.05,213.519,33.164
6.09,211.273,32.82
6.12,208.817,32.534
6.15,206.535,32.247
6.18,204.289,31.858
6.22,201.973,31.468
6.25,199.622,31.136
6.28,197.305,30.793
6.31,195.024,30.529
6.35,192.778,30.185
6.38,190.392,29.865
6.41,188.11,29.635
6.44,185.654,29.315
6.48,183.092,28.902
6.51,180.6,28.65
6.54,178.178,28.307
6.57,175.511,27.837
6.61,172.668,27.413
6.64,169.861,26.955
6.67,166.983,26.474
6.7,164.175,25.89
6.74,161.192,25.317
6.77,158.034,24.813
6.8,154.875,24.171
6.83,152.138,23.862
6.87,149.541,23.461
6.9,146.698,22.98
6.93,143.364,22.533
6.96,140.381,22.144
7.0,137.398,21.72
7.03,134.59,21.25
7.06,131.677,20.849
7.09,128.484,20.276
7.13,125.009,19.772
7.16,121.675,19.303
7.19,118.622,18.81
7.23,115.533,18.237
7.26,112.34,17.619
7.29,109.006,17.172
7.32,105.812,16.782
7.36,102.689,16.324
7.39,99.635,15.866
7.42,96.477,15.396
7.45,93.073,14.904
7.49,89.633,14.423
7.52,86.299,13.987
7.55,83.07,13.518
7.58,79.947,13.002
7.62,76.683,12.487
7.65,73.174,11.937
7.68,69.664,11.467
7.71,66.576,11.043
7.75,63.417,10.516
7.78,59.978,9.921
7.81,56.363,9.52
7.84,53.169,9.119
7.88,49.835,8.637
7.91,46.677,8.042
7.94,42.711,7.572
7.97,40.781,6.828
8.01,42.886,4.811
8.04,47.729,0.458
8.07,38.078,-2.234
8.1,27.339,-0.344
8.14,28.708,-0.057
8.17,24.005,-1.077
8.2,16.284,-0.974
8.23,9.441,-0.871
8.27,3.474,-0.813
8.3,-2.071,-0.71
8.33,-4.387,-0.195
8.36,-4.843,-0.344
8.4,-7.686,-0.504
8.43,-8.949,-0.894
8.46,-11.932,-1.741
8.49,-17.618,-1.947
8.53,-23.058,-2.085
8.56,-28.322,-2.406
8.59,-33.095,-2.749
8.62,-37.096,-3.116
8.66,-39.412,-3.746
8.69,-40.746,-4.594
8.72,-42.36,-5.396
8.75,-44.992,-5.854
8.79,-48.116,-5.865
8.82,-50.888,-5.648
8.85,-53.836,-5.716
8.88,-57.17,-6.152
8.92,-61.031,-6.736
8.95,-65.242,-7.423
8.98,-69.243,-8.076
9.02,-72.647,-8.821
9.05,-75.876,-9.726
9.08,-79.245,-10.573
9.11,-82.404,-11.112
9.15,-85.773,-11.65
9.18,-89.037,-12.189
9.21,-92.3,-12.532
9.24,-95.424,-12.887
9.28,-98.582,-13.414
9.31,-102.022,-13.861
9.34,-105.496,-14.388
9.37,-108.9,-14.938
9.41,-112.059,-15.465
9.44,-115.288,-16.061
9.47,-118.692,-16.633
9.5,-121.64,-17.057
9.54,-124.623,-17.63
9.57,-127.817,-18.329
9.6,-131.221,-18.787
9.63,-134.555,-19.28
9.67,-137.854,-19.841
9.7,-141.118,-20.391
9.73,-144.066,-20.918
9.76,-146.873,-21.273
9.8,-149.786,-21.731
9.83,-152.734,-22.098
9.86,-155.647,-22.453
9.89,-158.35,-22.762
9.93,-161.087,-23.163
9.96,-164.07,-23.759
9.99,-167.194,-24.183
10.02,-170.036,-24.526
10.06,-172.668,-25.03
10.09,-175.23,-25.454
10.12,-177.968,-25.741
10.15,-180.6,-26.164
10.19,-183.653,-26.737
10.22,-186.25,-26.943
10.25,-188.286,-27.161
10.28,-190.427,-27.654
10.32,-193.164,-28.192
10.35,-195.972,-28.387
10.38,-198.183,-28.478
10.41,-200.183,-28.879
10.45,-202.71,-29.452
10.48,-205.061,-29.727
10.51,-206.992,-29.899
10.54,-208.817,-30.243
10.58,-211.063,-30.644
10.61,-213.203,-30.884
10.64,-215.379,-31.113
10.67,-217.485,-31.491
10.71,-219.38,-31.904
10.74,-221.416,-32.282
10.77,-223.416,-32.602
10.81,-224.995,-32.809
10.84,-226.68,-32.992
10.87,-228.68,-33.37
10.9,-230.435,-33.576
10.94,-231.944,-33.817
10.97,-233.453,-34.149
11.0,-235.384,-34.481
11.03,-237.419,-34.664
11.07,-238.893,-34.848
11.1,-240.157,-35.191
11.13,-241.946,-35.65
11.16,-243.947,-36.074
11.2,-245.982,-36.474
11.23,-247.667,-36.933
11.26,-249.352,-37.471
11.29,-251.106,-37.803
11.33,-252.475,-37.987
11.36,-253.563,-38.239
11.39,-254.756,-38.445
11.42,-256.195,-38.525
11.46,-257.564,-38.582
11.49,-258.687,-38.731
11.52,-259.95,-38.995
11.55,-261.249,-39.315
11.59,-262.582,-39.579
11.62,-263.741,-39.819
11.65,-265.25,-40.117
11.68,-266.794,-40.415
11.72,-268.163,-40.873
11.75,-269.496,-41.297
11.78,-270.76,-41.641
11.81,-271.848,-41.95
11.85,-272.971,-42.237
11.88,-274.234,-42.408
11.91,-275.217,-42.603
11.94,-276.199,-42.878
11.98,-277.533,-43.107
12.01,-278.621,-43.336
12.04,-279.463,-43.669
12.07,-280.376,-43.863
12.11,-281.148,-43.955
12.14,-281.92,-44.081
12.17,-282.552,-44.069
12.2,-282.973,-44.069
12.24,-283.534,-44.173
12.27,-283.85,-44.058
12.3,-284.447,-44.23
12.33,-285.254,-44.333
12.37,-285.71,-44.425
12.4,-285.921,-44.585
12.43,-285.956,-44.402
12.46,-286.342,-44.585
12.5,-286.658,-44.39
12.53,-286.482,-44.276
12.56,-286.588,-44.47
12.6,-286.658,-44.276
12.63,-285.991,-44.104
12.66,-285.745,-44.001
12.69,-285.535,-43.84
12.73,-285.219,-43.543
12.76,-284.552,-43.439
12.79,-283.955,-43.291
12.82,-283.71,-43.268
12.86,-283.429,-43.256
12.89,-282.762,-43.084
12.92,-281.429,-42.89
12.95,-280.692,-42.844
12.99,-280.376,-42.66
13.02,-279.639,-42.317
13.05,-278.445,-42.145
13.08,-277.428,-42.076
13.12,-276.48,-41.904
13.15,-275.392,-41.675
13.18,-274.374,-41.435
13.21,-273.181,-41.217
13.25,-271.777,-41.103
13.28,-270.97,-40.999
13.31,-270.058,-40.828
13.34,-268.864,-40.736
13.38,-267.741,-40.702
13.41,-266.583,-40.53
13.44,-265.25,-40.358
13.47,-263.951,-40.175
13.51,-262.407,-39.9
13.54,-260.793,-39.613
13.57,-259.354,-39.293
13.6,-257.88,-39.086
13.64,-256.3,-38.914
13.67,-254.581,-38.617
13.7,-252.826,-38.33
13.73,-251.106,-38.01
13.77,-249.352,-37.78
13.8,-247.491,-37.483
13.83,-245.456,-37.082
13.86,-243.491,-36.944
13.9,-241.911,-36.658
13.93,-239.735,-36.177
13.96,-237.419,-35.925
13.99,-235.699,-35.879
14.03,-234.366,-35.684
14.06,-232.787,-35.432
14.09,-230.821,-35.237
14.12,-228.926,-35.26
14.16,-227.382,-35.283
14.19,-225.768,-34.997
14.22,-223.592,-34.745
14.25,-221.521,-34.596
14.29,-219.591,-34.309
14.32,-217.38,-33.943
14.35,-215.063,-33.668
14.39,-213.063,-33.381
14.42,-210.992,-33.038
14.45,-208.711,-32.66
14.48,-206.5,-32.316
14.52,-204.289,-31.995
14.55,-201.973,-31.64
14.58,-199.797,-31.319
14.61,-197.446,-31.056
14.65,-195.094,-30.758
14.68,-192.743,-30.426
14.71,-190.321,-30.036
14.74,-187.83,-29.67
14.78,-185.338,-29.235
14.81,-182.6,-28.822
14.84,-179.933,-28.547
14.87,-177.687,-28.226
14.91,-175.301,-27.7
14.94,-172.388,-27.218
14.97,-169.37,-26.863
15.0,-166.667,-26.485
15.04,-164.035,-25.958
15.07,-161.017,-25.351
15.1,-158.174,-24.973
15.13,-155.331,-24.526
15.17,-152.419,-24.022
15.2,-150.172,-24.022
15.23,-148.804,-24.045
15.26,-147.54,-24.011
15.3,-145.259,-23.885
15.33,-142.416,-23.793
15.36,-139.714,-23.896
15.39,-137.292,-23.747
15.43,-134.344,-22.98
15.46,-130.449,-22.006
15.49,-126.343,-21.078
15.52,-122.202,-20.024
15.56,-118.341,-18.936
15.59,-114.551,-17.951
15.62,-110.901,-17.092
15.65,-107.637,-16.336
15.69,-104.163,-15.591
15.72,-100.513,-14.938
15.75,-96.968,-14.434
15.78,-93.494,-13.964
15.82,-89.879,-13.414
15.85,-86.124,-12.876
15.88,-82.509,-12.361
15.91,-79.07,-11.879
15.95,-75.63,-11.249
15.98,-71.98,-10.573
16.01,-68.05,-10.035
16.04,-64.645,-9.611
16.08,-61.241,-9.096
16.11,-58.083,-8.523
16.14,-54.573,-8.065
16.18,-51.169,-7.698
16.21,-47.554,-7.32
16.24,-44.325,-6.782
16.27,-40.219,-6.278
16.31,-37.061,-5.797
16.34,-37.622,-4.387
16.37,-42.57,-0.55
16.4,-33.902,2.28
16.44,-22.672,0.55
16.47,-23.549,0.126
16.5,-19.653,1.02
16.53,-12.494,1.031
16.57,-6.001,0.916
16.6,0.0,0.916
16.63,4.001,0.412
16.66,3.334,0.092
16.7,4.633,0.699
16.73,9.23,0.745
16.76,12.108,0.481
16.79,15.021,0.664
16.83,19.197,1.077
16.86,23.198,2.039
16.89,28.497,2.875
16.92,33.481,3.013
16.96,37.025,3.036
16.99,38.85,3.7
17.02,40.781,4.731
17.05,43.553,5.544
17.09,46.887,5.9
17.12,50.116,6.106
17.15,53.134,6.427
17.18,56.433,6.885
17.22,60.223,7.412
17.25,64.294,8.019
17.28,68.155,8.66
17.31,71.594,9.336
17.35,74.683,9.978
17.38,78.017,10.711
17.41,81.526,11.352
17.44,84.93,11.627
17.48,87.738,11.914
17.51,90.546,12.452
17.54,93.95,13.036
17.57,97.565,13.369
17.61,100.829,13.712
17.64,102.899,13.781
17.67,104.233,13.77
17.7,105.672,13.804
17.74,108.023,13.815
17.77,110.866,13.781
17.8,113.147,13.495
17.83,114.551,13.231
17.87,116.341,13.575
17.9,119.464,14.319
17.93,123.676,15.03
17.97,127.782,15.832
18.0,131.396,16.885
18.03,134.801,18.203
18.06,138.486,19.578
18.1,142.522,20.792
18.13,146.277,21.754
18.16,149.295,22.419
18.19,152.068,23.117
18.23,155.261,23.805
18.26,158.806,24.286
18.29,162.21,24.629
18.32,165.228,24.996
18.36,168.176,25.477
18.39,171.194,26.004
18.42,174.213,26.439
18.45,177.055,26.829
18.49,179.968,27.287
18.52,182.776,27.722
18.55,185.513,28.066
18.58,188.075,28.433
18.62,190.567,28.742
18.65,193.059,28.971
18.68,195.48,29.177
18.71,197.867,29.452
18.75,200.183,29.693
18.78,202.359,29.933
18.81,204.605,30.185
18.84,206.886,30.403
18.88,208.852,30.54
18.91,210.571,30.781
18.94,212.396,31.067
18.97,214.572,31.308
19.01,216.713,31.537
19.04,218.573,31.778
19.07,220.293,32.133
19.1,222.469,32.534
19.14,224.574,32.683
19.17,226.224,32.912
19.2,227.979,33.278
19.23,229.979,33.645
19.27,231.839,34.012
19.3,233.699,34.309
19.33,235.629,34.607
19.36,237.384,34.928
19.4,238.893,35.226
19.43,240.508,35.558
19.46,242.332,35.89
19.49,244.157,36.177
19.53,245.737,36.497
19.56,247.386,36.875
19.59,249.281,37.311
19.62,251.141,37.654
19.66,252.615,37.987
19.69,254.195,38.376
19.72,255.984,38.777
19.76,257.774,39.121
19.79,259.283,39.384
19.82,260.687,39.728
19.85,262.196,40.003
19.89,263.354,40.026
19.92,264.232,40.106
19.95,265.285,40.289
19.98,266.548,40.438
20.02,267.741,40.598
20.05,268.864,40.816
20.08,270.128,41.045
20.11,271.251,41.217
20.15,272.374,41.446
20.18,273.427,41.755
20.21,274.48,42.053
20.24,275.603,42.271
20.28,276.691,42.466
20.31,277.814,42.775
20.34,278.902,43.061
20.37,279.814,43.313
20.41,280.692,43.474
20.44,281.323,43.588
20.47,281.955,43.634
20.5,282.411,43.543
20.54,282.727,43.462
20.57,283.253,43.531
20.6,283.78,43.565
20.63,284.096,43.565
20.67,284.341,43.611
20.7,284.763,43.68
20.73,285.114,43.703
20.76,285.114,43.691
20.8,285.184,43.783
20.83,285.675,43.921
20.86,286.026,44.001
20.89,286.096,44.069
20.93,286.237,44.138
20.96,286.237,44.115
20.99,286.026,44.047
21.02,285.64,43.989
21.06,285.605,43.966
21.09,285.535,43.955
21.12,285.429,43.909
21.15,285.078,43.898
21.19,284.798,43.863
21.22,284.236,43.76
21.25,283.394,43.577
21.28,282.657,43.417
21.32,282.13,43.21
21.35,281.569,43.073
21.38,280.832,42.912
21.41,279.919,42.786
21.45,278.867,42.66
21.48,277.954,42.397
21.51,276.796,42.007
21.55,275.462,41.584
21.58,273.988,41.263
21.61,272.76,40.965
21.64,271.286,40.644
21.68,269.847,40.369
21.71,268.443,40.14
21.74,266.829,39.842
21.77,265.144,39.522
21.81,263.565,39.327
21.84,262.267,39.052
21.87,260.652,38.777
21.9,258.968,38.617
21.94,257.634,38.491
21.97,256.23,38.284
22.0,254.616,38.147
22.03,252.896,38.032
22.07,251.492,37.964
22.1,250.194,37.872
22.13,248.579,37.769
22.16,246.895,37.666
22.2,245.316,37.528
22.23,243.561,37.345
22.26,241.49,36.956
22.29,239.384,36.555
22.33,237.384,36.257
22.36,235.313,35.81
22.39,232.927,35.421
22.42,230.681,35.088
22.46,228.786,34.745
22.49,227.031,34.481
22.52,224.995,34.195
22.55,222.714,33.977
22.59,220.784,33.874
22.62,219.099,33.794
22.65,217.274,33.576
22.68,215.169,33.37
22.72,213.133,33.267
22.75,211.168,33.015
22.78,208.781,32.66
22.81,206.36,32.385
22.85,204.219,32.11
22.88,202.219,31.72
22.91,200.043,31.388
22.94,197.656,31.182
22.98,195.621,30.999
23.01,193.55,30.735
23.04,191.093,30.437
23.07,188.637,30.14
23.11,186.32,29.819
23.14,183.759,29.372
23.17,181.126,29.028
23.2,178.705,28.662
23.24,176.073,28.226
23.27,173.23,27.711
23.3,170.563,27.321
23.34,167.65,26.657
23.37,164.491,26.027
23.4,161.438,25.649
23.43,158.806,25.122
23.47,155.963,24.595
23.5,153.015,24.148
23.53,150.032,23.69
23.56,146.873,23.129
23.6,143.68,22.693
23.63,140.556,22.166
23.66,137.292,21.559
23.69,134.064,20.998
23.73,130.94,20.483
23.76,127.957,20.001
23.79,125.079,19.589
23.82,122.026,19.165
23.86,118.832,18.753
23.89,115.639,18.432
23.92,112.761,18.111
23.95,109.953,17.722
23.99,107.076,17.241
24.02,103.777,16.794
24.05,100.478,16.37
24.08,97.249,15.912
24.12,93.985,15.431
24.15,90.721,14.869
24.18,87.317,14.274
24.21,83.807,13.724
24.25,80.368,13.105
24.28,76.788,12.555
24.31,73.524,12.028
24.34,70.226,11.467
24.38,67.172,10.883
24.41,63.698,10.39
24.44,60.294,9.875
24.47,56.644,9.439
24.51,53.38,9.027
24.54,49.8,8.569
24.57,46.677,7.95
24.6,42.851,7.435
24.64,40.535,6.644
24.67,42.149,4.651
24.7,46.817,0.47
24.73,37.692,-2.165
24.77,27.199,-0.367
24.8,28.462,0.0
24.83,24.426,-0.997
24.86,16.951,-0.951
24.9,10.283,-0.871
24.93,4.352,-0.768
24.96,-0.737,-0.676
24.99,-3.404,-0.263
25.03,-3.72,-0.252
25.06,-6.422,-0.573
25.09,-9.16,-0.664
25.13,-11.511,-1.111
25.16,-16.003,-1.455
25.19,-20.952,-1.913
25.22,-26.602,-2.52
25.26,-32.217,-2.967
25.29,-36.955,-3.185
25.32,-39.833,-3.631
25.35,-41.412,-4.479
25.39,-42.886,-5.361
25.42,-45.168,-5.934
25.45,-48.01,-6.094
25.48,-50.783,-5.991
25.52,-53.45,-5.945
25.55,-56.538,-6.22
25.58,-60.223,-6.747
25.61,-64.4,-7.32
25.65,-68.576,-7.927
25.68,-72.121,-8.637
25.71,-75.42,-9.508
25.74,-78.859,-10.447
25.78,-82.298,-11.123
25.81,-85.632,-11.582
25.84,-88.721,-12.12
25.87,-91.669,-12.624
25.91,-94.862,-13.014
25.94,-98.232,-13.495
25.97,-101.636,-13.987
26.0,-105.075,-14.434
26.04,-108.514,-14.995
26.07,-111.848,-15.637
26.1,-115.323,-16.198
26.13,-118.587,-16.771
26.17,-121.465,-17.218
26.2,-124.307,-17.699
26.23,-127.29,-18.237
26.26,-130.519,-18.753
26.3,-133.818,-19.211
26.33,-137.187,-19.635
26.36,-140.521,-20.185
26.39,-143.61,-20.62
26.43,-146.593,-21.204
26.46,-149.857,-21.903
26.49,-152.98,-22.35
26.52,-155.858,-22.819
26.56,-158.736,-23.404
26.59,-161.754,-23.873
26.62,-164.667,-24.228
26.65,-167.404,-24.584
26.69,-170.071,-24.87
26.72,-172.598,-25.202
26.75,-175.266,-25.546
26.78,-177.933,-25.855
26.82,-180.495,-26.279
26.85,-183.443,-26.817
26.88,-186.496,-27.173
26.92,-188.988,-27.47
26.95,-191.129,-28.009
26.98,-193.515,-28.456
27.01,-195.901,-28.708
27.05,-198.183,-28.925
27.08,-200.499,-29.212
27.11,-202.815,-29.395
27.14,-204.816,-29.681
27.18,-206.886,-30.059
27.21,-209.167,-30.323
27.24,-211.238,-30.426
27.27,-212.958,-30.667
27.31,-214.748,-31.045
27.34,-216.994,-31.445
27.37,-219.24,-31.766
27.4,-221.24,-32.087
27.44,-222.96,-32.362
27.47,-224.82,-32.717
27.5,-226.469,-32.912
27.53,-228.084,-33.152
27.57,-229.944,-33.576
27.6,-232.155,-33.886
27.63,-233.839,-34.023
27.66,-235.208,-34.332
27.7,-236.928,-34.802
27.73,-238.893,-35.123
27.76,-240.753,-35.329
27.79,-242.227,-35.627
27.83,-243.666,-36.062
27.86,-245.421,-36.463
27.89,-247.141,-36.738
27.92,-248.65,-37.07
27.96,-250.194,-37.345
27.99,-251.422,-37.563
28.02,-252.826,-37.861
28.05,-254.37,-38.204
28.09,-255.984,-38.456
28.12,-257.494,-38.754
28.15,-259.038,-39.189
28.18,-260.722,-39.648
28.22,-262.126,-39.957
28.25,-263.214,-40.152
28.28,-264.372,-40.45
28.31,-265.916,-40.702
28.35,-267.355,-40.896
28.38,-268.549,-41.206
28.41,-269.812,-41.503
28.44,-271.04,-41.755
28.48,-272.198,-41.904
28.51,-273.181,-42.145
28.54,-274.234,-42.489
28.57,-275.497,-42.683
28.61,-276.656,-42.786
28.64,-277.673,-43.13
28.67,-278.831,-43.439
28.71,-279.779,-43.565
28.74,-280.411,-43.691
28.77,-281.078,-43.817
28.8,-281.709,-43.921
28.84,-282.236,-43.921
28.87,-282.867,-43.875
28.9,-283.324,-43.909
28.93,-283.885,-43.966
28.97,-284.341,-44.081
29.0,-284.587,-44.161
29.03,-285.043,-44.241
29.06,-285.394,-44.253
29.1,-285.535,-44.207
29.13,-285.605,-44.127
29.16,-285.675,-44.207
29.19,-285.78,-44.253
29.23,-285.956,-44.218
29.26,-286.026,-44.161
29.29,-285.886,-44.092
29.32,-285.71,-43.978
29.36,-285.254,-43.898
29.39,-285.008,-43.852
29.42,-284.657,-43.817
29.45,-284.412,-43.714
29.49,-284.026,-43.508
29.52,-283.078,-43.348
29.55,-282.552,-43.13
29.58,-281.709,-42.844
29.62,-280.692,-42.638
29.65,-279.884,-42.523
29.68,-279.428,-42.431
29.71,-278.831,-42.363
29.75,-278.059,-42.317
29.78,-277.463,-42.282
29.81,-276.656,-42.156
29.84,-275.497,-42.042
29.88,-274.409,-41.881
29.91,-273.286,-41.744
29.94,-272.128,-41.618
29.97,-271.075,-41.366
30.01,-269.847,-41.114
30.04,-268.513,-40.896
30.07,-266.934,-40.587
30.1,-265.32,-40.289
30.14,-263.776,-40.026
30.17,-262.442,-39.659
30.2,-260.722,-39.258
30.23,-258.827,-38.926
30.27,-257.178,-38.628
30.3,-255.528,-38.365
30.33,-253.668,-38.09
30.36,-251.984,-37.872
30.4,-250.404,-37.7
30.43,-248.72,-37.54
30.46,-247.105,-37.379
30.5,-245.596,-37.231
30.53,-244.052,-37.093
30.56,-242.368,-36.956
30.59,-240.437,-36.738
30.63,-238.542,-36.658
30.66,-237.209,-36.52
30.69,-235.84,-36.222
30.72,-233.875,-35.936
30.76,-231.909,-35.776
30.79,-230.225,-35.627
30.82,-228.47,-35.409
30.85,-226.434,-35.031
30.89,-224.083,-34.745
30.92,-221.942,-34.55
30.95,-219.872,-34.149
30.98,-217.661,-33.668
31.02,-215.239,-33.29
31.05,-213.028,-32.958
31.08,-210.852,-32.557
31.11,-208.325,-32.167
31.15,-205.974,-31.835
31.18,-203.587,-31.503
31.21,-201.306,-31.171
31.24,-199.13,-30.873
31.28,-197.025,-30.598
31.31,-194.778,-30.3
31.34,-192.287,-30.059
31.37,-189.83,-29.83
31.41,-187.619,-29.567
31.44,-185.233,-29.177
31.47,-182.671,-28.788
31.5,-180.214,-28.501
31.54,-177.722,-28.215
31.57,-175.125,-27.814
31.6,-172.493,-27.344
31.63,-169.65,-26.921
31.67,-166.702,-26.474
31.7,-163.86,-25.97
31.73,-161.122,-25.477
31.76,-158.665,-25.03
31.8,-155.717,-24.538
31.83,-152.278,-23.839
31.86,-149.084,-23.484
31.89,-146.136,-22.945
31.93,-143.259,-22.361
31.96,-140.03,-21.8
31.99,-136.731,-21.216
32.02,-133.643,-20.883
32.06,-130.835,-20.483
32.09,-128.098,-20.059
32.12,-125.22,-19.635
32.15,-122.026,-19.154
32.19,-118.341,-18.73
32.22,-115.042,-18.375
32.25,-111.954,-17.79
32.29,-108.725,-17.057
32.32,-105.11,-16.416
32.35,-101.53,-15.912
32.38,-98.196,-15.408
32.42,-95.003,-14.858
32.45,-91.879,-14.342
32.48,-88.721,-13.838
32.51,-85.457,-13.403
32.55,-82.193,-12.991
32.58,-78.859,-12.567
32.61,-75.735,-12.212
32.64,-72.682,-11.776
32.68,-69.348,-11.261
32.71,-66.014,-10.768
32.74,-62.469,-10.31
32.77,-59.065,-9.886
32.81,-55.766,-9.416
32.84,-52.783,-8.89
32.87,-49.274,-8.305
32.9,-45.94,-7.744
32.94,-42.114,-7.194
32.97,-39.307,-6.724
33.0,-39.763,-5.418
33.03,-45.273,-1.89
33.07,-41.553,2.016
33.1,-27.831,1.18
33.13,-27.023,-0.16
33.16,-25.9,0.836
33.2,-18.636,1.146
33.23,-10.985,1.031
33.26,-4.597,0.894
33.29,1.018,0.848
33.33,4.141,0.378
33.36,4.738,0.367
33.39,7.791,0.768
33.42,11.862,0.63
33.46,14.354,0.825
33.49,17.969,1.535
33.52,23.022,2.417
33.55,28.918,3.07
33.59,34.288,3.299
33.62,37.341,3.494
33.65,38.464,4.284
33.68,39.833,5.43
33.72,42.43,6.152
33.75,45.483,6.163
33.78,48.151,5.9
33.81,50.642,5.842
33.85,53.555,6.094
33.88,57.451,6.518
33.91,61.768,6.976
33.94,65.874,7.595
33.98,69.559,8.477
34.01,73.103,9.405
34.04,76.472,10.241
34.08,79.807,11.043
34.11,83.07,11.627
34.14,86.089,12.005
34.17,89.001,12.475
34.21,92.371,12.899
34.24,95.88,13.3
34.27,99.355,13.678
34.3,102.548,14.159
34.34,105.637,14.617
34.37,108.795,15.213
34.4,112.024,15.671
34.43,114.972,15.946
34.47,117.674,16.255
34.5,120.131,16.691
34.53,122.868,17.08
34.56,126.027,17.561
34.6,129.431,17.962
34.63,133.011,18.466
34.66,136.52,19.154
34.69,139.995,19.933
34.73,143.329,20.746
34.76,146.768,21.594
34.79,150.348,22.407
34.82,153.612,22.991
34.86,156.56,23.564
34.89,159.683,24.148
34.92,162.912,24.549
34.95,165.755,24.881
34.99,168.457,25.237
35.02,171.265,25.523
35.05,174.002,25.832
35.08,176.599,26.107
35.12,179.231,26.394
35.15,181.863,26.726
35.18,184.671,27.047
35.21,187.093,27.321
35.25,189.233,27.631
35.28,191.374,27.952
35.31,193.726,28.169
35.34,196.077,28.295
35.38,198.253,28.478
35.41,200.218,28.696
35.44,202.254,28.96
35.47,204.43,29.223
35.51,206.43,29.452
35.54,208.255,29.635
35.57,210.22,29.899
35.6,212.151,30.231
35.64,214.326,30.586
35.67,216.432,30.884
35.7,218.327,31.205
35.73,219.977,31.549
35.77,221.872,31.938
35.8,223.662,32.121
35.83,225.452,32.35
35.87,227.592,32.877
35.9,229.558,33.175
35.93,231.172,33.427
35.96,232.646,33.863
36.0,234.576,34.218
36.03,236.577,34.527
36.06,238.332,34.848
36.09,239.841,35.18
36.13,241.455,35.501
36.16,243.034,35.844
36.19,244.684,36.108
36.22,246.298,36.337
36.26,247.842,36.646
36.29,249.422,36.99
36.32,250.966,37.265
36.35,252.405,37.586
36.39,254.054,37.998
36.42,255.774,38.342
36.45,257.353,38.697
36.48,258.968,39.121
36.52,260.722,39.545
36.55,262.337,39.911
36.58,263.705,40.083
36.61,264.793,40.381
36.65,266.197,40.805
36.68,267.882,41.045
36.71,269.11,41.263
36.74,270.338,41.584
36.78,271.602,41.836
36.81,272.76,41.985
36.84,273.883,42.145
36.87,274.901,42.42
36.91,276.129,42.58
36.94,277.217,42.775
36.97,278.34,43.038
37.0,279.393,43.302
37.04,280.27,43.497
37.07,281.042,43.611
37.1,281.815,43.691
37.13,282.411,43.737
37.17,282.973,43.68
37.2,283.394,43.611
37.23,284.061,43.806
37.26,284.903,43.966
37.3,285.078,43.783
37.33,285.324,43.932
37.36,285.71,44.024
37.39,286.026,43.921
37.43,285.956,43.943
37.46,286.272,43.932
37.49,286.693,43.932
37.52,286.903,43.932
37.56,286.938,43.966
37.59,286.938,44.001
37.62,286.798,43.978
37.66,286.552,43.921
37.69,286.307,43.783
37.72,286.061,43.611
37.75,285.64,43.543
37.79,285.324,43.474
37.82,285.008,43.325
37.85,284.412,43.153
37.88,283.569,43.016
37.92,282.727,42.878
37.95,281.99,42.706
37.98,281.323,42.512
38.01,280.656,42.408
38.05,279.955,42.305
38.08,279.218,42.145
38.11,278.165,41.996
38.14,277.042,41.801
38.18,275.778,41.538
38.21,274.445,41.263
38.24,273.181,40.999
38.27,271.953,40.679
38.31,270.654,40.392
38.34,269.215,40.152
38.37,267.847,39.991
38.4,266.583,39.785
38.44,265.039,39.522
38.47,263.39,39.293
38.5,262.091,39.041
38.53,260.652,38.743
38.57,258.968,38.502
38.6,257.318,38.353
38.63,255.634,38.181
38.66,253.914,37.987
38.7,252.475,37.723
38.73,250.79,37.505
38.76,249.036,37.299
38.79,247.211,37.059
38.83,245.28,36.875
38.86,243.561,36.704
38.89,241.806,36.463
38.92,239.806,36.165
38.96,237.84,35.89
38.99,236.121,35.73
39.02,234.436,35.547
39.05,232.681,35.329
39.09,230.786,35.226
39.12,228.961,35.18
39.15,227.242,35.02
39.18,225.417,34.745
39.22,223.381,34.527
39.25,221.381,34.321
39.28,219.345,34.046
39.31,217.239,33.759
39.35,215.274,33.473
39.38,213.063,33.21
39.41,210.887,32.923
39.45,208.536,32.602
39.48,206.5,32.305
39.51,204.465,31.938
39.54,201.938,31.526
39.58,199.586,31.319
39.61,197.481,31.171
39.64,195.515,30.815
39.67,193.304,30.414
39.71,190.567,30.105
39.74,188.005,29.807
39.77,185.583,29.406
39.8,183.057,29.017
39.84,180.6,28.627
39.87,178.003,28.238
39.9,175.266,27.78
39.93,172.353,27.264
39.97,169.65,26.829
40.0,166.913,26.439
40.03,163.965,25.855
40.06,161.052,25.385
40.1,158.069,24.916
40.13,155.086,24.332
40.16,151.927,23.828
40.19,148.979,23.358
40.23,145.926,22.854
40.26,142.873,22.338
40.29,139.925,21.926
40.32,136.942,21.456
40.36,133.994,21.032
40.39,131.116,20.735
40.42,128.343,20.368
40.45,125.395,19.944
40.49,122.237,19.52
40.52,119.078,19.062
40.55,115.709,18.535
40.58,112.48,18.077
40.62,109.392,17.596
40.65,106.163,17.011
40.68,102.864,16.393
40.71,99.53,15.797
40.75,96.161,15.213
40.78,92.862,14.72
40.81,89.528,14.251
40.84,86.194,13.735
40.88,82.965,13.334
40.91,79.947,12.876
40.94,76.753,12.338
40.97,73.314,11.834
41.01,69.734,11.467
41.04,66.541,11.043
41.07,63.347,10.619
41.1,60.223,10.104
41.14,56.644,9.588
41.17,53.31,9.084
41.2,49.73,8.637
41.24,46.571,8.099
41.27,42.851,7.629
41.3,40.816,6.908
41.33,42.535,4.96
41.37,47.624,0.768
41.4,39.272,-2.188
41.43,27.69,-0.515
41.46,28.462,0.011
41.5,24.777,-0.951
41.53,17.126,-1.031
41.56,9.686,-0.928
41.59,3.299,-0.836
41.63,-2.141,-0.687
41.66,-4.071,-0.126
41.69,-4.352,-0.378
41.72,-8.142,-0.653
41.76,-9.686,-0.916
41.79,-12.459,-1.799
41.82,-18.355,-2.131
41.85,-23.97,-2.303
41.89,-29.305,-2.52
41.92,-33.691,-2.784
41.95,-36.955,-3.219
41.98,-38.78,-3.929
42.02,-40.5,-4.777
42.05,-42.465,-5.361
42.08,-44.676,-5.487
42.11,-47.168,-5.441
42.15,-50.116,-5.487
42.18,-53.45,-5.579
42.21,-57.1,-5.762
42.24,-60.855,-6.266
42.28,-64.716,-7.045
42.31,-68.892,-7.927
42.34,-72.717,-8.809
42.37,-76.122,-9.634
42.41,-79.315,-10.47
42.44,-82.544,-11.215
42.47,-85.773,-11.696
42.5,-88.826,-12.109
42.54,-92.16,-12.635
42.57,-95.599,-13.002
42.6,-98.758,-13.357
42.63,-101.917,-13.964
42.67,-105.426,-14.652
42.7,-109.076,-15.179
42.73,-112.621,-15.706
42.76,-115.779,-16.21
42.8,-118.727,-16.702
42.83,-121.745,-17.252
42.86,-124.869,-17.802
42.89,-128.027,-18.1
42.93,-131.081,-18.604
42.96,-134.274,-19.119
42.99,-137.714,-19.635
43.03,-141.013,-20.127
43.06,-143.996,-20.586
43.09,-146.558,-20.964
43.12,-149.576,-21.788
43.16,-153.12,-22.35
43.19,-156.349,-22.476
43.22,-159.016,-22.9
43.25,-161.649,-23.518
43.29,-164.702,-23.999
43.32,-167.72,-24.343
43.35,-170.352,-24.71
43.38,-172.914,-25.053
43.42,-175.476,-25.351
43.45,-178.108,-25.638
43.48,-180.775,-26.004
43.51,-183.372,-26.394
43.55,-185.829,-26.806
43.58,-188.391,-27.218
43.61,-190.918,-27.608
43.64,-193.34,-27.997
43.68,-195.621,-28.261
43.71,-197.867,-28.501
43.74,-200.218,-28.834
43.77,-202.57,-29.097
43.81,-204.605,-29.372
43.84,-206.57,-29.739
43.87,-208.922,-30.014
43.9,-210.922,-30.174
43.94,-212.782,-30.472
43.97,-214.783,-30.793
44.0,-216.748,-31.125
44.03,-218.889,-31.491
44.07,-220.995,-31.846
44.1,-222.784,-32.144
44.13,-224.75,-32.557
44.16,-226.645,-32.866
44.2,-228.4,-33.049
44.23,-230.225,-33.381
44.26,-232.155,-33.748
44.29,-233.839,-33.954
44.33,-235.419,-34.241
44.36,-237.209,-34.653
44.39,-239.209,-34.974
44.42,-241.104,-35.169
44.46,-242.438,-35.512
44.49,-243.877,-35.97
44.52,-245.737,-36.291
44.55,-247.491,-36.555
44.59,-248.895,-36.83
44.62,-250.264,-37.127
44.65,-251.562,-37.448
44.68,-253.107,-37.666
44.72,-254.651,-37.895
44.75,-256.125,-38.158
44.78,-257.599,-38.456
44.82,-259.143,-38.857
44.85,-260.687,-39.293
44.88,-262.267,-39.556
44.91,-263.284,-39.705
44.95,-264.478,-40.003
44.98,-265.881,-40.255
45.01,-267.215,-40.507
45.04,-268.478,-40.828
45.08,-269.672,-41.114
45.11,-270.9,-41.412
45.14,-272.198,-41.549
45.17,-273.286,-41.778
45.21,-274.234,-42.168
45.24,-275.392,-42.431
45.27,-276.515,-42.626
45.3,-277.779,-42.935
45.34,-279.007,-43.153
45.37,-279.884,-43.359
45.4,-280.586,-43.508
45.43,-281.078,-43.623
45.47,-281.85,-43.726
45.5,-282.552,-43.611
45.53,-283.043,-43.565
45.56,-283.429,-43.68
45.6,-283.85,-43.669
45.63,-284.622,-43.921
45.66,-285.359,-43.886
45.69,-285.886,-43.943
45.73,-285.991,-44.115
45.76,-285.991,-44.001
45.79,-286.131,-44.069
45.82,-286.517,-44.138
45.86,-286.763,-43.989
45.89,-286.658,-43.909
45.92,-286.342,-43.943
45.95,-286.061,-43.863
45.99,-285.605,-43.714
46.02,-285.324,-43.531
46.05,-285.114,-43.382
46.08,-284.833,-43.256
46.12,-284.271,-43.187
46.15,-283.78,-43.153
46.18,-283.429,-43.05
46.21,-282.797,-42.89
46.25,-281.99,-42.729
46.28,-281.253,-42.546
46.31,-280.551,-42.408
46.34,-279.955,-42.305
46.38,-279.077,-42.225
46.41,-278.165,-42.191
46.44,-277.498,-42.122
46.47,-276.726,-41.881
46.51,-275.603,-41.618
46.54,-274.374,-41.377
46.57,-273.251,-41.16
46.61,-272.023,-41.022
46.64,-270.865,-40.828
46.67,-269.601,-40.644
46.7,-268.373,-40.461
46.74,-266.934,-40.129
46.77,-265.285,-39.842
46.8,-263.741,-39.602
46.83,-262.302,-39.27
46.87,-260.687,-38.914
46.9,-259.073,-38.64
46.93,-257.353,-38.433
46.96,-255.774,-38.262
47.0,-253.949,-37.964
47.03,-252.264,-37.723
47.06,-250.931,-37.631
47.09,-249.457,-37.299
47.13,-247.281,-37.047
47.16,-245.245,-36.967
47.19,-243.771,-36.818
47.22,-242.262,-36.578
47.26,-240.227,-36.291
47.29,-238.086,-36.051
47.32,-236.261,-35.707
47.35,-234.401,-35.512
47.39,-232.576,-35.352
47.42,-230.716,-35.123
47.45,-229.066,-34.974
47.48,-227.347,-34.768
47.52,-225.171,-34.47
47.55,-223.03,-34.298
47.58,-221.135,-34.138
47.61,-219.31,-33.805
47.65,-216.959,-33.427
47.68,-214.467,-33.255
47.71,-212.607,-33.049
47.74,-210.712,-32.625
47.78,-208.255,-32.144
47.81,-205.658,-31.904
47.84,-203.412,-31.617
47.87,-201.341,-31.262
47.91,-199.2,-30.999
47.94,-197.13,-30.735
47.97,-194.884,-30.46
48.0,-192.392,-30.266
48.04,-190.041,-30.014
48.07,-187.724,-29.658
48.1,-185.303,-29.235
48.13,-182.706,-28.765
48.17,-180.109,-28.387
48.2,-177.722,-28.055
48.23,-174.985,-27.574
48.26,-172.037,-27.115
48.3,-169.264,-26.795
48.33,-166.737,-26.336
48.36,-163.965,-25.706
48.4,-160.771,-25.191
48.43,-158.034,-24.95
48.46,-155.367,-24.549
48.49,-152.313,-23.77
48.53,-149.33,-23.438
48.56,-146.136,-23.037
48.59,-143.364,-22.613
48.62,-140.556,-22.178
48.66,-137.608,-21.536
48.69,-134.38,-21.078
48.72,-131.291,-20.7
48.75,-128.273,-20.276
48.79,-125.29,-19.738
48.82,-122.026,-19.188
48.85,-118.622,-18.604
48.88,-115.218,-18.054
48.92,-111.848,-17.55
48.95,-108.549,-16.977
48.98,-105.251,-16.336
49.01,-101.987,-15.797
49.05,-98.653,-15.339
49.08,-95.389,-14.869
49.11,-92.195,-14.423
49.14,-89.107,-13.941
49.18,-85.913,-13.46
49.21,-82.579,-13.048
49.24,-79.35,-12.647
49.27,-76.051,-12.235
49.31,-72.823,-11.799
49.34,-69.664,-11.284
49.37,-66.295,-10.745
49.4,-62.82,-10.299
49.44,-59.486,-9.852
49.47,-56.082,-9.325
49.5,-52.818,-8.798
49.53,-49.344,-8.282
49.57,-45.94,-7.778
49.6,-42.184,-7.217
49.63,-39.342,-6.69
49.66,-39.517,-5.361
49.7,-44.676,-1.89
49.73,-41.061,1.982
49.76,-27.409,1.214
49.79,-26.216,-0.103
49.83,-24.847,0.836
49.86,-17.688,1.146
49.89,-10.107,1.031
49.92,-3.72,0.905
49.96,1.72,0.768
49.99,4.071,0.298
50.02,4.633,0.412
50.05,7.896,0.779
50.09,12.038,0.619
50.12,14.951,0.756
50.15,18.25,1.409
50.19,22.987,2.291
50.22,28.673,3.047
50.25,33.867,3.219
50.28,36.885,3.288
50.32,38.008,3.975
50.35,39.342,5.109
50.38,42.22,5.785
50.41,45.378,5.751
50.45,48.01,5.579
50.48,50.572,5.67
50.51,53.661,6.003
50.54,57.556,6.461
50.58,61.627,6.965
50.61,65.488,7.584
50.64,69.138,8.466
50.67,72.682,9.394
50.71,76.122,10.161
50.74,79.42,10.86
50.77,82.579,11.501
50.8,85.703,11.914
50.84,88.861,12.303
50.87,92.265,12.773
50.9,95.81,13.197
50.93,99.214,13.621
50.97,102.443,14.171
51.0,105.602,14.766
51.03,108.865,15.385
51.06,112.375,15.877
51.1,115.463,16.21
51.13,118.166,16.588
51.16,121.008,17.092
51.19,124.132,17.596
51.23,127.536,18.031
51.26,131.081,18.535
51.29,134.239,19.062
51.32,137.714,19.795
51.36,141.434,20.769
51.39,144.838,21.204
51.42,147.716,21.72
51.45,150.523,22.419
51.49,153.717,22.957
51.52,156.63,23.152
51.55,159.332,23.461
51.58,162.035,23.942
51.62,164.948,24.228
51.65,167.72,24.515
51.68,170.493,24.859
51.71,173.265,25.133
51.75,175.827,25.431
51.78,178.214,25.809
51.81,180.705,26.222
51.84,183.408,26.577
51.88,186.145,26.886
51.91,188.531,27.184
51.94,190.707,27.505
51.98,192.848,27.894
52.01,195.235,28.226
52.04,197.762,28.501
52.07,200.078,28.742
52.11,202.148,28.96
52.14,204.114,29.315
52.17,206.325,29.693
52.2,208.536,29.853
52.24,210.326,30.025
52.27,212.115,30.369
52.3,214.256,30.735
52.33,216.432,30.999
52.37,218.573,31.308
52.4,220.538,31.686
52.43,222.328,32.133
52.46,224.118,32.396
52.5,226.189,32.82
52.53,228.014,33.061
52.56,229.698,33.244
52.59,231.242,33.588
52.63,233.278,34.08
52.66,235.419,34.401
52.69,237.103,34.55
52.72,238.542,34.825
52.76,240.086,35.226
52.79,241.841,35.524
52.82,243.491,35.73
52.85,244.93,36.051
52.89,246.474,36.44
52.92,248.334,36.761
52.95,250.018,37.116
52.98,251.598,37.437
53.02,253.072,37.826
53.05,254.932,38.319
53.08,257.002,38.708
53.11,258.687,39.041
53.15,260.126,39.476
53.18,261.775,39.923
53.21,263.179,40.072
53.24,264.162,40.209
53.28,265.32,40.484
53.31,266.689,40.644
53.34,268.022,40.793
53.37,269.145,40.999
53.41,270.338,41.183
53.44,271.461,41.423
53.47,272.69,41.687
53.5,273.848,41.859
53.54,274.901,42.088
53.57,275.989,42.351
53.6,277.077,42.569
53.63,278.2,42.786
53.67,279.358,43.05
53.7,280.27,43.21
53.73,280.902,43.371
53.77,281.604,43.474
53.8,282.236,43.462
53.83,282.692,43.451
53.86,283.183,43.462
53.9,283.99,43.611
53.93,284.692,43.817
53.96,284.903,43.611
53.99,285.114,43.714
54.03,285.429,43.829
54.06,285.78,43.783
54.09,285.815,43.76
54.12,285.921,43.76
54.16,286.307,43.817
54.19,286.588,43.806
54.22,286.623,43.829
54.25,286.447,43.886
54.29,286.412,43.84
54.32,286.166,43.714
54.35,285.71,43.543
54.38,285.324,43.428
54.42,285.043,43.394
54.45,284.727,43.291
54.48,284.341,43.165
54.51,283.885,43.038
54.55,283.218,42.89
54.58,282.481,42.798
54.61,281.92,42.638
54.64,281.323,42.443
54.68,280.586,42.363
54.71,279.919,42.294
54.74,279.147,42.156
54.77,278.13,42.03
54.81,277.042,41.836
54.84,275.883,41.572
54.87,274.585,41.263
54.9,273.286,40.976
54.94,272.058,40.702
54.97,270.654,40.404
55.0,269.25,40.186
55.03,267.776,39.991
55.07,266.373,39.751
55.1,264.969,39.464
55.13,263.425,39.178
55.16,261.81,38.937
55.2,260.336,38.743
55.23,258.897,38.525
55.26,257.318,38.365
55.29,255.669,38.227
55.33,254.16,38.055
55.36,252.686,37.872
55.39,250.966,37.62
55.42,249.176,37.448
55.46,247.386,37.196
55.49,245.702,36.852
55.52,243.877,36.612
55.56,241.982,36.383
55.59,239.806,35.97
55.62,237.7,35.753
55.65,236.191,35.764
55.69,234.647,35.547
55.72,232.681,35.26
55.75,230.856,35.157
55.78,229.312,35.157
55.82,227.592,34.951
55.85,225.487,34.71
55.88,223.416,34.55
55.91,221.556,34.275
55.95,219.485,33.863
55.98,217.064,33.565
56.01,214.888,33.359
56.04,212.958,33.118
56.08,210.922,32.763
56.11,208.536,32.385
56.14,206.079,32.11
56.17,204.044,31.789
56.21,201.903,31.411
56.24,199.551,31.136
56.27,197.305,30.941
56.3,195.2,30.724
56.34,192.989,30.369
56.37,190.462,30.048
56.4,187.935,29.739
56.43,185.303,29.383
56.47,182.811,28.971
56.5,180.354,28.605
56.53,177.827,28.226
56.56,175.16,27.757
56.6,172.353,27.253
56.63,169.72,26.829
56.66,167.088,26.416
56.69,164.14,25.844
56.73,161.087,25.443
56.76,158.279,25.007
56.79,155.437,24.526
56.82,152.419,24.057
56.86,149.435,23.541
56.89,146.382,23.071
56.92,143.364,22.545
56.95,140.346,22.063
56.99,137.152,21.559
57.02,134.099,21.09
57.05,131.256,20.643
57.08,128.413,20.196
57.12,125.325,19.726
57.15,122.061,19.303
57.18,118.797,18.89
57.21,115.533,18.386
57.25,112.375,17.871
57.28,109.251,17.412
57.31,106.128,16.908
57.35,103.075,16.427
57.38,99.951,15.969
57.41,96.617,15.465
57.44,93.248,14.984
57.48,89.984,14.537
57.51,86.755,14.022
57.54,83.386,13.483
57.57,80.087,12.956
57.61,76.508,12.452
57.64,73.279,11.948
57.67,69.945,11.444
57.7,66.646,10.917
57.74,63.136,10.39
57.77,59.802,9.909
57.8,56.503,9.52
57.83,53.52,9.038
57.87,50.011,8.523
57.9,46.536,7.973
57.93,42.535,7.561
57.96,40.324,6.885
58.0,41.798,4.983
58.03,46.712,0.768
58.06,38.324,-2.188
58.09,26.953,-0.493
58.13,28.006,0.046
58.16,24.602,-0.916
58.19,17.548,-0.951
58.22,10.634,-0.905
58.26,4.492,-0.79
58.29,-0.912,-0.733
58.32,-4.036,-0.298
58.35,-4.247,-0.218
58.39,-6.914,-0.584
58.42,-9.335,-0.79
58.45,-11.687,-1.569
58.48,-17.232,-2.005
58.52,-22.987,-2.28
58.55,-28.848,-2.704
58.58,-34.148,-3.07
58.61,-38.148,-3.402
58.65,-39.973,-4.113
58.68,-41.202,-5.166
58.71,-43.027,-5.98
58.74,-45.413,-6.197
58.78,-47.835,-6.026
58.81,-50.397,-5.877
58.84,-53.345,-5.923
58.87,-56.854,-6.186
58.91,-60.855,-6.667
58.94,-65.277,-7.274
58.97,-69.594,-7.927
59.0,-73.244,-8.729
59.04,-76.367,-9.634
59.07,-79.596,-10.493
59.1,-82.895,-11.192
59.14,-86.089,-11.719
59.17,-88.966,-12.086
59.2,-91.914,-12.521
59.23,-95.038,-12.991
59.27,-98.618,-13.403
59.3,-102.303,-13.838
59.33,-105.812,-14.388
59.36,-109.286,-14.984
59.4,-112.691,-15.694
59.43,-116.095,-16.393
59.46,-119.254,-16.931
59.49,-122.342,-17.424
59.53,-125.255,-17.997
59.56,-128.133,-18.375
59.59,-131.116,-18.844
59.62,-134.485,-19.348
59.66,-137.994,-19.784
59.69,-141.223,-20.265
59.72,-144.136,-20.746
59.75,-147.049,-21.239
59.79,-150.102,-21.754
59.82,-153.156,-22.189
59.85,-155.963,-22.499
59.88,-158.665,-22.9
59.92,-161.473,-23.369
59.95,-164.421,-23.713
59.98,-167.088,-24.057
60.01,-169.72,-24.481
60.05,-172.388,-24.87
60.08,-175.125,-25.133
60.11,-177.687,-25.431
60.14,-180.354,-25.901
60.18,-183.092,-26.348
60.21,-185.829,-26.772
60.24,-188.391,-27.173
60.27,-190.707,-27.585
60.31,-193.059,-27.997
60.34,-195.375,-28.375
60.37,-197.832,-28.662
60.4,-200.288,-28.971
60.44,-202.57,-29.235
60.47,-204.71,-29.532
60.5,-206.746,-29.888
60.53,-208.957,-30.208
60.57,-211.063,-30.403
60.6,-212.923,-30.667
60.63,-214.783,-31.033
60.66,-216.888,-31.319
60.7,-218.889,-31.594
60.73,-220.784,-32.018
60.76,-222.89,-32.35
60.79,-224.68,-32.614
60.83,-226.118,-32.912
60.86,-228.119,-33.301
60.89,-230.154,-33.611
60.93,-232.014,-33.897
60.96,-233.734,-34.206
60.99,-235.489,-34.584
61.02,-237.349,-34.917
61.06,-239.069,-35.18
61.09,-240.718,-35.489
61.12,-242.297,-35.879
61.15,-244.157,-36.177
61.19,-245.702,-36.429
61.22,-247.105,-36.772
61.25,-248.72,-37.116
61.28,-250.264,-37.402
61.32,-251.808,-37.666
61.35,-253.212,-37.975
61.38,-254.756,-38.307
61.41,-256.265,-38.617
61.45,-257.845,-38.937
61.48,-259.389,-39.247
61.51,-260.828,-39.625
61.54,-262.231,-39.888
61.58,-263.39,-39.98
61.61,-264.442,-40.163
61.64,-265.601,-40.518
61.67,-267.11,-40.747
61.71,-268.584,-40.896
61.74,-269.637,-41.251
61.77,-270.689,-41.675
61.8,-271.953,-41.881
61.84,-273.251,-42.053
61.87,-274.445,-42.328
61.9,-275.497,-42.603
61.93,-276.445,-42.855
61.97,-277.533,-43.245
62.0,-278.796,-43.462
62.03,-279.849,-43.588
62.06,-280.551,-43.749
62.1,-281.288,-43.829
62.13,-281.885,-43.875
62.16,-282.166,-43.909
62.19,-282.692,-43.943
62.23,-283.324,-43.932
62.26,-283.745,-43.852
62.29,-284.552,-44.115
62.32,-285.043,-44.138
62.36,-285.359,-44.344
62.39,-285.605,-44.482
62.42,-285.851,-44.264
62.45,-285.956,-44.31
62.49,-286.272,-44.402
62.52,-286.482,-44.322
62.55,-286.307,-44.23
62.58,-286.096,-44.195
62.62,-285.886,-44.069
62.65,-285.535,-43.875
62.68,-285.149,-43.657
62.72,-284.833,-43.554
62.75,-284.552,-43.52
62.78,-284.236,-43.474
62.81,-283.85,-43.451
62.85,-283.324,-43.417
62.88,-282.832,-43.291
62.91,-282.06,-43.096
62.94,-281.323,-42.867
62.98,-280.586,-42.66
63.01,-279.674,-42.546
63.04,-278.691,-42.523
63.07,-278.165,-42.408
63.11,-277.463,-42.168
63.14,-276.199,-41.973
63.17,-274.936,-41.824
63.2,-273.953,-41.641
63.24,-272.9,-41.469
63.27,-271.812,-41.24
63.3,-270.549,-40.988
63.33,-269.215,-40.793
63.37,-267.917,-40.656
63.4,-266.478,-40.392
63.43,-264.899,-40.129
63.46,-263.53,-39.877
63.5,-262.196,-39.533
63.53,-260.722,-39.178
63.56,-258.932,-38.926
63.59,-257.318,-38.777
63.63,-255.914,-38.571
63.66,-254.089,-38.227
63.69,-252.299,-38.01
63.72,-250.826,-37.964
63.76,-249.211,-37.7
63.79,-247.386,-37.437
63.82,-245.491,-37.242
63.85,-243.736,-37.047
63.89,-242.227,-36.83
63.92,-240.402,-36.52
63.95,-238.297,-36.268
63.98,-236.436,-36.119
64.02,-234.612,-35.925
64.05,-232.681,-35.535
64.08,-230.54,-35.191
64.11,-228.435,-35.1
64.15,-226.575,-34.802
64.18,-224.539,-34.412
64.21,-222.153,-34.034
64.24,-220.012,-33.794
64.28,-218.398,-33.679
64.31,-216.678,-33.439
64.34,-214.502,-33.233
64.37,-212.502,-33.221
64.41,-210.677,-33.118
64.44,-208.606,-32.74
64.47,-206.149,-32.442
64.51,-203.903,-32.179
64.54,-201.657,-31.824
64.57,-199.516,-31.491
64.6,-197.27,-31.182
64.64,-195.024,-30.861
64.67,-192.708,-30.495
64.7,-190.251,-30.151
64.73,-187.9,-29.819
64.77,-185.303,-29.429
64.8,-182.776,-29.086
64.83,-180.389,-28.753
64.86,-177.933,-28.307
64.9,-175.16,-27.803
64.93,-172.107,-27.344
64.96,-169.299,-26.898
64.99,-166.597,-26.439
65.03,-163.754,-25.809
65.06,-160.631,-25.191
65.09,-157.823,-24.916
65.12,-155.156,-24.503
65.16,-152.138,-23.736
65.19,-148.979,-23.472
65.22,-145.891,-23.037
65.25,-143.118,-22.533
65.29,-140.311,-22.086
65.32,-137.187,-21.502
65.35,-133.923,-21.044
65.38,-130.835,-20.631
65.42,-127.992,-20.23
65.45,-124.904,-19.692
65.48,-121.57,-19.142
65.51,-117.99,-18.615
65.55,-114.586,-18.123
65.58,-111.533,-17.63
65.61,-108.655,-17.115
65.64,-105.461,-16.553
65.68,-102.127,-16.072
65.71,-99.039,-15.671
65.74,-95.845,-15.156
65.77,-92.511,-14.686
65.81,-89.142,-14.354
65.84,-85.983,-13.918
65.87,-82.86,-13.414
65.9,-79.736,-12.887
65.94,-76.543,-12.349
65.97,-73.138,-11.834
66.0,-69.629,-11.421
66.03,-66.365,-10.952
66.07,-63.066,-10.413
66.1,-59.732,-9.898
66.13,-56.223,-9.348
66.16,-52.853,-8.786
66.2,-49.309,-8.317
66.23,-46.255,-7.767
66.26,-42.184,-7.194
66.3,-39.412,-6.667
66.33,-40.5,-5.121
66.36,-46.466,-0.997
66.39,-39.061,2.348
66.43,-26.532,0.699
66.46,-27.339,0.011
66.49,-24.321,0.974
66.52,-17.056,1.1
66.56,-9.511,1.042
66.59,-2.913,0.928
66.62,2.246,0.687
66.65,3.931,0.229
66.69,4.282,0.435
66.72,7.826,0.756
66.75,11.266,0.607
66.78,13.863,0.939
66.82,18.109,1.42
66.85,22.742,2.165
66.88,28.252,2.91
66.91,33.446,3.173
66.95,36.885,3.299
66.98,38.289,3.918
67.01,39.552,4.949
67.04,41.974,5.774
67.08,45.203,5.991
67.11,48.221,5.785
67.14,50.853,5.774
67.17,53.801,6.152
67.21,57.591,6.633
67.24,61.627,7.148
67.27,65.488,7.755
67.3,69.102,8.557
67.34,72.717,9.382
67.37,76.122,10.115
67.4,79.35,10.768
67.43,82.614,11.467
67.47,85.913,11.994
67.5,89.001,12.338
67.53,92.02,12.796
67.56,95.389,13.311
67.6,98.863,13.678
67.63,102.303,14.171
67.66,105.672,14.766
67.69,108.971,15.35
67.73,112.41,15.946
67.76,115.744,16.576
67.79,118.797,17.023
67.82,121.675,17.481
67.86,124.763,18.088
67.89,128.168,18.512
67.92,131.502,18.947
67.95,134.59,19.452
67.99,137.959,20.059
68.02,141.293,20.7
68.05,144.627,21.216
68.09,147.681,21.651
68.12,150.523,22.155
68.15,153.436,22.739
68.18,156.139,23.049
68.22,158.911,23.358
68.25,161.859,23.747
68.28,165.053,24.171
68.31,168.282,24.641
68.35,171.51,25.259
68.38,174.599,25.924
68.41,177.968,26.6
68.44,181.372,27.264
68.48,184.25,27.814
68.51,186.707,28.341
68.54,189.479,28.857
68.57,192.462,29.212
68.61,195.235,29.487
68.64,197.797,29.807
68.67,200.113,30.082
68.7,202.64,30.449
68.74,205.307,30.735
68.77,207.588,30.861
68.8,209.413,31.01
68.83,211.203,31.319
68.87,213.098,31.319
68.9,214.607,31.171
68.93,216.081,31.216
68.96,217.906,31.319
69.0,219.521,31.285
69.03,221.135,31.411
69.06,223.03,31.72
69.09,225.066,32.007
69.13,226.75,32.202
69.16,228.294,32.58
69.19,230.049,33.084
69.22,232.155,33.473
69.26,234.05,33.668
69.29,235.524,33.874
69.32,237.103,34.344
69.35,239.139,34.813
69.39,240.753,34.894
69.42,241.876,35.123
69.45,243.491,35.638
69.48,245.596,36.028
69.52,247.351,36.245
69.55,248.79,36.566
69.58,250.369,37.082
69.61,252.124,37.551
69.65,253.844,37.838
69.68,255.493,38.17
69.71,257.072,38.536
69.74,258.862,38.972
69.78,260.757,39.407
69.81,262.196,39.751
69.84,263.249,40.072
69.88,264.478,40.312
69.91,265.846,40.438
69.94,267.145,40.518
69.97,268.338,40.724
70.01,269.391,40.942
70.04,270.479,41.148
70.07,271.707,41.309
70.1,272.935,41.526
70.14,273.988,41.755
70.17,274.971,41.985
70.2,276.059,42.225
70.23,277.077,42.523
70.27,278.27,42.764
70.3,279.393,43.061
70.33,280.481,43.382
70.36,281.393,43.554
70.4,281.99,43.646
70.43,282.552,43.737
70.46,283.113,43.795
70.49,283.71,43.691
70.53,284.201,43.611
70.56,284.868,43.783
70.59,285.429,43.875
70.62,285.64,43.875
70.66,285.815,43.886
70.69,286.237,43.978
70.72,285.605,43.703
70.75,280.621,41.229
70.79,273.602,38.239
70.82,269.215,36.6
70.85,267.004,34.825
70.88,262.688,32.362
70.92,257.213,31.251
70.95,255.002,31.938
70.98,255.669,33.301
71.01,256.265,35.169
71.05,258.511,37.712
71.08,263.776,40.198
71.11,269.707,41.962
71.14,273.848,43.336
71.18,275.462,45.02
71.21,276.901,46.784
71.24,278.726,47.919
71.27,279.709,48.285
71.31,279.849,48.216
71.34,280.13,47.838
71.37,279.884,47.105
71.4,278.726,46.464
71.44,277.708,46.005
71.47,276.936,45.582
71.5,276.34,45.135
71.53,275.427,44.734
71.57,274.655,44.413
71.6,273.953,44.047
71.63,272.865,43.634
71.67,271.532,43.279
71.7,270.233,42.89
71.73,268.724,42.34
71.76,267.004,41.733
71.8,265.32,41.251
71.83,263.741,40.805
71.86,262.126,40.335
71.89,260.547,39.888
71.93,259.178,39.59
71.96,257.494,39.304
71.99,255.844,39.041
72.02,254.3,38.811
72.06,252.861,38.674
72.09,251.562,38.514
72.12,249.948,38.193
72.15,248.018,38.021
72.19,246.333,37.883
72.22,244.684,37.631
72.25,242.789,37.276
72.28,240.613,36.864
72.32,238.753,36.6
72.35,236.858,36.314
72.38,234.822,35.89
72.41,232.295,35.466
72.45,230.154,35.191
72.48,228.294,34.859
72.51,226.154,34.355
72.54,223.627,33.943
72.58,221.381,33.748
72.61,219.556,33.473
72.64,217.345,33.152
72.67,215.239,33.003
72.71,213.519,32.889
72.74,211.729,32.717
72.77,209.554,32.419
72.8,207.132,32.236
72.84,204.956,32.087
72.87,202.921,31.846
72.9,200.815,31.526
72.93,198.428,31.239
72.97,196.147,30.999
73.0,193.901,30.678
73.03,191.444,30.243
73.06,188.918,29.876
73.1,186.356,29.567
73.13,184.039,29.177
73.16,181.548,28.765
73.19,178.986,28.421
73.23,176.318,28.1
73.26,173.721,27.677
73.29,171.019,27.241
73.32,168.176,26.749
73.36,165.228,26.13
73.39,162.07,25.638
73.42,159.192,25.156
73.46,156.49,24.584
73.49,153.226,24.034
73.52,149.821,23.495
73.55,146.523,22.911
73.59,143.329,22.327
73.62,140.135,21.72
73.65,136.836,21.055
73.68,133.572,20.528
73.72,130.449,20.104
73.75,127.606,19.681
73.78,124.693,19.28
73.81,121.675,18.821
73.85,118.376,18.421
73.88,115.182,18.088
73.91,112.234,17.745
73.94,109.286,17.355
73.98,106.198,16.943
74.01,103.075,16.565
74.04,99.986,16.198
74.07,96.863,15.751
74.11,93.704,15.247
74.14,90.475,14.789
74.17,87.212,14.319
74.2,84.088,13.861
74.24,81.035,13.346
74.27,77.701,12.819
74.3,74.402,12.372
74.33,70.998,11.937
74.37,67.804,11.421
74.4,64.4,10.848
74.43,60.89,10.23
74.46,57.135,9.691
74.5,53.836,9.187
74.53,50.432,8.637
74.56,47.168,7.996
74.59,43.132,7.469
74.63,40.64,6.816
74.66,41.833,5.052
74.69,47.028,0.951
74.72,39.201,-2.199
74.76,26.988,-0.607
74.79,27.585,0.034
74.82,23.83,-0.974
74.85,16.319,-0.985
74.89,9.16,-0.905
74.92,2.878,-0.836
74.95,-2.036,-0.573
74.98,-3.123,-0.08
75.02,-3.123,-0.355
75.05,-6.387,-0.619
75.08,-8.984,-0.55
75.11,-11.195,-0.768
75.15,-15.196,-1.134
75.18,-19.864,-1.776
75.21,-25.62,-2.566
75.25,-31.445,-2.933
75.28,-36.499,-3.047
75.31,-39.728,-3.414
75.34,-41.518,-4.273
75.38,-43.237,-5.292
75.41,-45.659,-6.049
75.44,-48.572,-6.358
75.47,-51.169,-6.381
75.51,-53.941,-6.53
75.54,-57.205,-6.782
75.57,-60.89,-7.068
75.6,-64.786,-7.458
75.64,-68.541,-8.03
75.67,-72.015,-8.752
75.7,-75.349,-9.577
75.73,-78.859,-10.367
75.77,-82.333,-11.009
75.8,-85.667,-11.536
75.83,-88.721,-12.143
75.86,-91.739,-12.613
75.9,-94.933,-13.002
75.93,-98.442,-13.563
75.96,-102.022,-13.999
75.99,-105.251,-14.526
76.03,-108.514,-15.064
76.06,-111.919,-15.717
76.09,-115.463,-16.37
76.12,-118.832,-16.759
76.16,-121.675,-17.172
76.19,-124.237,-17.722
76.22,-127.115,-18.283
76.25,-130.449,-18.684
76.29,-133.783,-19.005
76.32,-136.731,-19.383
76.35,-139.749,-19.956
76.38,-142.873,-20.494
76.42,-146.031,-20.918
76.45,-149.084,-21.422
76.48,-151.892,-21.972
76.51,-154.805,-22.51
76.55,-157.928,-23.026
76.58,-161.052,-23.518
76.61,-163.86,-23.942
76.64,-166.632,-24.343
76.68,-169.37,-24.767
76.71,-172.142,-25.179
76.74,-174.809,-25.5
76.77,-177.477,-25.867
76.81,-180.144,-26.336
76.84,-182.916,-26.726
76.87,-185.443,-27.035
76.9,-187.9,-27.436
76.94,-190.497,-27.803
76.97,-192.989,-28.1
77.0,-195.059,-28.444
77.04,-197.305,-28.822
77.07,-199.762,-29.177
77.1,-202.219,-29.464
77.13,-204.465,-29.716
77.17,-206.535,-30.036
77.2,-208.571,-30.426
77.23,-210.606,-30.712
77.26,-212.852,-30.976
77.3,-215.099,-31.228
77.33,-216.924,-31.526
77.36,-218.748,-31.95
77.39,-221.03,-32.373
77.43,-223.276,-32.694
77.46,-225.171,-32.923
77.49,-226.82,-33.233
77.52,-228.575,-33.725
77.56,-230.821,-34.115
77.59,-232.927,-34.298
77.62,-234.576,-34.561
77.65,-236.226,-34.951
77.69,-237.84,-35.26
77.72,-239.525,-35.524
77.75,-241.315,-35.661
77.78,-242.859,-35.993
77.82,-244.438,-36.291
77.85,-245.982,-36.486
77.88,-247.246,-36.738
77.91,-248.72,-36.99
77.95,-250.264,-37.253
77.98,-251.738,-37.471
78.01,-252.931,-37.712
78.04,-254.265,-38.032
78.08,-255.879,-38.388
78.11,-257.599,-38.697
78.14,-259.178,-39.018
78.17,-260.687,-39.407
78.21,-262.021,-39.728
78.24,-263.004,-40.003
78.27,-264.267,-40.301
78.3,-265.706,-40.53
78.34,-267.11,-40.77
78.37,-268.373,-41.148
78.4,-269.637,-41.446
78.43,-270.83,-41.687
78.47,-271.953,-41.95
78.5,-273.216,-42.168
78.53,-274.374,-42.386
78.56,-275.497,-42.672
78.6,-276.691,-42.912
78.63,-277.744,-43.21
78.66,-278.796,-43.543
78.69,-279.919,-43.749
78.73,-280.797,-43.817
78.76,-281.288,-44.001
78.79,-281.885,-43.943
78.83,-282.306,-43.921
78.86,-282.832,-44.012
78.89,-283.569,-43.978
78.92,-284.026,-44.012
78.96,-284.412,-44.092
78.99,-284.727,-44.195
79.02,-285.219,-44.241
79.05,-285.5,-44.195
79.09,-285.429,-44.127
79.12,-285.464,-44.115
79.15,-285.745,-44.127
79.18,-285.886,-44.069
79.22,-285.745,-44.035
79.25,-285.64,-44.058
79.28,-285.745,-43.932
79.31,-285.394,-43.783
79.35,-284.833,-43.772
79.38,-284.657,-43.806
79.41,-284.763,-43.829
79.44,-284.517,-43.84
79.48,-284.377,-43.817
79.51,-283.955,-43.657
79.54,-283.148,-43.474
79.57,-282.341,-43.336
79.61,-281.639,-43.119
79.64,-280.937,-42.855
79.67,-279.919,-42.741
79.7,-279.147,-42.638
79.74,-278.481,-42.42
79.77,-277.428,-42.248
79.8,-276.234,-42.065
79.83,-275.076,-41.824
79.87,-273.918,-41.549
79.9,-272.795,-41.366
79.93,-271.777,-41.183
79.96,-270.654,-40.965
80.0,-269.286,-40.839
80.03,-268.092,-40.736
80.06,-266.794,-40.438
80.09,-265.215,-40.14
80.13,-263.776,-39.888
80.16,-262.196,-39.625
80.19,-260.582,-39.338
80.22,-259.003,-39.098
80.26,-257.529,-38.914
80.29,-256.02,-38.628
80.32,-254.23,-38.296
80.35,-252.229,-38.124
80.39,-250.755,-38.021
80.42,-249.387,-37.723
80.45,-247.386,-37.471
80.48,-245.456,-37.334
80.52,-244.087,-37.127
80.55,-242.473,-36.83
80.58,-240.192,-36.543
80.61,-238.121,-36.314
80.65,-236.472,-36.074
80.68,-234.822,-35.707
80.71,-232.611,-35.329
80.75,-230.435,-35.111
80.78,-228.68,-34.962
80.81,-226.82,-34.619
80.84,-224.609,-34.355
80.88,-222.363,-34.08
80.91,-220.433,-33.84
80.94,-218.573,-33.702
80.97,-216.748,-33.519
81.01,-214.677,-33.278
81.04,-212.607,-33.107
81.07,-210.641,-32.912
81.1,-208.536,-32.58
81.14,-206.044,-32.224
81.17,-203.693,-31.938
81.2,-201.447,-31.606
81.23,-199.271,-31.274
81.27,-197.165,-31.022
81.3,-194.989,-30.712
81.33,-192.743,-30.357
81.36,-190.216,-30.025
81.4,-187.654,-29.762
81.43,-185.162,-29.395
81.46,-182.811,-28.96
81.49,-180.354,-28.582
81.53,-177.652,-28.215
81.56,-174.985,-27.791
81.59,-172.423,-27.333
81.62,-169.615,-26.852
81.66,-166.808,-26.405
81.69,-163.93,-25.912
81.72,-161.052,-25.328
81.75,-158.42,-24.962
81.79,-155.402,-24.469
81.82,-152.383,-23.919
81.85,-149.33,-23.495
81.88,-146.312,-23.003
81.92,-143.118,-22.499
81.95,-139.925,-21.903
81.98,-136.766,-21.388
82.01,-133.643,-20.895
82.05,-130.624,-20.368
82.08,-127.641,-19.921
82.11,-124.518,-19.429
82.14,-121.149,-18.925
82.18,-117.78,-18.535
82.21,-114.691,-18.1
82.24,-111.638,-17.573
82.27,-108.585,-17.103
82.31,-105.531,-16.633
82.34,-102.373,-16.152
82.37,-99.249,-15.728
82.4,-95.915,-15.328
82.44,-92.511,-14.892
82.47,-89.352,-14.434
82.5,-86.194,-13.941
82.54,-82.965,-13.346
82.57,-79.561,-12.807
82.6,-76.157,-12.361
82.63,-73.033,-11.879
82.67,-69.734,-11.33
82.7,-66.505,-10.825
82.73,-62.996,-10.31
82.76,-59.592,-9.817
82.8,-56.223,-9.359
82.83,-52.924,-8.798
82.86,-49.344,-8.294
82.89,-46.01,-7.778
82.93,-42.22,-7.24
82.96,-40.254,-6.472
82.99,-42.325,-4.513
83.02,-47.098,-0.263
83.06,-37.657,2.234
83.09,-27.69,0.367
83.12,-28.883,0.183
83.15,-24.321,1.1
83.19,-16.74,1.065
83.22,-9.581,0.997
83.25,-3.018,0.962
83.28,2.667,0.745
83.32,4.387,0.195
83.35,4.562,0.435
83.38,8.212,0.756
83.41,11.16,0.699
83.45,13.617,1.1
83.48,18.039,1.673
83.51,23.303,2.451
83.54,29.305,3.059
83.58,34.534,3.196
83.61,37.727,3.437
83.64,38.921,4.227
83.67,40.044,5.201
83.71,42.29,5.911
83.74,45.378,6.003
83.77,48.08,5.625
83.8,50.291,5.43
83.84,52.959,5.808
83.87,56.819,6.335
83.9,61.276,6.701
83.93,65.242,7.194
83.97,68.576,8.007
84.0,71.98,9.016
84.03,75.735,10.001
84.06,79.315,10.688
84.1,82.439,11.215
84.13,85.492,11.845
84.16,88.721,12.361
84.19,91.914,12.693
84.23,95.108,13.14
84.26,98.547,13.678
84.29,102.162,14.182
84.33,105.742,14.778
84.36,109.111,15.396
84.39,112.445,15.969
84.42,115.919,16.645
84.46,119.148,17.16
84.49,121.991,17.596
84.52,124.904,18.157
84.55,128.308,18.81
84.59,131.642,19.085
84.62,134.941,19.532
84.65,138.135,20.162
84.68,141.364,20.631
84.72,144.276,21.124
84.75,147.154,21.628
84.78,150.102,22.029
84.81,153.05,22.464
84.85,156.279,22.911
84.88,159.543,23.312
84.91,162.737,23.816
84.94,165.72,24.435
84.98,168.773,25.053
85.01,172.142,25.615
85.04,175.16,26.153
85.07,177.757,26.554
85.11,180.319,26.943
85.14,183.022,27.344
85.17,185.513,27.528
85.2,187.724,27.608
85.24,189.655,27.757
85.27,191.69,27.837
85.3,193.62,27.826
85.33,195.48,27.78
85.37,197.165,27.78
85.4,198.885,27.894
85.43,200.92,28.066
85.46,203.096,28.226
85.5,204.956,28.467
85.53,206.781,28.811
85.56,208.746,29.269
85.59,210.852,29.716
85.63,213.098,30.128
85.66,215.309,30.495
85.69,217.239,30.884
85.72,219.135,31.434
85.76,221.31,31.938
85.79,223.206,32.156
85.82,224.995,32.557
85.85,226.961,33.015
85.89,228.961,33.29
85.92,230.751,33.53
85.95,232.295,33.851
85.98,233.98,34.206
86.02,235.805,34.561
86.05,237.77,34.825
86.08,239.455,35.111
86.12,241.139,35.535
86.15,242.999,35.925
86.18,244.614,36.245
86.21,246.298,36.681
86.25,248.264,37.139
86.28,250.159,37.483
86.31,251.527,37.803
86.34,253.142,38.193
86.38,254.932,38.571
86.41,256.616,38.823
86.44,258.055,39.086
86.47,259.494,39.384
86.51,261.143,39.693
86.54,262.477,39.923
86.57,263.53,40.003
86.6,264.618,40.22
86.64,266.057,40.461
86.67,267.496,40.667
86.7,268.689,40.976
86.73,269.777,41.274
86.77,271.146,41.503
86.8,272.339,41.71
86.83,273.462,42.007
86.86,274.655,42.271
86.9,275.638,42.523
86.93,276.656,42.786
86.96,277.814,42.947
86.99,278.902,43.142
87.03,279.884,43.336
87.06,280.656,43.474
87.09,281.499,43.657
87.12,282.411,43.76
87.16,282.938,43.795
87.19,283.464,43.84
87.22,284.377,44.001
87.25,285.114,44.173
87.29,285.219,44.001
87.32,285.149,44.069
87.35,284.938,43.783
87.38,284.306,43.245
87.42,283.464,42.798
87.45,283.008,42.34
87.48,282.622,42.007
87.51,282.306,41.79
87.55,282.13,41.79
87.58,282.306,41.996
87.61,282.762,42.317
87.64,283.394,42.718
87.68,283.92,43.176
87.71,284.622,43.703
87.74,285.359,44.356
87.77,286.272,44.871
87.81,286.903,45.238
87.84,287.149,45.536
87.87,287.114,45.582
87.91,286.693,45.421
87.94,285.921,45.192
87.97,285.184,44.906
88.0,284.447,44.505
88.04,283.394,44.035
88.07,282.166,43.474
88.1,280.762,42.901
88.13,279.253,42.363
88.17,277.673,41.847
88.2,275.919,41.332
88.23,274.304,40.885
88.26,272.76,40.484
88.3,271.146,40.117
88.33,269.637,39.762
88.36,268.127,39.43
88.39,266.478,39.144
88.43,264.653,38.903
88.46,263.214,38.651
88.49,261.845,38.376
88.52,260.231,38.124
88.56,258.511,37.952
88.59,256.897,37.883
88.62,255.634,37.78
88.65,254.054,37.597
88.69,252.159,37.437
88.72,250.299,37.185
88.75,248.615,37.093
88.78,246.965,36.875
88.82,245.035,36.486
88.85,242.964,36.348
88.88,241.315,36.222
88.91,239.384,35.902
88.95,237.489,35.661
88.98,235.524,35.581
89.01,233.769,35.352
89.04,231.909,35.146
89.08,229.944,34.939
89.11,228.189,34.745
89.14,226.364,34.619
89.17,224.469,34.458
89.21,222.469,34.241
89.24,220.679,34.092
89.27,218.994,33.931
89.3,216.924,33.759
89.34,214.923,33.588
89.37,212.958,33.404
89.4,210.957,33.129
89.43,208.711,32.774
89.47,206.29,32.476
89.5,204.149,32.179
89.53,202.078,31.743
89.56,199.762,31.4
89.6,197.516,31.159
89.63,195.27,30.884
89.66,193.094,30.586
89.7,190.742,30.243
89.73,188.145,29.876
89.76,185.443,29.498
89.79,182.986,29.097
89.83,180.565,28.662
89.86,178.003,28.226
89.89,175.336,27.768
89.92,172.388,27.287
89.96,169.65,26.921
89.99,166.983,26.508
90.02,164.175,25.912
90.05,161.298,25.466
90.09,158.385,25.007
90.12,155.507,24.538
90.15,152.419,24.08
90.18,149.435,23.621
90.22,146.523,23.22
90.25,143.715,22.716
90.28,140.732,22.258
90.31,137.714,21.834
90.35,134.766,21.399
90.38,131.958,20.964
90.41,128.975,20.505
90.44,125.816,20.036
90.48,122.588,19.566
90.51,119.394,19.073
90.54,116.13,18.478
90.57,112.796,17.905
90.61,109.462,17.458
90.64,106.268,16.92
90.67,103.215,16.29
90.7,99.846,15.694
90.74,96.266,15.179
90.77,92.897,14.697
90.8,89.633,14.205
90.83,86.369,13.655
90.87,83.035,13.117
90.9,79.666,12.67
90.93,76.297,12.223
90.96,73.103,11.765
91.0,69.945,11.318
91.03,66.751,10.871
91.06,63.242,10.436
91.09,59.978,10.001
91.13,56.573,9.588
91.16,53.45,9.096
91.19,49.87,8.603
91.22,46.501,8.065
91.26,42.641,7.572
91.29,40.184,6.919
91.32,41.026,5.189
91.35,46.255,1.18
91.39,39.517,-2.142
91.42,27.164,-0.699
91.45,27.444,0.057
91.49,24.181,-0.928
91.52,17.162,-0.928
91.55,10.283,-0.928
91.58,3.65,-0.882
91.62,-1.93,-0.664
91.65,-3.755,-0.126
91.68,-3.966,-0.401
91.71,-7.967,-0.687
91.75,-10.283,-0.733
91.78,-12.634,-1.489
91.81,-18.074,-2.028
91.84,-23.759,-2.44
91.88,-29.655,-2.807
91.91,-34.674,-3.036
91.94,-38.043,-3.482
91.97,-39.833,-4.365
92.01,-41.412,-5.407
92.04,-43.553,-6.083
92.07,-46.15,-6.289
92.1,-48.607,-6.083
92.14,-50.923,-5.774
92.17,-53.52,-5.831
92.2,-56.924,-6.06
92.23,-60.82,-6.323
92.27,-64.786,-6.747
92.3,-68.471,-7.366
92.33,-71.91,-8.237
92.36,-75.279,-9.199
92.4,-78.929,-10.069
92.43,-82.474,-10.734
92.46,-85.703,-11.318
92.49,-88.756,-11.902
92.53,-91.809,-12.429
92.56,-95.213,-12.945
92.59,-98.653,-13.414
92.62,-101.952,-13.861
92.66,-105.145,-14.468
92.69,-108.585,-15.11
92.72,-112.199,-15.706
92.75,-115.779,-16.267
92.79,-118.938,-16.748
92.82,-121.851,-17.264
92.85,-124.939,-17.997
92.88,-128.273,-18.524
92.92,-131.607,-18.959
92.95,-134.906,-19.429
92.98,-138.205,-19.978
93.01,-141.364,-20.505
93.05,-144.382,-20.941
93.08,-147.33,-21.456
93.11,-150.418,-21.903
93.14,-153.401,-22.258
93.18,-156.104,-22.59
93.21,-158.771,-22.991
93.24,-161.719,-23.472
93.28,-164.912,-23.828
93.31,-167.685,-24.114
93.34,-170.107,-24.561
93.37,-172.774,-25.053
93.41,-175.652,-25.363
93.44,-178.319,-25.672
93.47,-180.986,-26.153
93.5,-183.653,-26.565
93.54,-186.18,-26.909
93.57,-188.531,-27.321
93.6,-191.058,-27.734
93.63,-193.515,-28.02
93.67,-195.831,-28.284
93.7,-198.007,-28.593
93.73,-200.359,-28.937
93.76,-202.64,-29.212
93.8,-204.816,-29.464
93.83,-206.816,-29.727
93.86,-208.852,-30.059
93.89,-210.957,-30.254
93.93,-212.782,-30.495
93.96,-214.677,-30.873
93.99,-216.748,-31.193
94.02,-218.854,-31.48
94.06,-220.924,-31.824
94.09,-222.784,-32.098
94.12,-224.574,-32.362
94.15,-226.294,-32.671
94.19,-228.049,-33.015
94.22,-230.049,-33.29
94.25,-231.558,-33.519
94.28,-233.313,-33.886
94.32,-235.278,-34.344
94.35,-237.279,-34.619
94.38,-238.683,-34.745
94.41,-240.086,-35.088
94.45,-241.911,-35.615
94.48,-243.771,-35.936
94.51,-245.421,-36.165
94.54,-246.93,-36.578
94.58,-248.65,-37.116
94.61,-250.65,-37.379
94.64,-252.264,-37.54
94.67,-253.352,-37.906
94.71,-254.721,-38.376
94.74,-256.757,-38.651
94.77,-258.511,-38.857
94.8,-259.669,-39.189
94.84,-261.038,-39.602
94.87,-262.512,-39.785
94.9,-263.67,-39.831
94.93,-264.548,-40.106
94.97,-265.846,-40.45
95.0,-267.355,-40.553
95.03,-268.619,-40.736
95.07,-269.742,-41.08
95.1,-270.9,-41.435
95.13,-272.304,-41.572
95.16,-273.286,-41.778
95.2,-274.164,-42.248
95.23,-275.287,-42.534
95.26,-276.515,-42.649
95.29,-277.603,-42.901
95.33,-278.761,-43.13
95.36,-279.639,-43.268
95.39,-280.165,-43.417
95.42,-280.762,-43.543
95.46,-281.464,-43.588
95.49,-282.06,-43.52
95.52,-282.622,-43.462
95.55,-283.043,-43.554
95.59,-283.675,-43.691
95.62,-284.306,-43.806
95.65,-284.727,-43.783
95.68,-285.008,-43.955
95.72,-285.464,-44.069
95.75,-285.57,-44.035
95.78,-285.71,-44.001
95.81,-285.921,-44.092
95.85,-286.166,-44.15
95.88,-286.342,-44.115
95.91,-286.201,-44.115
95.94,-286.131,-44.047
95.98,-285.956,-43.898
96.01,-285.535,-43.749
96.04,-285.219,-43.68
96.07,-285.114,-43.646
96.11,-284.903,-43.508
96.14,-284.131,-43.371
96.17,-283.324,-43.313
96.2,-282.692,-43.13
96.24,-281.99,-42.878
96.27,-281.183,-42.58
96.3,-280.27,-42.351
96.33,-279.428,-42.26
96.37,-278.796,-42.111
96.4,-278.024,-41.985
96.43,-277.182,-41.893
96.46,-276.234,-41.744
96.5,-275.076,-41.561
96.53,-274.023,-41.355
96.56,-273.006,-41.16
96.59,-271.848,-40.954
96.63,-270.549,-40.759
96.66,-269.215,-40.633
96.69,-268.198,-40.461
96.72,-266.829,-40.106
96.76,-265.109,-39.831
96.79,-263.565,-39.636
96.82,-262.126,-39.373
96.86,-260.617,-39.052
96.89,-259.108,-38.708
96.92,-257.318,-38.514
96.95,-255.493,-38.342
96.99,-253.844,-38.044
97.02,-252.264,-37.803
97.05,-250.896,-37.643
97.08,-249.071,-37.311
97.12,-246.79,-37.185
97.15,-245.035,-37.07
97.18,-243.631,-36.738
97.21,-241.876,-36.406
97.25,-239.841,-36.096
97.28,-237.63,-35.879
97.31,-235.875,-35.753
97.34,-234.155,-35.569
97.38,-232.225,-35.306
97.41,-230.295,-35.134
97.44,-228.54,-34.974
97.47,-226.61,-34.71
97.51,-224.785,-34.435
97.54,-222.855,-34.172
97.57,-220.714,-33.977
97.6,-218.678,-33.84
97.64,-216.748,-33.507
97.67,-214.642,-33.244
97.7,-212.782,-33.107
97.73,-210.747,-32.786
97.77,-208.22,-32.408
97.8,-205.869,-32.236
97.83,-203.973,-31.95
97.86,-201.797,-31.549
97.9,-199.516,-31.297
97.93,-197.446,-31.067
97.96,-195.305,-30.77
97.99,-192.953,-30.46
98.03,-190.321,-30.128
98.06,-187.759,-29.762
98.09,-185.197,-29.326
98.12,-182.706,-28.845
98.16,-180.109,-28.421
98.19,-177.582,-28.055
98.22,-174.879,-27.585
98.25,-172.212,-27.104
98.29,-169.334,-26.68
98.32,-166.562,-26.233
98.35,-163.579,-25.729
98.38,-160.771,-25.191
98.42,-158.139,-24.87
98.45,-155.191,-24.32
98.48,-152.032,-23.747
98.51,-148.839,-23.392
98.55,-145.961,-22.911
98.58,-143.048,-22.384
98.61,-139.995,-21.846
98.65,-136.801,-21.388
98.68,-133.818,-20.964
98.71,-130.835,-20.505
98.74,-127.887,-20.059
98.78,-124.763,-19.6
98.81,-121.535,-19.154
98.84,-118.306,-18.65
98.87,-115.112,-18.111
98.91,-111.919,-17.584
98.94,-108.725,-17.08
98.97,-105.531,-16.576
99.0,-102.232,-16.187
99.04,-99.179,-15.763
99.07,-96.126,-15.224
99.1,-92.862,-14.663
99.13,-89.317,-14.193
99.17,-86.018,-13.758
99.2,-82.79,-13.323
99.23,-79.561,-12.83
99.26,-76.262,-12.326
99.3,-72.893,-11.811
99.33,-69.489,-11.272
99.36,-66.119,-10.734
99.39,-62.645,-10.218
99.43,-59.451,-9.668
99.46,-56.082,-9.119
99.49,-52.713,-8.592
99.52,-49.028,-8.122
99.56,-45.764,-7.629
99.59,-41.974,-7.114
99.62,-39.903,-6.415
99.65,-41.833,-4.502
99.69,-46.536,-0.332
99.72,-37.271,2.245
99.75,-26.918,0.424
99.78,-28.076,0.137
99.82,-24.005,1.042
99.85,-16.495,1.1
99.88,-9.16,1.008
99.91,-2.808,0.916
99.95,2.492,0.71
99.98,4.141,0.206
100.01,4.422,0.424
100.04,8.002,0.802
100.08,11.617,0.619
100.11,14.073,0.779
100.14,17.828,1.443
100.17,22.742,2.348
100.21,28.638,3.024
100.24,34.007,3.15
100.27,37.447,3.253
100.3,38.745,3.929
100.34,39.868,4.914
100.37,42.044,5.648
100.4,45.132,5.774
100.44,47.975,5.556
100.47,50.467,5.441
100.5,53.31,5.716
100.53,56.995,6.255
100.57,61.241,6.793
100.6,65.347,7.458
100.63,68.997,8.305
100.66,72.366,9.199
100.7,75.841,10.138
100.73,79.456,10.974
100.76,82.93,11.536
100.79,86.053,11.994
100.83,89.142,12.509
100.86,92.3,12.945
100.89,95.529,13.277
100.92,98.898,13.735
100.96,102.373,14.216
100.99,105.882,14.72
101.02,109.251,15.305
101.05,112.445,15.832
101.09,115.744,16.462
101.12,119.113,17.103
101.15,122.237,17.504
101.18,125.22,17.939
101.22,128.273,18.547
101.25,131.537,19.073
101.28,134.695,19.406
101.31,137.994,19.944
101.35,141.188,20.425
101.38,144.312,20.792
101.41,147.189,21.319
101.44,150.067,21.846
101.48,153.085,22.281
101.51,156.104,22.751
101.54,159.122,23.255
101.57,162.14,23.759
101.61,165.193,24.206
101.64,168.036,24.641
101.67,170.879,25.065
101.7,173.616,25.466
101.74,176.213,25.809
101.77,178.81,26.176
101.8,181.512,26.577
101.83,184.18,26.852
101.87,186.531,27.047
101.9,188.742,27.344
101.93,190.988,27.608
101.96,193.059,27.722
102.0,194.989,27.86
102.03,197.025,28.089
102.06,199.2,28.249
102.09,201.201,28.398
102.13,203.271,28.673
102.16,205.482,29.028
102.19,207.553,29.338
102.23,209.554,29.704
102.26,211.694,30.082
102.29,213.765,30.472
102.32,215.765,30.896
102.36,217.836,31.297
102.39,220.047,31.732
102.42,222.258,32.121
102.45,224.083,32.385
102.49,225.803,32.74
102.52,227.663,33.21
102.55,229.698,33.565
102.58,231.628,33.794
102.62,233.243,34.046
102.65,235.208,34.493
102.68,237.173,34.79
102.71,238.823,35.008
102.75,240.051,35.272
102.78,241.736,35.615
102.81,243.666,36.005
102.84,245.386,36.28
102.88,246.895,36.555
102.91,248.579,36.921
102.94,250.334,37.288
102.97,251.773,37.528
103.01,253.177,37.861
103.04,254.967,38.227
103.07,256.546,38.479
103.1,257.88,38.766
103.14,259.283,39.132
103.17,260.968,39.476
103.2,262.477,39.682
103.23,263.46,39.819
103.27,264.548,40.094
103.3,266.162,40.335
103.33,267.531,40.495
103.36,268.654,40.896
103.4,270.023,41.229
103.43,271.286,41.389
103.46,272.374,41.664
103.49,273.602,41.893
103.53,274.796,42.065
103.56,275.848,42.305
103.59,276.761,42.592
103.62,277.849,42.855
103.66,279.007,43.096
103.69,280.13,43.187
103.72,280.937,43.291
103.75,281.534,43.497
103.79,282.166,43.623
103.82,282.727,43.646
103.85,283.253,43.623
103.88,284.201,43.76
103.92,284.973,43.932
103.95,285.114,43.783
103.98,285.219,43.863
104.02,285.324,43.795
104.05,285.254,43.554
104.08,284.938,43.348
104.11,284.833,43.21
104.15,284.973,43.233
104.18,285.043,43.245
104.21,285.254,43.313
104.24,285.464,43.497
104.28,285.675,43.669
104.31,285.921,43.772
104.34,285.991,43.955
104.37,286.237,44.184
104.41,286.658,44.264
104.44,286.728,44.379
104.47,286.658,44.425
104.5,286.237,44.356
104.54,285.57,44.184
104.57,284.938,43.875
104.6,283.99,43.474
104.63,282.797,43.096
104.67,281.885,42.764
104.7,280.937,42.351
104.73,279.568,42.007
104.76,278.235,41.687
104.8,277.007,41.286
104.83,275.568,40.873
104.86,274.023,40.541
104.89,272.62,40.255
104.93,271.356,40.014
104.96,270.058,39.808
104.99,268.689,39.648
105.02,267.461,39.51
105.06,266.127,39.384
105.09,264.758,39.224
105.12,263.249,39.063
105.15,261.88,38.949
105.19,260.477,38.8
105.22,259.003,38.594
105.25,257.458,38.41
105.28,255.774,38.25
105.32,254.23,38.055
105.35,252.475,37.746
105.38,250.58,37.46
105.41,248.825,37.253
105.45,247.141,37.001
105.48,245.351,36.692
105.51,243.42,36.429
105.54,241.49,36.211
105.58,239.56,35.936
105.61,237.595,35.707
105.64,235.805,35.547
105.67,233.98,35.295
105.71,232.12,35.065
105.74,230.084,34.825
105.77,228.049,34.71
105.81,226.469,34.642
105.84,224.785,34.412
105.87,222.749,34.16
105.9,220.749,34.034
105.94,218.924,33.908
105.97,217.029,33.714
106.0,215.028,33.519
106.03,212.958,33.313
106.07,210.887,33.003
106.1,208.606,32.602
106.13,206.149,32.236
106.16,203.798,31.927
106.2,201.657,31.537
106.23,199.446,31.148
106.26,197.095,30.896
106.29,194.884,30.667
106.33,192.883,30.346
106.36,190.532,30.059
106.39,188.005,29.796
106.42,185.513,29.441
106.46,183.022,29.063
106.49,180.635,28.708
106.52,178.003,28.375
106.55,175.336,27.906
106.59,172.458,27.379
106.62,169.685,26.932
106.65,166.948,26.405
106.68,164.0,25.786
106.72,161.017,25.351
106.75,158.034,24.904
106.78,155.367,24.458
106.81,152.489,23.919
106.85,149.435,23.369
106.88,146.242,23.037
106.91,143.294,22.567
106.94,140.346,22.098
106.98,137.328,21.628
107.01,134.239,21.147
107.04,131.221,20.7
107.07,128.378,20.242
107.11,125.29,19.772
107.14,122.026,19.314
107.17,118.797,18.856
107.2,115.604,18.375
107.24,112.515,17.825
107.27,109.427,17.332
107.3,106.198,16.885
107.33,102.969,16.416
107.37,99.846,15.969
107.4,96.652,15.488
107.43,93.353,14.949
107.46,89.809,14.434
107.5,86.545,13.953
107.53,83.281,13.472
107.56,80.087,12.968
107.6,76.753,12.487
107.63,73.454,11.983
107.66,70.05,11.467
107.69,66.681,10.963
107.73,63.101,10.436
107.76,59.732,9.886
107.79,56.223,9.451
107.82,52.994,8.924
107.86,49.414,8.374
107.89,46.115,7.79
107.92,42.22,7.354
107.95,40.149,6.644
107.99,42.255,4.651
108.02,47.238,0.218
108.05,36.92,-2.257
108.08,26.848,-0.218
108.12,28.532,-0.08
108.15,23.759,-1.054
108.18,16.53,-0.894
108.21,9.932,-0.928
108.25,2.878,-0.951
108.28,-2.948,-0.653
108.31,-4.282,-0.069
108.34,-4.562,-0.447
108.38,-8.809,-0.607
108.41,-9.616,-0.882
108.44,-12.389,-1.913
108.47,-18.53,-2.085
108.51,-23.865,-2.142
108.54,-28.883,-2.291
108.57,-32.99,-2.543
108.6,-36.429,-2.978
108.64,-38.71,-3.735
108.67,-40.64,-4.525
108.7,-42.465,-5.086
108.73,-45.062,-5.441
108.77,-47.905,-5.636
108.8,-50.993,-5.716
108.83,-54.257,-5.888
108.86,-57.732,-6.22
108.9,-61.276,-6.701
108.93,-65.031,-7.412
108.96,-68.927,-8.111
108.99,-72.472,-8.672
109.03,-75.525,-9.371
109.06,-78.473,-10.161
109.09,-81.667,-10.791
109.12,-85.246,-11.318
109.16,-88.791,-11.788
109.19,-91.985,-12.154
109.22,-94.862,-12.624
109.25,-98.021,-13.288
109.29,-101.601,-13.918
109.32,-105.321,-14.48
109.35,-108.76,-14.949
109.39,-111.954,-15.511
109.42,-115.218,-16.175
109.45,-118.552,-16.771
109.48,-121.815,-17.229
109.52,-124.904,-17.836
109.55,-128.168,-18.432
109.58,-131.572,-18.993
109.61,-134.695,-19.406
109.65,-137.819,-19.99
109.68,-140.942,-20.631
109.71,-144.206,-20.975
109.74,-147.365,-21.365
109.78,-150.243,-21.766
109.81,-152.945,-22.109
109.84,-155.577,-22.59
109.87,-158.56,-23.06
109.91,-161.719,-23.392
109.94,-164.561,-23.747
109.97,-167.264,-24.114
110.0,-169.756,-24.538
110.04,-172.563,-24.973
110.07,-175.371,-25.294
110.1,-178.003,-25.523
110.13,-180.495,-25.947
110.17,-183.127,-26.428
110.2,-185.759,-26.772
110.23,-188.286,-27.138
110.26,-190.742,-27.551
110.3,-193.199,-27.883
110.33,-195.41,-28.261
110.36,-197.902,-28.639
110.39,-200.359,-28.971
110.43,-202.64,-29.235
110.46,-204.675,-29.567
110.49,-206.641,-29.922
110.52,-208.852,-30.185
110.56,-210.852,-30.403
110.59,-212.747,-30.678
110.62,-214.923,-30.941
110.65,-216.924,-31.193
110.69,-218.819,-31.571
110.72,-220.784,-32.053
110.75,-222.855,-32.476
110.78,-224.785,-32.774
110.82,-226.61,-33.061
110.85,-228.505,-33.381
110.88,-230.26,-33.691
110.91,-232.05,-33.805
110.95,-233.524,-34.092
110.98,-235.384,-34.596
111.01,-237.524,-34.871
111.04,-238.788,-35.02
111.08,-239.981,-35.283
111.11,-241.946,-35.856
111.14,-244.157,-36.211
111.18,-245.877,-36.394
111.21,-247.0,-36.669
111.24,-248.474,-37.15
111.27,-250.404,-37.563
111.31,-252.229,-37.735
111.34,-253.423,-37.975
111.37,-254.616,-38.376
111.4,-256.371,-38.708
111.44,-258.055,-38.983
111.47,-259.669,-39.315
111.5,-261.179,-39.602
111.53,-262.337,-39.831
111.57,-263.249,-40.037
111.6,-264.478,-40.266
111.63,-265.881,-40.45
111.66,-267.25,-40.69
111.7,-268.584,-40.942
111.73,-269.777,-41.217
111.76,-270.795,-41.538
111.79,-271.848,-41.847
111.83,-273.006,-42.076
111.86,-274.129,-42.317
111.89,-275.182,-42.546
111.92,-276.34,-42.752
111.96,-277.603,-42.993
111.99,-278.691,-43.187
112.02,-279.428,-43.508
112.05,-280.2,-43.691
112.09,-281.007,-43.783
112.12,-281.639,-43.898
112.15,-282.166,-43.978
112.18,-282.832,-43.955
112.22,-283.394,-43.966
112.25,-283.99,-43.932
112.28,-284.763,-44.184
112.31,-285.149,-44.23
112.35,-285.535,-44.436
112.38,-285.851,-44.493
112.41,-285.851,-44.322
112.44,-285.956,-44.413
112.48,-286.552,-44.413
112.51,-286.763,-44.253
112.54,-286.342,-44.264
112.57,-286.131,-44.264
112.61,-285.991,-44.115
112.64,-285.605,-43.898
112.67,-285.114,-43.646
112.7,-284.692,-43.508
112.74,-284.482,-43.439
112.77,-284.306,-43.382
112.8,-283.92,-43.325
112.83,-283.183,-43.279
112.87,-282.727,-43.165
112.9,-281.99,-43.05
112.93,-281.042,-42.89
112.97,-280.27,-42.718
113.0,-279.744,-42.512
113.03,-279.007,-42.305
113.06,-278.024,-42.156
113.1,-276.936,-42.099
113.13,-275.989,-41.962
113.16,-275.006,-41.755
113.19,-273.918,-41.503
113.23,-272.585,-41.355
113.26,-271.461,-41.229
113.29,-270.549,-40.942
113.32,-269.25,-40.702
113.36,-267.706,-40.541
113.39,-266.267,-40.289
113.42,-264.758,-40.026
113.45,-263.284,-39.785
113.49,-261.986,-39.487
113.52,-260.371,-39.178
113.55,-258.757,-38.937
113.58,-257.248,-38.766
113.62,-255.669,-38.525
113.65,-253.844,-38.181
113.68,-252.089,-37.941
113.71,-250.404,-37.883
113.75,-248.72,-37.62
113.78,-246.965,-37.311
113.81,-245.14,-37.093
113.84,-243.385,-36.852
113.88,-241.595,-36.589
113.91,-239.735,-36.348
113.94,-237.77,-36.131
113.97,-236.121,-35.993
114.01,-234.436,-35.81
114.04,-232.401,-35.524
114.07,-230.47,-35.386
114.1,-228.786,-35.272
114.14,-226.996,-34.962
114.17,-224.82,-34.699
114.2,-222.82,-34.573
114.23,-221.065,-34.332
114.27,-219.099,-34.034
114.3,-216.924,-33.771
114.33,-214.713,-33.507
114.36,-212.572,-33.278
114.4,-210.361,-32.877
114.43,-208.15,-32.522
114.46,-205.693,-32.041
114.49,-203.236,-31.606
114.53,-200.955,-31.491
114.56,-199.236,-31.228
114.59,-197.305,-30.804
114.62,-194.849,-30.552
114.66,-192.392,-30.449
114.69,-190.321,-30.266
114.72,-188.216,-29.945
114.76,-185.548,-29.509
114.79,-182.671,-29.143
114.82,-180.074,-28.834
114.85,-177.827,-28.375
114.89,-175.195,-27.78
114.92,-172.037,-27.253
114.95,-169.054,-26.863
114.98,-166.457,-26.462
115.02,-163.895,-25.958
115.05,-161.017,-25.34
115.08,-158.279,-25.007
115.11,-155.296,-24.561
115.15,-152.173,-23.965
115.18,-149.084,-23.621
115.21,-146.277,-23.129
115.24,-143.364,-22.533
115.28,-140.1,-21.983
115.31,-136.836,-21.479
115.34,-133.713,-20.975
115.37,-130.624,-20.574
115.41,-127.676,-20.196
115.44,-124.763,-19.715
115.47,-121.57,-19.188
115.5,-118.13,-18.741
115.54,-114.902,-18.237
115.57,-111.884,-17.71
115.6,-108.9,-17.206
115.63,-105.672,-16.668
115.67,-102.513,-16.21
115.7,-99.39,-15.763
115.73,-96.126,-15.213
115.76,-92.616,-14.709
115.8,-89.177,-14.331
115.83,-85.983,-13.896
115.86,-82.86,-13.334
115.89,-79.561,-12.75
115.93,-76.051,-12.257
115.96,-72.577,-11.834
115.99,-69.383,-11.375
116.02,-66.33,-10.825
116.06,-63.031,-10.23
116.09,-59.592,-9.737
116.12,-56.047,-9.256
116.15,-52.748,-8.718
116.19,-49.168,-8.237
116.22,-46.115,-7.698
116.25,-42.22,-7.102
116.28,-39.728,-6.449
116.32,-41.132,-4.708
116.35,-46.045,-0.63
116.38,-37.692,2.28
116.41,-26.251,0.596
116.45,-26.918,0.103
116.48,-23.338,0.997
116.51,-15.968,1.123
116.55,-8.388,1.031
116.58,-2.176,0.871
116.61,2.386,0.607
