Trigger_Date,2023/08/25
Trigger_Time,T 12:14:13.251 PDT
Samples_Per_Cycle,512
Microseconds_Per_Sample,32.545
Time (ms),Voltage (V),Current (A)
-16.66,-3.123,-0.263
-16.63,-3.334,-0.172
-16.6,-5.054,-0.515
-16.57,-8.669,-0.664
-16.53,-11.371,-0.779
-16.5,-15.196,-1.123
-16.47,-19.934,-1.799
-16.44,-25.9,-2.738
-16.4,-32.428,-3.288
-16.37,-37.938,-3.471
-16.34,-41.096,-3.872
-16.3,-42.535,-4.846
-16.27,-44.08,-5.968
-16.24,-46.431,-6.644
-16.21,-49.168,-6.69
-16.17,-51.66,-6.564
-16.14,-54.257,-6.541
-16.11,-57.346,-6.679
-16.08,-61.066,-6.919
-16.04,-65.137,-7.32
-16.01,-68.927,-7.813
-15.98,-72.261,-8.534
-15.95,-75.385,-9.405
-15.91,-78.683,-10.23
-15.88,-82.158,-10.883
-15.85,-85.281,-11.307
-15.82,-88.019,-11.65
-15.78,-90.862,-12.12
-15.75,-94.055,-12.613
-15.72,-97.424,-12.968
-15.69,-100.793,-13.392
-15.65,-104.022,-13.884
-15.62,-107.356,-14.445
-15.59,-110.796,-15.167
-15.56,-114.165,-15.877
-15.52,-117.499,-16.381
-15.49,-120.657,-16.931
-15.46,-123.781,-17.573
-15.43,-126.869,-18.157
-15.39,-130.133,-18.776
-15.36,-133.572,-19.394
-15.33,-137.047,-19.898
-15.3,-140.416,-20.425
-15.26,-143.364,-20.929
-15.23,-146.207,-21.445
-15.2,-149.471,-22.052
-15.17,-152.664,-22.522
-15.13,-155.507,-22.854
-15.1,-158.385,-23.369
-15.07,-161.508,-23.85
-15.04,-164.456,-24.171
-15.0,-167.229,-24.503
-14.97,-169.931,-25.03
-14.94,-172.809,-25.489
-14.91,-175.511,-25.741
-14.87,-178.073,-26.038
-14.84,-180.565,-26.508
-14.81,-183.267,-26.909
-14.78,-185.829,-27.195
-14.74,-188.216,-27.447
-14.71,-190.321,-27.734
-14.68,-192.427,-28.02
-14.65,-194.814,-28.192
-14.61,-196.989,-28.352
-14.58,-199.095,-28.708
-14.55,-201.447,-29.051
-14.51,-203.728,-29.292
-14.48,-205.833,-29.601
-14.45,-207.869,-29.968
-14.42,-209.869,-30.277
-14.38,-211.87,-30.598
-14.35,-213.976,-30.919
-14.32,-216.011,-31.205
-14.29,-218.011,-31.526
-14.25,-219.977,-31.927
-14.22,-221.837,-32.282
-14.19,-223.837,-32.625
-14.16,-225.768,-32.969
-14.12,-227.768,-33.324
-14.09,-229.839,-33.656
-14.06,-231.628,-33.966
-14.03,-233.278,-34.344
-13.99,-235.033,-34.779
-13.96,-236.963,-35.157
-13.93,-238.893,-35.409
-13.9,-240.402,-35.615
-13.86,-241.982,-35.959
-13.83,-243.912,-36.337
-13.8,-245.456,-36.6
-13.77,-246.965,-36.99
-13.73,-248.79,-37.379
-13.7,-250.72,-37.746
-13.67,-252.299,-37.998
-13.64,-253.493,-38.342
-13.6,-254.826,-38.697
-13.57,-256.616,-38.96
-13.54,-258.266,-39.155
-13.51,-259.459,-39.441
-13.47,-260.863,-39.785
-13.44,-262.337,-40.003
-13.41,-263.319,-40.014
-13.38,-264.232,-40.278
-13.34,-265.285,-40.472
-13.31,-266.443,-40.484
-13.28,-267.671,-40.69
-13.25,-268.864,-40.908
-13.21,-270.058,-41.103
-13.18,-271.04,-41.377
-13.15,-272.163,-41.744
-13.12,-273.286,-42.065
-13.08,-274.409,-42.363
-13.05,-275.568,-42.649
-13.02,-276.831,-42.958
-12.99,-278.024,-43.256
-12.95,-279.077,-43.588
-12.92,-280.025,-43.749
-12.89,-280.797,-43.84
-12.86,-281.113,-43.978
-12.82,-281.85,-44.047
-12.79,-282.481,-43.932
-12.76,-283.078,-43.943
-12.72,-283.675,-44.127
-12.69,-284.271,-44.367
-12.66,-285.008,-44.505
-12.63,-285.535,-44.562
-12.59,-285.71,-44.608
-12.56,-285.78,-44.642
-12.53,-285.991,-44.574
-12.5,-286.237,-44.493
-12.46,-286.237,-44.493
-12.43,-286.237,-44.413
-12.4,-286.061,-44.322
-12.37,-285.921,-44.161
-12.33,-285.464,-43.978
-12.3,-284.938,-43.852
-12.27,-284.622,-43.714
-12.24,-284.447,-43.646
-12.2,-284.306,-43.565
-12.17,-284.026,-43.451
-12.14,-283.043,-43.439
-12.11,-282.271,-43.417
-12.07,-281.885,-43.245
-12.04,-281.253,-42.958
-12.01,-280.621,-42.924
-11.98,-280.692,-43.05
-11.94,-280.692,-43.061
-11.91,-279.674,-43.061
-11.88,-278.586,-43.096
-11.85,-277.919,-42.947
-11.81,-277.042,-42.58
-11.78,-275.322,-42.065
-11.75,-273.357,-41.538
-11.72,-271.461,-41.103
-11.68,-270.093,-40.644
-11.65,-268.549,-40.117
-11.62,-266.864,-39.693
-11.59,-265.074,-39.373
-11.55,-263.354,-39.178
-11.52,-262.091,-38.995
-11.49,-260.828,-38.708
-11.46,-259.143,-38.491
-11.42,-257.529,-38.399
-11.39,-256.125,-38.399
-11.36,-254.826,-38.319
-11.33,-253.072,-38.021
-11.29,-250.79,-37.677
-11.26,-249.246,-37.677
-11.23,-248.018,-37.471
-11.2,-246.228,-37.082
-11.16,-243.912,-36.807
-11.13,-241.911,-36.578
-11.1,-240.192,-36.383
-11.07,-238.332,-36.085
-11.03,-236.507,-35.821
-11.0,-234.506,-35.615
-10.97,-232.541,-35.443
-10.94,-230.821,-35.191
-10.9,-229.031,-34.939
-10.87,-227.031,-34.71
-10.84,-225.031,-34.516
-10.8,-223.1,-34.344
-10.77,-221.24,-34.115
-10.74,-219.345,-33.805
-10.71,-217.239,-33.507
-10.67,-215.099,-33.301
-10.64,-213.133,-33.049
-10.61,-211.098,-32.82
-10.58,-208.957,-32.637
-10.54,-206.956,-32.454
-10.51,-205.061,-32.202
-10.48,-203.026,-31.972
-10.45,-200.85,-31.72
-10.41,-198.709,-31.537
-10.38,-196.638,-31.331
-10.35,-194.603,-31.033
-10.32,-192.427,-30.678
-10.28,-189.97,-30.38
-10.25,-187.479,-30.151
-10.22,-185.233,-29.807
-10.19,-182.916,-29.429
-10.15,-180.53,-29.12
-10.12,-178.178,-28.719
-10.09,-175.687,-28.295
-10.06,-173.09,-27.871
-10.02,-170.352,-27.459
-9.99,-167.685,-27.047
-9.96,-164.737,-26.462
-9.93,-161.543,-25.729
-9.89,-158.244,-25.214
-9.86,-155.261,-24.664
-9.83,-152.243,-23.896
-9.8,-148.909,-23.175
-9.76,-145.54,-22.556
-9.73,-142.276,-22.04
-9.7,-139.363,-21.514
-9.67,-136.31,-20.906
-9.63,-132.835,-20.391
-9.6,-129.607,-20.047
-9.57,-126.729,-19.612
-9.54,-123.816,-19.062
-9.5,-120.447,-18.512
-9.47,-117.007,-18.054
-9.44,-113.744,-17.687
-9.41,-110.796,-17.309
-9.37,-107.918,-16.805
-9.34,-104.689,-16.313
-9.31,-101.355,-15.946
-9.28,-98.126,-15.614
-9.24,-95.108,-15.19
-9.21,-91.949,-14.697
-9.18,-88.721,-14.216
-9.15,-85.597,-13.781
-9.11,-82.544,-13.392
-9.08,-79.701,-13.048
-9.05,-76.718,-12.681
-9.01,-73.77,-12.361
-8.98,-70.927,-12.074
-8.95,-68.12,-11.753
-8.92,-64.891,-11.307
-8.88,-61.452,-10.848
-8.85,-57.837,-10.356
-8.82,-54.538,-9.817
-8.79,-51.134,-9.164
-8.75,-47.729,-8.477
-8.72,-43.764,-7.755
-8.69,-40.71,-7.034
-8.66,-40.5,-5.453
-8.62,-45.308,-1.799
-8.59,-40.956,2.085
-8.56,-26.883,1.226
-8.53,-25.374,-0.046
-8.49,-23.549,0.894
-8.46,-15.968,1.18
-8.43,-8.353,0.985
-8.4,-2.316,0.894
-8.36,2.773,0.676
-8.33,3.72,0.126
-8.3,3.896,0.538
-8.27,8.493,0.894
-8.23,12.459,0.619
-8.2,14.915,0.836
-8.17,18.916,1.627
-8.14,24.181,2.658
-8.1,30.392,3.311
-8.07,35.481,3.334
-8.04,37.762,3.54
-8.01,38.219,4.422
-7.97,39.482,5.476
-7.94,42.184,6.003
-7.91,45.413,5.865
-7.88,48.01,5.499
-7.84,50.502,5.476
-7.81,53.836,5.934
-7.78,57.907,6.404
-7.75,62.083,6.828
-7.71,65.628,7.515
-7.68,69.102,8.477
-7.65,72.647,9.359
-7.62,76.016,10.001
-7.58,78.964,10.573
-7.55,81.912,11.123
-7.52,85.036,11.57
-7.49,88.264,11.96
-7.45,91.458,12.292
-7.42,94.582,12.693
-7.39,97.881,13.311
-7.36,101.566,13.941
-7.32,105.286,14.48
-7.29,108.585,15.064
-7.26,111.813,15.797
-7.22,115.253,16.473
-7.19,118.446,16.977
-7.16,121.359,17.401
-7.13,124.413,17.985
-7.09,127.431,18.386
-7.06,130.344,18.661
-7.03,133.362,19.154
-7.0,136.801,19.681
-6.96,140.24,20.162
-6.93,143.294,20.54
-6.9,145.926,21.021
-6.87,148.734,21.674
-6.83,152.032,22.384
-6.8,155.542,22.865
-6.77,158.63,23.209
-6.74,161.403,23.724
-6.7,164.175,24.343
-6.67,167.334,24.824
-6.64,170.387,25.156
-6.61,173.09,25.5
-6.57,175.441,25.878
-6.54,178.038,26.29
-6.51,180.986,26.646
-6.48,183.618,26.909
-6.44,186.005,27.207
-6.41,188.251,27.551
-6.38,190.567,27.894
-6.35,193.164,28.181
-6.31,195.586,28.41
-6.28,197.762,28.685
-6.25,199.973,29.028
-6.22,202.289,29.326
-6.18,204.535,29.521
-6.15,206.606,29.704
-6.12,208.36,29.91
-6.09,209.975,30.174
-6.05,211.87,30.46
-6.02,213.976,30.712
-5.99,215.906,30.919
-5.96,217.731,31.125
-5.92,219.415,31.445
-5.89,221.31,31.801
-5.86,223.381,32.098
-5.83,225.241,32.385
-5.79,226.961,32.809
-5.76,228.821,33.244
-5.73,230.786,33.633
-5.7,232.716,33.943
-5.66,234.822,34.39
-5.63,236.823,34.813
-5.6,238.367,35.008
-5.57,239.841,35.375
-5.53,241.736,35.913
-5.5,243.736,36.28
-5.47,245.351,36.486
-5.43,246.79,36.784
-5.4,248.474,37.185
-5.37,250.194,37.46
-5.34,251.668,37.631
-5.3,253.001,37.975
-5.27,254.475,38.33
-5.24,256.23,38.594
-5.21,257.845,38.811
-5.17,259.389,39.109
-5.14,260.898,39.51
-5.11,262.267,39.854
-5.08,263.495,40.003
-5.04,264.583,40.22
-5.01,265.916,40.53
-4.98,267.39,40.724
-4.95,268.724,40.976
-4.91,269.987,41.297
-4.88,271.181,41.584
-4.85,272.339,41.813
-4.82,273.462,42.03
-4.78,274.62,42.305
-4.75,275.813,42.443
-4.72,276.796,42.58
-4.69,277.779,42.947
-4.65,278.937,43.233
-4.62,279.849,43.291
-4.59,280.446,43.382
-4.56,281.078,43.474
-4.52,281.744,43.508
-4.49,282.271,43.474
-4.46,282.797,43.565
-4.43,283.569,43.714
-4.39,284.517,43.955
-4.36,284.798,43.909
-4.33,284.833,43.943
-4.3,285.078,43.932
-4.26,285.394,43.886
-4.23,285.394,43.875
-4.2,285.254,43.577
-4.17,285.149,43.531
-4.13,285.324,43.565
-4.1,285.289,43.497
-4.07,285.008,43.417
-4.04,284.868,43.394
-4.0,284.622,43.325
-3.97,284.412,43.187
-3.94,284.306,43.061
-3.91,284.096,43.119
-3.87,283.815,43.153
-3.84,283.394,43.153
-3.81,283.008,43.13
-3.78,282.516,43.038
-3.74,281.815,42.912
-3.71,281.218,42.752
-3.68,280.586,42.569
-3.65,279.849,42.5
-3.61,279.077,42.408
-3.58,278.27,42.305
-3.55,277.533,42.214
-3.51,276.726,41.985
-3.48,275.392,41.698
-3.45,274.059,41.446
-3.42,273.006,41.148
-3.38,271.672,40.885
-3.35,270.198,40.69
-3.32,268.759,40.541
-3.29,267.741,40.301
-3.25,266.443,39.957
-3.22,264.864,39.636
-3.19,263.214,39.338
-3.16,261.494,39.121
-3.12,259.95,38.892
-3.09,258.371,38.64
-3.06,256.792,38.41
-3.03,255.142,38.17
-2.99,253.387,37.895
-2.96,251.738,37.654
-2.93,250.299,37.494
-2.9,248.79,37.311
-2.86,246.895,37.047
-2.83,245.316,36.99
-2.8,243.806,36.944
-2.77,242.122,36.646
-2.73,239.911,36.28
-2.7,237.7,36.108
-2.67,236.015,35.913
-2.64,234.19,35.535
-2.6,232.085,35.26
-2.57,230.154,35.088
-2.54,228.47,34.951
-2.51,226.68,34.802
-2.47,224.715,34.561
-2.44,222.749,34.332
-2.41,220.854,34.172
-2.38,218.889,33.92
-2.34,216.818,33.645
-2.31,214.607,33.359
-2.28,212.396,33.084
-2.25,210.361,32.843
-2.21,208.115,32.442
-2.18,205.658,32.064
-2.15,203.412,31.801
-2.12,201.376,31.571
-2.08,199.271,31.274
-2.05,197.27,31.056
-2.02,195.164,30.815
-1.99,192.883,30.495
-1.95,190.462,30.243
-1.92,188.005,30.002
-1.89,185.478,29.601
-1.86,182.846,29.12
-1.82,180.284,28.696
-1.79,177.827,28.261
-1.76,175.09,27.757
-1.72,172.107,27.287
-1.69,169.229,26.829
-1.66,166.492,26.325
-1.63,163.719,25.798
-1.59,160.806,25.259
-1.56,157.928,24.824
-1.53,155.121,24.423
-1.5,152.313,24.057
-1.46,149.716,23.759
-1.43,146.873,23.335
-1.4,143.61,22.808
-1.37,140.205,22.281
-1.33,137.047,21.731
-1.3,133.958,21.147
-1.27,130.659,20.471
-1.24,127.325,19.852
-1.2,123.886,19.28
-1.17,120.482,18.753
-1.14,117.464,18.226
-1.11,114.165,17.607
-1.07,110.76,17.023
-1.04,107.532,16.679
-1.01,104.619,16.313
-0.98,101.53,15.877
-0.94,98.267,15.511
-0.91,94.897,15.156
-0.88,91.634,14.686
-0.85,88.44,14.193
-0.81,85.316,13.678
-0.78,82.053,13.185
-0.75,78.754,12.761
-0.72,75.63,12.441
-0.68,73.033,12.177
-0.65,70.436,11.948
-0.62,67.839,11.65
-0.59,64.786,11.318
-0.55,61.732,11.078
-0.52,58.434,10.883
-0.49,55.415,10.436
-0.46,51.801,9.783
-0.42,48.116,9.096
-0.39,43.799,8.443
-0.36,41.377,7.503
-0.33,42.641,5.327
-0.29,47.519,0.802
-0.26,38.289,-2.337
-0.23,26.111,-0.493
-0.2,27.339,0.034
-0.16,23.479,-0.985
-0.13,16.074,-0.951
-0.1,9.335,-0.871
-0.07,3.229,-0.813
-0.03,-1.895,-0.619
0.0,-3.615,-0.115
0.03,-3.65,-0.321
0.07,-6.879,-0.607
0.1,-8.774,-0.79
0.13,-11.336,-1.363
0.16,-16.389,-1.489
0.2,-21.478,-1.913
0.23,-26.953,-2.555
0.26,-32.358,-2.875
0.29,-36.99,-3.093
0.33,-39.833,-3.574
0.36,-41.307,-4.296
0.39,-42.711,-5.178
0.42,-44.957,-5.877
0.46,-47.624,-6.037
0.49,-50.397,-5.9
0.52,-53.239,-5.923
0.55,-56.538,-6.163
0.59,-60.188,-6.495
0.62,-64.119,-6.999
0.65,-67.909,-7.629
0.68,-71.559,-8.385
0.72,-74.893,-9.21
0.75,-78.122,-9.966
0.78,-81.351,-10.608
0.81,-84.579,-11.181
0.85,-87.668,-11.65
0.88,-90.651,-12.12
0.91,-93.88,-12.716
0.94,-97.495,-13.151
0.98,-101.109,-13.575
1.01,-104.478,-14.205
1.04,-107.883,-14.869
1.07,-111.322,-15.545
1.11,-114.761,-16.324
1.14,-118.236,-16.954
1.17,-121.5,-17.39
1.2,-124.553,-17.962
1.24,-127.711,-18.558
1.27,-131.116,-19.131
1.3,-134.871,-19.738
1.33,-138.451,-20.368
1.37,-141.609,-20.746
1.4,-144.487,-21.365
1.43,-147.4,-21.811
1.46,-150.453,-22.201
1.5,-153.366,-22.59
1.53,-156.033,-22.865
1.56,-158.63,-23.037
1.59,-161.508,-23.45
1.63,-164.632,-23.942
1.66,-167.685,-24.24
1.69,-170.422,-24.618
1.72,-173.335,-25.282
1.76,-176.038,-25.603
1.79,-178.284,-25.752
1.82,-180.565,-26.268
1.86,-183.513,-26.817
1.89,-186.145,-26.875
1.92,-188.216,-27.012
1.95,-190.251,-27.47
1.99,-192.848,-27.929
2.02,-195.41,-28.032
2.05,-197.481,-28.089
2.08,-199.341,-28.547
2.12,-201.868,-29.143
2.15,-204.5,-29.303
2.18,-206.43,-29.441
2.21,-208.22,-29.853
2.25,-210.396,-30.254
2.28,-212.361,-30.449
2.31,-214.046,-30.667
2.34,-215.73,-31.067
2.38,-218.047,-31.423
2.41,-220.433,-31.778
2.44,-222.609,-32.076
2.47,-224.294,-32.385
2.51,-225.908,-32.82
2.54,-227.979,-33.324
2.57,-230.295,-33.645
2.6,-232.19,-33.897
2.64,-233.699,-34.183
2.67,-235.419,-34.607
2.7,-237.244,-34.985
2.73,-239.034,-35.191
2.77,-240.578,-35.409
2.8,-242.192,-35.741
2.83,-243.877,-36.039
2.86,-245.386,-36.222
2.9,-246.86,-36.474
2.93,-248.369,-36.784
2.96,-249.667,-37.059
2.99,-251.212,-37.345
3.03,-252.686,-37.597
3.06,-254.089,-37.861
3.09,-255.739,-38.158
3.12,-257.213,-38.456
3.16,-258.546,-38.834
3.19,-260.126,-39.293
3.22,-261.775,-39.636
3.25,-263.039,-39.819
3.29,-264.091,-40.026
3.32,-265.46,-40.381
3.35,-267.039,-40.644
3.38,-268.338,-40.931
3.42,-269.496,-41.32
3.45,-270.83,-41.595
3.48,-271.988,-41.813
3.51,-273.146,-42.134
3.55,-274.304,-42.397
3.58,-275.462,-42.638
3.61,-276.691,-42.844
3.65,-277.919,-43.119
3.68,-278.937,-43.371
3.71,-279.674,-43.6
3.74,-280.376,-43.726
3.78,-281.078,-43.772
3.81,-281.85,-43.772
3.84,-282.446,-43.772
3.87,-283.043,-43.852
3.91,-283.604,-43.932
3.94,-283.99,-43.886
3.97,-284.692,-44.161
4.0,-285.359,-44.241
4.04,-285.78,-44.253
4.07,-285.71,-44.264
4.1,-285.57,-44.047
4.13,-285.815,-44.012
4.17,-286.131,-43.932
4.2,-286.096,-43.817
4.23,-285.71,-43.737
4.26,-285.57,-43.714
4.3,-285.359,-43.6
4.33,-284.903,-43.428
4.36,-284.622,-43.336
4.39,-284.517,-43.268
4.43,-284.517,-43.165
4.46,-284.061,-43.107
4.49,-283.499,-43.371
4.52,-283.078,-43.268
4.56,-282.271,-42.958
4.59,-281.288,-42.683
4.62,-280.621,-42.466
4.65,-279.744,-42.282
4.69,-279.112,-42.214
4.72,-278.586,-42.156
4.75,-278.235,-42.237
4.78,-277.638,-42.225
4.82,-276.515,-42.134
4.85,-275.322,-42.134
4.88,-274.409,-41.847
4.91,-273.181,-41.572
4.95,-271.848,-41.286
4.98,-270.374,-40.942
5.01,-269.005,-40.484
5.04,-267.32,-40.117
5.08,-265.706,-39.774
5.11,-264.197,-39.407
5.14,-262.758,-39.063
5.17,-261.108,-38.788
5.21,-259.319,-38.651
5.24,-257.915,-38.502
5.27,-256.967,-38.468
5.3,-255.528,-38.319
5.34,-253.703,-38.124
5.37,-251.949,-37.929
5.4,-250.159,-37.712
5.43,-248.439,-37.609
5.47,-246.895,-37.379
5.5,-245.351,-37.047
5.53,-243.631,-36.784
5.57,-241.841,-36.681
5.6,-239.911,-36.532
5.63,-238.367,-36.337
5.66,-236.647,-36.039
5.7,-234.576,-35.764
5.73,-232.471,-35.535
5.76,-230.4,-35.352
5.79,-228.645,-35.1
5.83,-226.785,-34.756
5.86,-224.434,-34.412
5.89,-222.223,-34.16
5.92,-220.398,-33.874
5.96,-218.468,-33.588
5.99,-216.432,-33.37
6.02,-214.502,-33.221
6.05,-212.817,-33.049
6.09,-210.922,-32.866
6.12,-208.641,-32.66
6.15,-206.43,-32.454
6.18,-204.324,-32.224
6.22,-202.254,-31.915
6.25,-200.043,-31.549
6.28,-197.726,-31.216
6.31,-195.41,-30.941
6.35,-193.059,-30.609
6.38,-190.742,-30.208
6.41,-188.075,-29.83
6.44,-185.408,-29.349
6.48,-182.811,-28.811
6.51,-180.109,-28.341
6.54,-177.371,-27.848
6.57,-174.669,-27.356
6.61,-171.756,-26.817
6.64,-168.597,-26.325
6.67,-165.649,-25.89
6.7,-162.807,-25.42
6.74,-159.999,-24.847
6.77,-157.402,-24.481
6.8,-154.77,-24.114
6.83,-151.927,-23.598
6.87,-148.804,-23.301
6.9,-145.786,-22.968
6.93,-142.978,-22.567
6.96,-140.065,-22.063
7.0,-136.906,-21.559
7.03,-133.643,-21.032
7.06,-130.695,-20.54
7.09,-127.747,-20.082
7.13,-124.623,-19.612
7.16,-121.359,-19.131
7.19,-118.236,-18.638
7.22,-114.972,-18.054
7.26,-111.638,-17.55
7.29,-108.585,-17.08
7.32,-105.496,-16.576
7.36,-102.057,-16.152
7.39,-98.863,-15.717
7.42,-95.705,-15.133
7.45,-92.371,-14.56
7.49,-88.966,-14.079
7.52,-85.597,-13.644
7.55,-82.509,-13.197
7.58,-79.42,-12.784
7.62,-76.297,-12.349
7.65,-73.103,-11.879
7.68,-69.875,-11.456
7.71,-66.821,-11.032
7.75,-63.452,-10.516
7.78,-59.943,-10.012
7.81,-56.433,-9.531
7.84,-53.134,-9.004
7.88,-49.414,-8.351
7.91,-46.045,-7.744
7.94,-42.22,-7.08
7.97,-39.026,-6.427
8.01,-38.675,-5.098
8.04,-43.799,-1.558
8.07,-38.815,2.142
8.1,-25.479,1.031
8.14,-24.883,-0.057
8.17,-22.707,0.905
8.2,-15.758,1.077
8.23,-8.774,0.962
8.27,-2.667,0.905
8.3,2.386,0.676
8.33,3.79,0.195
8.36,4.282,0.493
8.4,8.037,0.779
8.43,11.687,0.561
8.46,14.494,0.619
8.49,17.899,1.146
8.53,22.426,2.222
8.56,28.146,3.059
8.59,33.516,3.116
8.62,36.92,3.127
8.66,38.184,3.746
8.69,39.307,4.708
8.72,41.728,5.487
8.75,45.132,5.728
8.79,48.151,5.522
8.82,50.537,5.453
8.85,53.31,5.819
8.88,56.96,6.369
8.92,61.066,6.839
8.95,65.031,7.4
8.98,68.541,8.133
9.01,72.05,9.061
9.05,75.49,9.955
9.08,78.859,10.596
9.11,81.912,11.169
9.15,85.036,11.765
9.18,88.264,12.257
9.21,91.528,12.624
9.24,94.897,13.025
9.28,98.161,13.483
9.31,101.601,14.045
9.34,105.391,14.72
9.37,109.041,15.362
9.41,112.48,15.946
9.44,115.814,16.668
9.47,118.938,17.252
9.5,121.886,17.722
9.54,125.009,18.398
9.57,128.448,18.925
9.6,131.888,19.257
9.63,134.976,19.623
9.67,138.135,20.185
9.7,141.293,20.7
9.73,144.101,20.987
9.76,146.979,21.548
9.8,149.821,21.846
9.83,152.559,22.166
9.86,155.191,22.487
9.89,157.964,22.797
9.93,161.017,23.243
9.96,164.0,23.587
9.99,166.667,23.908
10.02,169.229,24.4
10.06,171.967,24.927
10.09,174.739,25.259
10.12,177.336,25.649
10.15,179.933,26.13
10.19,182.565,26.497
10.22,185.233,26.978
10.25,187.549,27.161
10.28,189.444,27.299
10.32,191.269,27.574
10.35,193.901,28.089
10.38,196.849,28.444
10.41,199.446,28.547
10.45,201.236,28.822
10.48,203.131,29.361
10.51,205.623,29.83
10.54,207.974,29.979
10.58,209.764,30.162
10.61,211.519,30.54
10.64,213.73,31.01
10.67,216.116,31.297
10.71,218.187,31.594
10.74,220.293,32.076
10.77,222.539,32.499
10.8,224.644,32.855
10.84,226.82,33.393
10.87,228.856,33.805
10.9,230.646,34.08
10.94,232.401,34.47
10.97,234.366,34.745
11.0,236.05,34.894
11.03,237.419,34.962
11.07,238.647,35.065
11.1,240.016,35.203
11.13,241.701,35.421
11.16,243.385,35.65
11.2,244.965,35.902
11.23,246.614,36.291
11.26,248.369,36.784
11.29,250.299,37.276
11.33,252.019,37.643
11.36,253.563,38.01
11.39,255.142,38.41
11.42,256.792,38.8
11.46,258.511,39.121
11.49,260.126,39.464
11.52,261.635,39.808
11.55,262.968,39.98
11.59,263.881,40.037
11.62,264.899,40.243
11.65,266.232,40.45
11.68,267.566,40.564
11.72,268.689,40.782
11.75,269.882,41.034
11.78,270.97,41.251
11.81,272.128,41.549
11.85,273.251,41.801
11.88,274.339,42.019
11.91,275.427,42.305
11.94,276.515,42.546
11.98,277.638,42.821
12.01,278.796,43.107
12.04,279.919,43.21
12.07,280.692,43.268
12.11,281.288,43.394
12.14,281.92,43.474
12.17,282.271,43.497
12.2,282.832,43.462
12.24,283.429,43.52
12.27,284.026,43.611
12.3,284.412,43.703
12.33,284.833,43.84
12.37,285.359,43.932
12.4,285.605,43.886
12.43,285.64,43.829
12.46,285.78,43.829
12.5,286.342,44.001
12.53,286.623,43.966
12.56,285.815,43.703
12.59,285.254,43.68
12.63,285.289,43.577
12.66,284.763,43.245
12.69,283.885,42.924
12.72,283.534,42.832
12.76,283.569,42.741
12.79,283.429,42.752
12.82,283.183,42.855
12.86,282.903,43.038
12.89,282.622,43.13
12.92,282.516,43.245
12.95,281.744,43.016
12.99,280.446,42.683
13.02,279.639,42.626
13.05,279.393,42.443
13.08,278.34,42.019
13.12,276.936,41.801
13.15,275.883,41.698
13.18,275.252,41.572
13.21,274.023,41.171
13.25,272.374,40.862
13.28,271.391,40.816
13.31,270.76,40.644
13.34,269.25,40.404
13.38,267.706,40.346
13.41,266.443,40.163
13.44,265.215,39.923
13.47,263.741,39.636
13.51,261.88,39.293
13.54,260.301,39.086
13.57,259.003,38.846
13.6,257.564,38.605
13.64,255.984,38.399
13.67,254.124,38.216
13.7,252.545,37.906
13.73,251.001,37.792
13.77,249.352,37.586
13.8,247.527,37.276
13.83,245.386,36.979
13.86,243.491,36.704
13.9,241.595,36.463
13.93,239.63,36.108
13.96,237.665,35.776
13.99,235.77,35.592
14.03,234.015,35.432
14.06,232.506,35.283
14.09,230.997,35.191
14.12,229.312,35.134
14.16,227.417,35.054
14.19,225.487,34.882
14.22,223.521,34.63
14.25,221.416,34.344
14.29,219.205,34.034
14.32,217.029,33.668
14.35,214.853,33.313
14.38,212.747,32.981
14.42,210.536,32.625
14.45,208.325,32.305
14.48,206.009,32.053
14.51,203.833,31.824
14.55,201.833,31.56
14.58,199.867,31.319
14.61,197.691,31.102
14.65,195.375,30.907
14.68,193.059,30.667
14.71,190.883,30.346
14.74,188.496,29.945
14.78,185.759,29.498
14.81,182.986,29.12
14.84,180.495,28.822
14.87,178.214,28.387
14.91,175.616,27.814
14.94,172.458,27.287
14.97,169.615,26.921
15.0,167.018,26.428
15.04,164.14,25.844
15.07,161.157,25.363
15.1,158.244,24.973
15.13,155.367,24.435
15.17,152.278,23.931
15.2,149.19,23.461
15.23,145.996,22.968
15.26,142.873,22.35
15.3,139.679,21.892
15.33,136.766,21.365
15.36,134.029,20.792
15.39,130.87,20.379
15.43,127.711,19.967
15.46,124.623,19.646
15.49,121.5,19.199
15.52,118.341,18.65
15.56,114.972,18.123
15.59,111.603,17.63
15.62,108.409,17.16
15.65,105.215,16.633
15.69,101.917,16.061
15.72,98.582,15.557
15.75,95.284,15.087
15.78,92.23,14.629
15.82,89.072,14.136
15.85,85.808,13.666
15.88,82.614,13.369
15.91,79.736,13.128
15.95,76.859,12.807
15.98,73.84,12.395
16.01,70.471,11.948
16.04,67.348,11.627
16.08,63.943,11.135
16.11,60.399,10.39
16.14,56.538,9.806
16.17,53.169,9.313
16.21,49.59,8.672
16.24,46.291,7.939
16.27,42.184,7.286
16.3,39.833,6.61
16.34,41.026,4.823
16.37,46.22,0.813
16.4,38.499,-2.131
16.44,27.62,-0.458
16.47,28.392,-0.034
16.5,24.251,-0.985
16.53,16.881,-0.939
16.57,10.178,-0.882
16.6,3.615,-0.916
16.63,-2.246,-0.664
16.66,-4.001,-0.115
16.7,-4.247,-0.355
16.73,-7.791,-0.63
16.76,-9.721,-0.699
16.79,-11.932,-1.352
16.83,-17.091,-1.776
16.86,-22.531,-2.234
16.89,-28.252,-2.6
16.92,-33.305,-2.795
16.96,-37.271,-3.093
16.99,-39.763,-3.757
17.02,-41.202,-4.639
17.05,-42.676,-5.384
17.09,-44.852,-5.785
17.12,-47.589,-5.785
17.15,-50.327,-5.556
17.18,-52.959,-5.499
17.22,-56.047,-5.797
17.25,-59.767,-6.346
17.28,-63.908,-6.954
17.31,-68.015,-7.549
17.35,-71.559,-8.294
17.38,-74.858,-9.222
17.41,-78.297,-10.127
17.44,-81.667,-10.791
17.48,-85.106,-11.375
17.51,-88.335,-11.879
17.54,-91.388,-12.326
17.57,-94.547,-12.784
17.61,-97.775,-13.311
17.64,-101.109,-13.838
17.67,-104.619,-14.423
17.7,-108.199,-14.972
17.74,-111.533,-15.568
17.77,-115.042,-16.255
17.8,-118.517,-16.897
17.83,-121.64,-17.39
17.87,-124.658,-17.985
17.9,-127.887,-18.569
17.93,-131.046,-19.016
17.96,-134.485,-19.52
18.0,-137.959,-20.15
18.03,-141.258,-20.586
18.06,-144.241,-20.952
18.09,-146.944,-21.433
18.13,-150.102,-22.098
18.16,-153.436,-22.636
18.19,-156.454,-22.877
18.23,-159.192,-23.255
18.26,-162.035,-23.862
18.29,-164.807,-24.194
18.32,-167.404,-24.4
18.36,-170.001,-24.71
18.39,-172.844,-25.179
18.42,-175.266,-25.282
18.45,-177.406,-25.431
18.49,-179.793,-25.878
18.52,-182.776,-26.348
18.55,-185.654,-26.737
18.58,-188.251,-26.989
18.62,-190.427,-27.39
18.65,-192.673,-27.826
18.68,-195.059,-28.192
18.71,-197.481,-28.559
18.75,-199.937,-28.868
18.78,-202.219,-29.131
18.81,-204.184,-29.452
18.84,-206.325,-29.807
18.88,-208.395,-30.002
18.91,-210.15,-30.185
18.94,-212.01,-30.449
18.97,-214.151,-30.758
19.01,-216.292,-31.125
19.04,-218.292,-31.445
19.07,-220.328,-31.801
19.1,-222.363,-32.19
19.14,-224.188,-32.488
19.17,-225.943,-32.843
19.2,-227.873,-33.233
19.23,-229.909,-33.553
19.27,-231.418,-33.908
19.3,-233.208,-34.286
19.33,-235.278,-34.676
19.36,-237.033,-35.02
19.4,-238.788,-35.295
19.43,-240.402,-35.569
19.46,-242.017,-35.97
19.49,-243.771,-36.36
19.53,-245.421,-36.566
19.56,-246.825,-36.864
19.59,-248.544,-37.242
19.62,-250.194,-37.414
19.66,-251.352,-37.597
19.69,-252.721,-37.918
19.72,-254.265,-38.284
19.75,-255.739,-38.617
19.79,-257.423,-38.937
19.82,-259.108,-39.27
19.85,-260.687,-39.671
19.88,-262.126,-39.968
19.92,-263.109,-40.186
19.95,-264.372,-40.45
19.98,-265.811,-40.69
20.01,-267.285,-40.873
20.05,-268.478,-41.16
20.08,-269.601,-41.492
20.11,-270.76,-41.79
20.15,-271.883,-41.996
20.18,-273.041,-42.145
20.21,-274.199,-42.34
20.24,-275.252,-42.534
20.28,-276.129,-42.786
20.31,-277.182,-43.119
20.34,-278.34,-43.291
20.37,-279.253,-43.405
20.41,-279.884,-43.554
20.44,-280.586,-43.68
20.47,-281.148,-43.795
20.5,-281.674,-43.863
20.54,-282.306,-43.921
20.57,-282.973,-44.012
20.6,-283.429,-43.898
20.63,-283.99,-44.047
20.67,-284.482,-44.15
20.7,-284.938,-44.31
20.73,-285.114,-44.322
20.76,-285.149,-44.161
20.8,-285.5,-44.425
20.83,-285.675,-44.104
20.86,-285.429,-44.047
20.89,-285.675,-44.333
20.93,-285.886,-44.173
20.96,-285.219,-43.978
20.99,-284.938,-43.978
21.02,-285.043,-43.932
21.06,-284.657,-43.749
21.09,-284.201,-43.772
21.12,-284.026,-43.68
21.15,-284.096,-43.669
21.19,-283.745,-43.623
21.22,-282.832,-43.439
21.25,-281.955,-43.13
21.28,-281.358,-42.993
21.32,-280.586,-42.878
21.35,-279.709,-42.695
21.38,-278.586,-42.523
21.41,-278.13,-42.534
21.45,-277.533,-42.363
21.48,-276.375,-42.111
21.51,-275.076,-41.985
21.54,-273.848,-41.71
21.58,-272.655,-41.458
21.61,-271.567,-41.137
21.64,-270.233,-40.816
21.67,-268.689,-40.541
21.71,-267.145,-40.346
21.74,-265.565,-40.094
21.77,-264.162,-39.842
21.8,-262.828,-39.579
21.84,-261.354,-39.338
21.87,-259.95,-39.155
21.9,-258.546,-38.995
21.94,-257.143,-38.857
21.97,-255.634,-38.697
22.0,-253.809,-38.502
22.03,-252.264,-38.342
22.07,-250.79,-38.124
22.1,-249.141,-37.838
22.13,-247.316,-37.597
22.16,-245.702,-37.402
22.2,-244.087,-37.208
22.23,-242.262,-37.001
22.26,-240.262,-36.726
22.29,-238.402,-36.486
22.33,-236.472,-36.234
22.36,-234.612,-35.97
22.39,-232.576,-35.684
22.42,-230.576,-35.478
22.46,-228.996,-35.295
22.49,-227.312,-35.065
22.52,-225.311,-34.733
22.55,-223.1,-34.573
22.59,-221.275,-34.493
22.62,-219.591,-34.252
22.65,-217.59,-33.943
22.68,-215.45,-33.714
22.72,-213.309,-33.485
22.75,-211.168,-33.187
22.78,-208.817,-32.832
22.81,-206.43,-32.431
22.85,-204.008,-32.03
22.88,-201.657,-31.594
22.91,-199.236,-31.228
22.94,-196.849,-30.919
22.98,-194.778,-30.632
23.01,-192.427,-30.266
23.04,-190.041,-29.922
23.07,-187.724,-29.613
23.11,-185.162,-29.2
23.14,-182.46,-28.788
23.17,-179.758,-28.49
23.2,-177.301,-28.112
23.24,-174.739,-27.562
23.27,-171.791,-27.092
23.3,-169.019,-26.703
23.33,-166.281,-26.245
23.37,-163.509,-25.798
23.4,-160.596,-25.294
23.43,-158.034,-24.985
23.46,-155.086,-24.584
23.5,-152.032,-23.976
23.53,-149.014,-23.633
23.56,-146.101,-23.175
23.59,-143.224,-22.613
23.63,-140.065,-21.983
23.66,-136.661,-21.422
23.69,-133.397,-20.987
23.73,-130.484,-20.528
23.76,-127.641,-20.013
23.79,-124.483,-19.497
23.82,-121.043,-18.993
23.86,-117.639,-18.569
23.89,-114.481,-18.123
23.92,-111.392,-17.55
23.95,-108.163,-16.954
23.99,-104.759,-16.473
24.02,-101.495,-16.038
24.05,-98.512,-15.602
24.08,-95.494,-15.121
24.12,-92.23,-14.64
24.15,-89.037,-14.216
24.18,-85.843,-13.884
24.21,-82.755,-13.483
24.25,-79.596,-13.036
24.28,-76.508,-12.624
24.31,-73.314,-12.143
24.34,-69.839,-11.559
24.38,-66.4,-11.135
24.41,-63.171,-10.677
24.44,-60.013,-10.092
24.47,-56.609,-9.485
24.51,-53.064,-8.89
24.54,-50.081,-8.672
24.57,-47.87,-8.649
24.6,-45.168,-8.099
24.64,-42.465,-7.618
24.67,-43.202,-6.358
24.7,-48.396,-2.852
24.73,-47.098,1.718
24.77,-32.077,1.73
24.8,-27.62,0.046
24.83,-25.76,0.916
24.86,-17.056,1.329
24.9,-8.458,1.146
24.93,-0.14,1.191
24.96,5.685,0.561
24.99,5.019,-0.046
25.03,5.861,0.756
25.06,11.055,0.722
25.09,12.74,0.63
25.12,14.74,1.558
25.16,20.004,2.245
25.19,25.514,2.612
25.22,30.603,2.772
25.25,33.972,2.875
25.29,36.043,3.551
25.32,38.675,5.086
25.35,42.886,6.53
25.38,46.957,6.885
25.42,49.59,6.954
25.45,51.73,7.561
25.48,55.029,8.225
25.52,58.995,8.408
25.55,62.575,8.374
25.58,65.277,8.5
25.61,67.839,8.786
25.65,70.682,9.153
25.68,73.7,9.359
25.71,76.929,9.6
25.74,79.982,9.955
25.78,82.965,10.23
25.81,85.983,10.711
25.84,89.317,11.398
25.87,92.827,11.994
25.91,96.161,12.532
25.94,99.355,13.231
25.97,102.864,13.976
26.0,106.514,14.675
26.04,110.059,15.35
26.07,113.147,15.889
26.1,116.341,16.576
26.13,119.78,17.309
26.17,123.009,17.687
26.2,125.922,18.111
26.23,129.15,18.821
26.26,132.695,19.371
26.3,136.205,19.784
26.33,139.503,20.391
26.36,142.627,21.044
26.39,145.821,21.548
26.43,148.944,22.086
26.46,151.927,22.579
26.49,154.875,22.991
26.52,157.858,23.461
26.56,160.701,23.747
26.59,163.298,23.988
26.62,166.035,24.446
26.65,168.948,24.824
26.69,171.756,24.973
26.72,174.248,25.271
26.75,176.775,25.695
26.78,179.582,26.21
26.82,182.635,26.714
26.85,185.583,27.058
26.88,188.005,27.425
26.91,190.251,27.974
26.95,192.708,28.421
26.98,195.164,28.605
27.01,197.34,28.765
27.04,199.516,29.051
27.08,201.482,29.223
27.11,203.552,29.383
27.14,205.939,29.75
27.17,208.395,30.151
27.21,210.501,30.323
27.24,211.659,30.426
27.27,210.571,29.498
27.3,207.904,27.974
27.34,206.43,27.173
27.37,206.781,26.302
27.4,206.921,24.813
27.44,205.869,23.965
27.47,205.693,24.183
27.5,207.729,25.168
27.53,210.887,26.68
27.57,214.888,28.685
27.6,220.012,30.896
27.63,225.522,32.706
27.66,229.593,34.229
27.7,232.295,36.028
27.73,234.822,37.517
27.76,237.56,38.319
27.79,239.841,38.754
27.83,241.946,38.96
27.86,243.771,38.949
27.89,245.421,38.949
27.92,247.421,39.189
27.96,249.702,39.499
27.99,251.878,39.842
28.02,253.984,40.232
28.05,256.02,40.633
28.09,257.88,41.022
28.12,259.669,41.274
28.15,261.108,41.355
28.18,262.021,41.366
28.22,262.968,41.309
28.25,263.846,41.091
28.28,264.934,40.908
28.31,266.092,40.885
28.35,267.32,41.022
28.38,268.549,41.24
28.41,269.917,41.538
28.44,271.216,41.87
28.48,272.444,42.225
28.51,273.672,42.557
28.54,274.936,42.798
28.57,276.059,42.924
28.61,277.182,43.096
28.64,278.235,43.336
28.67,279.147,43.531
28.7,279.99,43.657
28.74,280.586,43.726
28.77,281.253,43.703
28.8,281.779,43.623
28.83,282.06,43.474
28.87,282.271,43.359
28.9,282.622,43.428
28.93,283.078,43.382
28.96,283.183,43.268
29.0,283.078,43.245
29.03,283.148,43.165
29.06,283.148,43.004
29.09,282.832,42.786
29.13,282.727,42.672
29.16,282.903,42.729
29.19,283.113,42.786
29.23,283.253,42.912
29.26,283.464,43.13
29.29,283.675,43.325
29.32,283.815,43.497
29.36,283.885,43.623
29.39,284.096,43.795
29.42,284.201,43.966
29.45,284.166,44.047
29.49,283.885,44.081
29.52,283.534,44.001
29.55,282.797,43.795
29.58,281.92,43.543
29.62,281.323,43.245
29.65,280.656,42.947
29.68,279.955,42.844
29.71,279.393,42.718
29.75,278.551,42.592
29.78,277.638,42.569
29.81,276.656,42.397
29.84,275.743,42.099
29.88,274.62,41.801
29.91,273.322,41.618
29.94,272.198,41.458
29.97,271.005,41.217
30.01,269.882,40.976
30.04,268.724,40.69
30.07,267.215,40.346
30.1,265.32,40.083
30.14,263.951,39.877
30.17,262.793,39.636
30.2,261.389,39.327
30.23,259.599,39.041
30.27,257.985,38.892
30.3,256.757,38.72
30.33,255.177,38.456
30.36,253.493,38.273
30.4,252.019,38.227
30.43,250.65,38.136
30.46,249.246,37.952
30.49,247.421,37.803
30.53,245.807,37.7
30.56,244.228,37.46
30.59,242.122,37.105
30.62,240.157,36.818
30.66,238.367,36.543
30.69,236.401,36.165
30.72,233.98,35.764
30.75,231.734,35.432
30.79,229.803,35.111
30.82,227.733,34.699
30.85,225.206,34.264
30.88,222.855,33.954
30.92,221.135,33.828
30.95,219.275,33.496
30.98,217.099,33.21
31.02,214.853,33.107
31.05,213.274,33.038
31.08,211.624,32.877
31.11,209.378,32.648
31.15,207.062,32.476
31.18,205.132,32.362
31.21,203.377,32.156
31.24,201.201,31.869
31.28,198.814,31.675
31.31,196.638,31.434
31.34,194.533,31.022
31.37,191.971,30.529
31.41,189.233,30.094
31.44,186.601,29.647
31.47,184.004,29.2
31.5,181.197,28.731
31.54,178.108,28.055
31.57,175.546,27.78
31.6,173.019,27.276
31.63,170.387,26.703
31.67,167.088,26.153
31.7,163.754,25.512
31.73,160.631,25.122
31.76,157.999,24.664
31.8,155.086,24.057
31.83,151.752,23.518
31.86,148.383,23.106
31.89,145.329,22.636
31.93,142.451,22.063
31.96,139.433,21.514
31.99,136.415,21.067
32.02,133.327,20.666
32.06,130.273,20.345
32.09,127.466,20.036
32.12,124.588,19.646
32.15,121.394,19.177
32.19,118.13,18.73
32.22,114.796,18.283
32.25,111.638,17.848
32.28,108.795,17.412
32.32,105.707,16.908
32.35,102.583,16.45
32.38,99.495,16.061
32.41,96.266,15.637
32.45,93.143,15.133
32.48,89.809,14.64
32.51,86.58,14.205
32.54,83.456,13.85
32.58,80.649,13.426
32.61,77.525,12.968
32.64,74.261,12.498
32.67,70.787,12.086
32.71,67.628,11.662
32.74,64.365,11.192
32.77,61.206,10.619
32.81,57.556,10.058
32.84,54.187,9.451
32.87,50.572,8.867
32.9,47.203,8.202
32.94,43.202,7.595
32.97,40.57,6.885
33.0,41.483,5.189
33.03,46.712,1.237
33.07,40.114,-2.131
33.1,27.69,-0.71
33.13,28.111,0.103
33.16,25.163,-0.905
33.2,18.004,-0.962
33.23,10.844,-0.939
33.26,4.106,-0.871
33.29,-1.755,-0.745
33.33,-4.247,-0.16
33.36,-4.352,-0.309
33.39,-7.756,-0.642
33.42,-9.721,-0.951
33.46,-12.389,-1.787
33.49,-18.179,-2.154
33.52,-23.83,-2.303
33.55,-29.129,-2.486
33.59,-33.411,-2.715
33.62,-36.324,-3.185
33.65,-37.833,-4.044
33.68,-39.587,-4.914
33.72,-41.869,-5.384
33.75,-44.36,-5.43
33.78,-46.887,-5.338
33.81,-49.66,-5.373
33.85,-52.924,-5.636
33.88,-56.889,-6.037
33.91,-60.995,-6.541
33.94,-64.996,-7.228
33.98,-68.611,-8.053
34.01,-71.98,-8.947
34.04,-75.244,-9.84
34.07,-78.508,-10.562
34.11,-81.737,-11.02
34.14,-84.755,-11.444
34.17,-87.738,-11.902
34.2,-90.967,-12.326
34.24,-94.336,-12.716
34.27,-97.775,-13.197
34.3,-101.285,-13.724
34.33,-104.794,-14.365
34.37,-108.269,-15.053
34.4,-111.603,-15.728
34.43,-114.937,-16.404
34.46,-118.236,-16.977
34.5,-121.289,-17.355
34.53,-124.342,-17.871
34.56,-127.466,-18.386
34.59,-130.659,-18.833
34.63,-134.029,-19.348
34.66,-137.573,-19.841
34.69,-140.802,-20.345
34.73,-143.539,-20.815
34.76,-146.487,-21.456
34.79,-149.857,-22.063
34.82,-153.015,-22.43
34.86,-155.753,-22.774
34.89,-158.35,-23.232
34.92,-161.298,-23.667
34.95,-164.175,-24.068
34.99,-166.983,-24.366
35.02,-169.65,-24.652
35.05,-172.282,-25.053
35.08,-174.95,-25.397
35.12,-177.547,-25.741
35.15,-180.284,-26.268
35.18,-183.127,-26.795
35.21,-186.075,-27.127
35.25,-188.461,-27.425
35.28,-190.497,-27.837
35.31,-192.708,-28.169
35.34,-195.024,-28.41
35.38,-197.375,-28.685
35.41,-199.867,-28.983
35.44,-201.973,-29.235
35.47,-203.868,-29.578
35.51,-206.044,-29.853
35.54,-208.29,-30.014
35.57,-210.08,-30.197
35.6,-211.765,-30.54
35.64,-213.94,-30.919
35.67,-216.362,-31.216
35.7,-218.362,-31.434
35.73,-219.977,-31.812
35.77,-221.696,-32.259
35.8,-223.978,-32.74
35.83,-226.118,-32.969
35.86,-227.943,-33.118
35.9,-229.628,-33.622
35.93,-231.839,-34.092
35.96,-233.769,-34.412
35.99,-235.559,-34.802
36.03,-237.173,-35.295
36.06,-238.893,-35.592
36.09,-240.718,-35.764
36.12,-242.508,-36.154
36.16,-244.228,-36.417
36.19,-245.807,-36.566
36.22,-247.176,-36.887
36.25,-248.685,-37.288
36.29,-250.369,-37.551
36.32,-251.808,-37.735
36.35,-253.142,-37.987
36.38,-254.616,-38.273
36.42,-256.09,-38.582
36.45,-257.634,-38.937
36.48,-259.248,-39.293
36.52,-260.898,-39.59
36.55,-262.091,-39.854
36.58,-263.109,-40.094
36.61,-264.337,-40.312
36.65,-265.776,-40.484
36.68,-267.075,-40.77
36.71,-268.338,-41.091
36.74,-269.672,-41.286
36.78,-270.724,-41.515
36.81,-271.602,-41.847
36.84,-272.76,-42.122
36.87,-273.953,-42.305
36.91,-275.041,-42.534
36.94,-276.094,-42.786
36.97,-277.182,-43.13
37.0,-278.445,-43.359
37.04,-279.393,-43.405
37.07,-279.919,-43.611
37.1,-280.586,-43.806
37.13,-281.358,-43.737
37.17,-281.569,-43.646
37.2,-282.06,-43.714
37.23,-282.727,-43.68
37.26,-282.973,-43.68
37.3,-283.218,-43.852
37.33,-283.78,-43.909
37.36,-284.341,-43.921
37.39,-284.587,-43.921
37.43,-284.727,-43.875
37.46,-284.938,-43.886
37.49,-285.114,-44.047
37.52,-285.324,-44.069
37.56,-285.219,-44.138
37.59,-285.114,-44.322
37.62,-285.394,-44.161
37.65,-285.219,-43.875
37.69,-284.657,-43.817
37.72,-284.201,-43.875
37.75,-284.096,-43.898
37.78,-283.955,-43.863
37.82,-283.675,-43.817
37.85,-283.359,-43.68
37.88,-282.692,-43.508
37.91,-281.744,-43.382
37.95,-280.972,-43.21
37.98,-280.341,-43.05
38.01,-279.849,-42.878
38.04,-279.182,-42.649
38.08,-278.235,-42.477
38.11,-277.252,-42.317
38.14,-276.164,-42.134
38.17,-275.041,-41.927
38.21,-273.918,-41.641
38.24,-272.62,-41.355
38.27,-271.286,-41.16
38.31,-270.198,-40.908
38.34,-269.005,-40.644
38.37,-267.601,-40.484
38.4,-266.162,-40.278
38.44,-264.864,-40.037
38.47,-263.425,-39.785
38.5,-261.986,-39.648
38.53,-260.617,-39.43
38.57,-258.897,-39.293
38.6,-257.458,-39.189
38.63,-256.3,-38.949
38.66,-254.616,-38.605
38.7,-252.931,-38.365
38.73,-251.317,-38.262
38.76,-249.702,-37.975
38.79,-247.702,-37.666
38.83,-245.842,-37.505
38.86,-244.087,-37.311
38.89,-242.122,-37.024
38.92,-240.157,-36.612
38.96,-238.191,-36.303
38.99,-236.296,-36.085
39.02,-234.506,-35.833
39.05,-232.822,-35.592
39.09,-231.032,-35.398
39.12,-229.242,-35.26
39.15,-227.347,-35.111
39.18,-225.381,-34.848
39.22,-223.276,-34.584
39.25,-221.346,-34.286
39.28,-219.345,-33.874
39.31,-217.029,-33.496
39.35,-214.818,-33.164
39.38,-212.572,-32.912
39.41,-210.291,-32.614
39.44,-207.939,-32.236
39.48,-205.588,-31.927
39.51,-203.482,-31.56
39.54,-201.166,-31.193
39.57,-198.955,-30.907
39.61,-196.674,-30.678
39.64,-194.568,-30.437
39.67,-192.322,-30.208
39.7,-189.935,-29.945
39.74,-187.444,-29.693
39.77,-184.987,-29.361
39.8,-182.565,-28.948
39.83,-180.249,-28.547
39.87,-177.652,-28.181
39.9,-175.02,-27.745
39.93,-172.247,-27.287
39.96,-169.405,-26.966
40.0,-166.772,-26.497
40.03,-163.895,-25.912
40.06,-160.876,-25.363
40.1,-158.104,-25.065
40.13,-155.331,-24.492
40.16,-152.278,-23.839
40.19,-148.839,-23.392
40.23,-145.75,-22.865
40.26,-142.873,-22.373
40.29,-139.925,-21.754
40.32,-136.661,-21.181
40.36,-133.257,-20.815
40.39,-130.379,-20.505
40.42,-127.711,-20.059
40.45,-124.728,-19.578
40.49,-121.465,-19.131
40.52,-118.06,-18.673
40.55,-114.867,-18.249
40.58,-111.848,-17.756
40.62,-108.725,-17.195
40.65,-105.496,-16.633
40.68,-102.267,-16.187
40.71,-99.004,-15.797
40.75,-95.88,-15.339
40.78,-92.686,-14.846
40.81,-89.458,-14.354
40.84,-86.194,-13.838
40.88,-82.93,-13.38
40.91,-79.701,-12.91
40.94,-76.508,-12.441
40.97,-73.068,-11.937
41.01,-69.734,-11.364
41.04,-66.365,-10.803
41.07,-62.926,-10.333
41.1,-59.837,-9.875
41.14,-56.468,-9.462
41.17,-53.415,-9.038
41.2,-49.87,-8.374
41.23,-46.466,-7.801
41.27,-42.43,-7.343
41.3,-39.552,-6.77
41.33,-39.903,-5.189
41.36,-45.554,-1.157
41.4,-38.464,2.406
41.43,-24.988,0.825
41.46,-25.795,-0.069
41.49,-22.847,1.042
41.53,-14.6,1.168
41.56,-7.545,0.916
41.59,-1.404,0.974
41.62,3.685,0.584
41.66,3.79,0.103
41.69,5.089,0.699
41.72,9.756,0.733
41.75,12.213,0.55
41.79,14.986,1.042
41.82,19.443,1.695
41.85,24.391,2.486
41.88,29.971,2.967
41.92,34.464,3.082
41.95,36.815,3.265
41.98,37.727,4.009
42.02,39.201,4.937
42.05,41.763,5.35
42.08,44.571,5.166
42.11,47.028,4.926
42.15,49.59,4.983
42.18,52.748,5.338
42.21,56.714,5.808
42.24,60.855,6.404
42.28,64.786,7.171
42.31,68.611,8.122
42.34,72.156,9.073
42.37,75.49,9.966
42.41,78.999,10.825
42.44,82.228,11.421
42.47,85.281,11.765
42.5,88.124,12.235
42.54,91.318,12.761
42.57,94.933,13.128
42.6,98.477,13.506
42.63,101.881,14.033
42.67,105.321,14.652
42.7,108.83,15.442
42.73,112.515,16.095
42.76,115.884,16.622
42.8,118.973,17.206
42.83,122.061,17.859
42.86,124.869,18.157
42.89,127.887,18.547
42.93,131.186,19.119
42.96,134.52,19.452
42.99,137.679,19.83
43.02,140.591,20.345
43.06,143.399,20.861
43.09,146.733,21.445
43.12,150.102,21.972
43.15,152.98,22.235
43.19,155.331,22.636
43.22,157.999,23.22
43.25,161.227,23.576
43.28,164.14,23.816
43.32,166.702,24.183
43.35,169.44,24.618
43.38,172.318,24.985
43.41,175.055,25.351
43.45,177.547,25.741
43.48,180.109,26.245
43.51,182.846,26.726
43.54,185.619,27.035
43.58,187.97,27.344
43.61,190.251,27.791
43.64,192.743,28.1
43.67,195.094,28.238
43.71,197.305,28.547
43.74,199.446,28.879
43.77,201.517,29.097
43.81,203.482,29.269
43.84,205.061,29.315
43.87,206.044,29.063
43.9,206.886,28.925
43.94,208.325,29.017
43.97,210.115,29.017
44.0,212.01,29.063
44.03,214.011,29.475
44.07,216.432,30.185
44.1,219.135,31.01
44.13,221.521,31.686
44.16,224.083,32.625
44.2,227.417,33.851
44.23,230.505,34.538
44.26,232.541,35.031
44.29,234.471,35.856
44.33,237.033,36.543
44.36,239.314,36.726
44.39,240.648,36.715
44.42,241.806,36.956
44.46,243.526,37.093
44.49,245.386,37.036
44.52,246.684,37.047
44.55,248.018,37.219
44.59,249.422,37.368
44.62,251.036,37.528
44.65,252.44,37.712
44.68,253.844,37.987
44.72,255.353,38.273
44.75,256.827,38.514
44.78,258.336,38.8
44.81,259.81,39.121
44.85,261.249,39.419
44.88,262.688,39.671
44.91,263.811,39.831
44.94,264.969,40.094
44.98,266.267,40.45
45.01,267.776,40.747
45.04,269.145,40.965
45.07,270.409,41.24
45.11,271.672,41.503
45.14,272.795,41.733
45.17,273.778,41.985
45.2,274.936,42.237
45.24,276.094,42.397
45.27,277.077,42.569
45.3,278.024,42.809
45.33,279.042,43.073
45.37,279.919,43.176
45.4,280.586,43.302
45.43,281.358,43.417
45.46,281.955,43.497
45.5,282.552,43.474
45.53,283.253,43.611
45.56,284.026,43.772
45.6,284.657,43.875
45.63,285.149,44.058
45.66,285.78,44.218
45.69,286.061,44.127
45.73,286.166,44.195
45.76,286.237,44.15
45.79,286.166,43.943
45.82,286.131,43.978
45.86,286.342,43.886
45.89,286.166,43.76
45.92,285.921,43.703
45.95,285.851,43.68
45.99,285.71,43.565
46.02,285.359,43.394
46.05,285.149,43.291
46.08,285.008,43.313
46.12,284.727,43.245
46.15,284.096,43.13
46.18,283.394,43.038
46.21,282.903,42.855
46.25,282.025,42.58
46.28,281.007,42.328
46.31,280.2,42.134
46.34,279.533,42.042
46.38,278.726,41.962
46.41,277.779,41.836
46.44,276.866,41.744
46.47,275.919,41.584
46.51,274.866,41.366
46.54,273.708,41.148
46.57,272.479,40.965
46.6,271.426,40.828
46.64,270.338,40.621
46.67,269.04,40.404
46.7,267.636,40.209
46.73,266.232,40.003
46.77,264.864,39.762
46.8,263.354,39.464
46.83,261.705,39.224
46.86,260.196,39.052
46.9,258.687,38.766
46.93,256.932,38.536
46.96,255.212,38.319
46.99,253.668,38.067
47.03,252.124,37.803
47.06,250.404,37.437
47.09,248.509,37.208
47.12,246.79,37.036
47.16,245.21,36.875
47.19,243.526,36.704
47.22,241.806,36.497
47.25,239.841,36.291
47.29,238.016,36.074
47.32,236.191,35.89
47.35,234.331,35.73
47.39,232.436,35.547
47.42,230.821,35.34
47.45,229.137,35.146
47.48,227.312,34.917
47.52,225.171,34.699
47.55,223.311,34.584
47.58,221.486,34.47
47.61,219.696,34.275
47.65,217.801,34.034
47.68,215.8,33.805
47.71,213.625,33.519
47.74,211.308,33.175
47.78,208.817,32.855
47.81,206.57,32.454
47.84,204.324,31.972
47.87,201.868,31.48
47.91,199.306,31.113
47.94,197.025,30.781
47.97,194.814,30.483
48.0,192.462,30.151
48.04,189.935,29.853
48.07,187.619,29.59
48.1,185.197,29.154
48.13,182.565,28.765
48.17,180.003,28.501
48.2,177.652,28.123
48.23,175.02,27.619
48.26,172.107,27.15
48.3,169.264,26.817
48.33,166.597,26.416
48.36,163.789,25.878
48.39,160.947,25.431
48.43,157.823,24.916
48.46,154.77,24.32
48.49,151.962,24.011
48.52,149.084,23.427
48.56,146.207,23.026
48.59,142.943,22.476
48.62,139.609,21.926
48.65,136.555,21.594
48.69,134.064,21.124
48.72,131.186,20.597
48.75,127.957,20.093
48.78,124.588,19.704
48.82,121.324,19.314
48.85,118.376,18.799
48.88,115.218,18.168
48.91,111.708,17.607
48.95,108.339,17.195
48.98,105.215,16.714
49.01,102.127,16.129
49.04,98.863,15.614
49.08,95.459,15.133
49.11,92.195,14.663
49.14,88.931,14.182
49.17,85.738,13.758
49.21,82.509,13.334
49.24,79.385,12.922
49.27,76.262,12.498
49.31,73.174,12.028
49.34,69.734,11.559
49.37,66.47,11.204
49.4,63.312,10.768
49.44,60.294,10.218
49.47,56.819,9.76
49.5,53.52,9.336
49.53,50.151,8.878
49.57,47.098,8.351
49.6,43.307,7.859
49.63,40.605,7.274
49.66,41.132,5.693
49.7,46.536,1.856
49.73,41.833,-2.039
49.76,28.217,-0.974
49.79,27.725,0.16
49.83,25.269,-0.894
49.86,17.513,-1.054
49.89,9.756,-0.974
49.92,2.983,-0.859
49.96,-2.562,-0.664
49.99,-4.141,-0.069
50.02,-4.492,-0.435
50.05,-8.563,-0.63
50.09,-10.318,-0.687
50.12,-12.459,-1.558
50.15,-17.934,-2.108
50.18,-23.584,-2.303
50.22,-28.989,-2.463
50.25,-33.34,-2.681
50.28,-36.464,-3.047
50.31,-38.394,-3.815
50.35,-40.289,-4.72
50.38,-42.535,-5.304
50.41,-45.027,-5.499
50.44,-47.554,-5.602
50.48,-50.397,-5.636
50.51,-53.59,-5.739
50.54,-57.135,-6.003
50.57,-60.925,-6.461
50.61,-64.786,-7.102
50.64,-68.611,-7.904
50.67,-72.191,-8.752
50.7,-75.525,-9.531
50.74,-78.789,-10.299
50.77,-81.982,-10.894
50.8,-85.106,-11.318
50.83,-88.089,-11.811
50.87,-91.212,-12.292
50.9,-94.582,-12.693
50.93,-98.091,-13.14
50.96,-101.39,-13.644
51.0,-104.794,-14.262
51.03,-108.374,-14.938
51.06,-111.954,-15.614
51.1,-115.428,-16.21
51.13,-118.622,-16.828
51.16,-121.675,-17.412
51.19,-124.588,-17.894
51.23,-127.782,-18.478
51.26,-131.186,-18.959
51.29,-134.555,-19.452
51.32,-137.784,-19.898
51.36,-140.907,-20.402
51.39,-143.68,-20.78
51.42,-146.523,-21.17
51.45,-149.751,-21.811
51.49,-153.12,-22.178
51.52,-155.998,-22.453
51.55,-158.455,-22.911
51.58,-161.227,-23.518
51.62,-164.526,-24.011
51.65,-167.615,-24.32
51.68,-170.282,-24.629
51.71,-172.704,-25.065
51.75,-175.406,-25.5
51.78,-178.108,-25.786
51.81,-180.846,-26.164
51.84,-183.408,-26.565
51.88,-185.724,-26.772
51.91,-187.9,-27.115
51.94,-190.321,-27.459
51.97,-192.848,-27.791
52.01,-195.164,-27.974
52.04,-197.27,-28.295
52.07,-199.657,-28.799
52.1,-202.289,-29.086
52.14,-204.5,-29.269
52.17,-206.255,-29.567
52.2,-208.044,-29.945
52.23,-210.15,-30.22
52.27,-212.396,-30.392
52.3,-214.186,-30.621
52.33,-216.081,-30.941
52.36,-218.257,-31.331
52.4,-220.117,-31.606
52.43,-221.942,-31.881
52.46,-223.802,-32.247
52.49,-225.803,-32.602
52.53,-227.663,-32.912
52.56,-229.417,-33.233
52.59,-231.277,-33.542
52.62,-233.032,-33.897
52.66,-234.892,-34.504
52.69,-236.928,-34.905
52.72,-238.893,-35.088
52.75,-240.578,-35.409
52.79,-242.087,-35.833
52.82,-243.947,-36.131
52.85,-245.667,-36.348
52.89,-247.07,-36.704
52.92,-248.615,-37.059
52.95,-250.229,-37.322
52.98,-251.703,-37.54
53.02,-253.142,-37.78
53.05,-254.546,-38.101
53.08,-256.09,-38.41
53.11,-257.845,-38.708
53.15,-259.459,-39.018
53.18,-260.757,-39.338
53.21,-261.986,-39.671
53.24,-263.144,-39.842
53.28,-264.337,-39.934
53.31,-265.39,-40.22
53.34,-266.724,-40.518
53.37,-268.268,-40.667
53.41,-269.356,-40.908
53.44,-270.374,-41.309
53.47,-271.637,-41.549
53.5,-272.865,-41.71
53.54,-273.953,-42.03
53.57,-275.006,-42.305
53.6,-275.989,-42.626
53.63,-277.147,-42.993
53.67,-278.445,-43.13
53.7,-279.358,-43.222
53.73,-279.99,-43.451
53.76,-280.727,-43.623
53.8,-281.429,-43.623
53.83,-281.744,-43.588
53.86,-282.271,-43.657
53.89,-282.867,-43.703
53.93,-283.289,-43.6
53.96,-284.026,-43.921
53.99,-284.938,-44.012
54.02,-285.57,-44.127
54.06,-285.78,-44.218
54.09,-285.745,-44.104
54.12,-285.815,-44.218
54.15,-286.307,-44.253
54.19,-286.342,-44.115
54.22,-286.061,-44.001
54.25,-285.921,-43.863
54.28,-285.324,-43.646
54.32,-284.622,-43.474
54.35,-284.482,-43.336
54.38,-284.447,-43.176
54.41,-284.236,-43.084
54.45,-283.815,-43.119
54.48,-283.569,-43.187
54.51,-283.253,-43.165
54.54,-282.481,-43.073
54.58,-281.639,-42.958
54.61,-280.937,-42.798
54.64,-280.27,-42.546
54.68,-279.393,-42.351
54.71,-278.656,-42.202
54.74,-277.884,-42.019
54.77,-276.796,-41.881
54.81,-275.813,-41.733
54.84,-274.725,-41.515
54.87,-273.427,-41.309
54.9,-272.409,-41.183
54.94,-271.497,-40.988
54.97,-270.338,-40.736
55.0,-269.005,-40.564
55.03,-267.847,-40.358
55.07,-266.513,-40.026
55.1,-264.969,-39.774
55.13,-263.39,-39.602
55.16,-261.81,-39.373
55.2,-260.442,-39.098
55.23,-258.968,-38.823
55.26,-257.318,-38.594
55.29,-255.774,-38.41
55.33,-254.195,-38.09
55.36,-252.475,-37.895
55.39,-251.071,-37.883
55.42,-249.422,-37.654
55.46,-247.456,-37.414
55.49,-245.631,-37.276
55.52,-244.087,-36.956
55.55,-242.192,-36.6
55.59,-239.946,-36.337
55.62,-237.91,-36.074
55.65,-236.156,-35.867
55.68,-234.717,-35.615
55.72,-232.822,-35.352
55.75,-230.821,-35.214
55.78,-229.066,-35.18
55.81,-227.452,-34.962
55.85,-225.452,-34.584
55.88,-223.17,-34.321
55.91,-220.924,-34.08
55.94,-218.748,-33.782
55.98,-216.713,-33.404
56.01,-214.537,-33.038
56.04,-212.431,-32.706
56.07,-210.15,-32.362
56.11,-207.799,-32.018
56.14,-205.447,-31.766
56.17,-203.236,-31.526
56.2,-201.236,-31.251
56.24,-199.165,-30.999
56.27,-197.13,-30.793
56.3,-194.814,-30.586
56.33,-192.497,-30.334
56.37,-190.111,-30.105
56.4,-187.97,-29.819
56.43,-185.408,-29.338
56.46,-182.706,-28.914
56.5,-180.144,-28.639
56.53,-177.863,-28.249
56.56,-175.23,-27.722
56.6,-172.318,-27.23
56.63,-169.51,-26.829
56.66,-166.667,-26.382
56.69,-163.824,-25.855
56.73,-160.841,-25.248
56.76,-158.139,-24.95
56.79,-155.296,-24.423
56.82,-152.173,-23.747
56.86,-148.909,-23.243
56.89,-145.786,-22.751
56.92,-142.802,-22.258
56.95,-139.89,-21.685
56.99,-136.696,-21.158
57.02,-133.397,-20.746
57.05,-130.484,-20.402
57.08,-127.747,-19.956
57.12,-124.799,-19.417
57.15,-121.465,-18.867
57.18,-117.85,-18.466
57.21,-114.586,-18.042
57.25,-111.497,-17.561
57.28,-108.549,-17.046
57.31,-105.461,-16.496
57.34,-102.092,-16.038
57.38,-98.863,-15.648
57.41,-95.775,-15.167
57.44,-92.546,-14.663
57.47,-89.212,-14.205
57.51,-85.878,-13.747
57.54,-82.544,-13.266
57.57,-79.385,-12.773
57.6,-76.086,-12.269
57.64,-72.823,-11.742
57.67,-69.453,-11.226
57.7,-66.19,-10.791
57.73,-62.996,-10.321
57.77,-59.802,-9.794
57.8,-56.117,-9.279
57.83,-52.783,-8.844
57.86,-49.379,-8.374
57.9,-46.185,-7.859
57.93,-42.641,-7.263
57.96,-39.693,-6.724
57.99,-39.798,-5.35
58.03,-45.308,-1.707
58.06,-40.781,2.165
58.09,-27.094,1.1
58.12,-26.357,-0.069
58.16,-24.181,0.928
58.19,-16.705,1.157
58.22,-8.984,1.077
58.25,-1.825,1.02
58.29,3.755,0.664
58.32,4.527,0.115
58.35,5.405,0.63
58.39,9.932,0.745
58.42,12.599,0.607
58.45,15.196,1.191
58.48,19.653,1.787
58.52,24.602,2.44
58.55,29.796,2.807
58.58,33.691,2.852
58.61,35.727,3.104
58.65,36.639,3.838
58.68,38.324,4.639
58.71,40.991,5.018
58.74,44.115,4.914
58.78,46.782,4.766
58.81,49.519,4.972
58.84,52.959,5.453
58.87,57.135,5.98
58.91,61.206,6.598
58.94,65.067,7.412
58.97,68.646,8.374
59.0,72.156,9.371
59.04,75.56,10.15
59.07,78.859,10.791
59.1,81.947,11.341
59.13,84.966,11.742
59.17,87.949,12.177
59.2,91.318,12.624
59.23,94.897,13.048
59.26,98.337,13.414
59.3,101.566,13.941
59.33,104.935,14.594
59.36,108.409,15.236
59.39,111.919,15.797
59.43,115.147,16.29
59.46,118.025,16.828
59.49,121.043,17.458
59.52,124.272,17.951
59.56,127.501,18.375
59.59,130.624,18.821
59.62,133.888,19.406
59.65,137.257,19.898
59.69,140.591,20.379
59.72,143.68,20.895
59.75,146.593,21.41
59.78,149.646,22.029
59.82,152.629,22.51
59.85,155.507,22.842
59.88,158.35,23.232
59.91,161.157,23.644
59.95,164.035,24.011
59.98,166.983,24.4
60.01,169.896,24.801
60.04,172.563,25.156
60.08,175.09,25.523
60.11,177.722,25.993
60.14,180.635,26.451
60.18,183.337,26.806
60.21,185.864,27.23
60.24,188.391,27.642
60.27,190.848,27.952
60.31,193.164,28.181
60.34,195.375,28.398
60.37,197.656,28.673
60.4,199.902,28.96
60.44,202.008,29.212
60.47,204.149,29.418
60.5,206.114,29.658
60.53,207.869,29.681
60.57,209.273,29.796
60.6,210.887,30.105
60.63,213.133,30.346
60.66,215.379,30.495
60.7,217.274,30.793
60.73,219.521,31.457
60.76,222.012,32.076
60.79,224.434,32.637
60.83,226.68,33.301
60.86,228.751,33.794
60.89,230.786,34.298
60.92,232.787,34.722
60.96,234.682,34.939
60.99,236.436,35.157
61.02,237.875,35.352
61.05,239.174,35.386
61.09,240.437,35.501
61.12,242.192,35.764
61.15,244.052,35.913
61.18,245.561,36.108
61.22,247.0,36.532
61.25,248.895,37.036
61.28,250.896,37.368
61.31,252.229,37.563
61.35,253.458,37.872
61.38,254.967,38.262
61.41,256.721,38.514
61.44,258.16,38.685
61.48,259.459,39.029
61.51,261.038,39.396
61.54,262.442,39.648
61.57,263.46,39.808
61.61,264.618,40.083
61.64,266.127,40.335
61.67,267.496,40.53
61.7,268.724,40.828
61.74,269.882,41.125
61.77,271.075,41.355
61.8,272.163,41.561
61.83,273.146,41.847
61.87,274.304,42.088
61.9,275.357,42.317
61.93,276.445,42.569
61.97,277.673,42.798
62.0,278.831,43.038
62.03,279.779,43.199
62.06,280.446,43.313
62.1,281.113,43.371
62.13,281.639,43.382
62.16,282.025,43.439
62.19,282.552,43.439
62.23,283.464,43.543
62.26,284.166,43.714
62.29,284.201,43.623
62.32,284.482,43.726
62.36,284.833,43.68
62.39,284.938,43.588
62.42,284.763,43.565
62.45,284.868,43.497
62.49,285.114,43.565
62.52,285.324,43.554
62.55,285.219,43.554
62.58,285.043,43.623
62.62,285.078,43.577
62.65,284.903,43.451
62.68,284.341,43.382
62.71,284.096,43.348
62.75,283.99,43.325
62.78,283.815,43.291
62.81,283.359,43.245
62.84,282.938,43.142
62.88,282.376,42.935
62.91,281.604,42.764
62.94,280.727,42.626
62.97,280.06,42.5
63.01,279.533,42.408
63.04,278.972,42.294
63.07,278.13,42.122
63.1,277.252,42.042
63.14,276.445,41.893
63.17,275.497,41.687
63.2,274.374,41.412
63.23,273.111,41.229
63.27,271.953,41.091
63.3,270.76,40.908
63.33,269.566,40.679
63.36,268.198,40.427
63.4,266.794,40.175
63.43,265.39,39.888
63.46,263.776,39.659
63.49,262.337,39.441
63.53,260.933,39.212
63.56,259.564,38.937
63.59,257.985,38.743
63.62,256.265,38.571
63.66,254.686,38.365
63.69,253.142,38.113
63.72,251.352,37.826
63.75,249.281,37.54
63.79,247.491,37.322
63.82,245.842,37.093
63.85,243.982,36.795
63.89,242.052,36.612
63.92,240.472,36.429
63.95,238.858,36.154
63.98,236.998,35.959
64.02,235.173,35.913
64.05,233.629,35.753
64.08,231.944,35.558
64.11,230.19,35.432
64.15,228.294,35.214
64.18,226.224,34.905
64.21,223.978,34.607
64.24,221.802,34.298
64.28,219.591,33.931
64.31,217.274,33.553
64.34,215.134,33.187
64.37,212.923,32.809
64.41,210.501,32.419
64.44,208.115,32.041
64.47,205.833,31.697
64.5,203.377,31.365
64.54,200.955,31.079
64.57,198.92,30.919
64.6,197.095,30.655
64.63,194.919,30.38
64.67,192.322,30.208
64.7,190.005,30.014
64.73,187.865,29.716
64.76,185.268,29.361
64.8,182.6,28.948
64.83,180.109,28.65
64.86,177.863,28.272
64.89,175.301,27.734
64.93,172.282,27.264
64.96,169.44,26.932
64.99,166.843,26.485
65.02,163.93,25.89
65.06,161.087,25.431
65.09,158.139,24.939
65.12,154.91,24.309
65.15,151.857,23.988
65.19,148.979,23.461
65.22,146.277,22.968
65.25,143.013,22.407
65.28,139.609,21.823
65.32,136.31,21.502
65.35,133.713,21.067
65.38,131.01,20.563
65.41,127.852,20.001
65.45,124.448,19.623
65.48,121.219,19.257
65.51,118.13,18.764
65.54,114.937,18.146
65.58,111.533,17.561
65.61,108.093,17.103
65.64,105.005,16.645
65.68,101.881,16.095
65.71,98.723,15.568
65.74,95.284,15.087
65.77,92.02,14.675
65.81,88.931,14.274
65.84,85.878,13.85
65.87,82.719,13.403
65.9,79.385,12.945
65.94,76.051,12.544
65.97,72.998,12.109
66.0,69.734,11.616
66.03,66.505,11.146
66.07,63.206,10.711
66.1,60.118,10.241
66.13,56.714,9.783
66.16,53.485,9.313
66.2,49.94,8.878
66.23,46.677,8.305
66.26,42.746,7.801
66.29,40.395,7.068
66.33,41.904,5.178
66.36,47.589,0.836
66.39,39.026,-2.325
66.42,26.988,-0.47
66.46,28.603,0.115
66.49,25.128,-0.985
66.52,17.477,-0.997
66.55,10.388,-0.916
66.59,4.071,-0.825
66.62,-1.474,-0.722
66.65,-4.247,-0.206
66.68,-4.527,-0.344
66.72,-8.177,-0.596
66.75,-9.827,-0.733
66.78,-11.827,-1.821
66.81,-18.074,-2.268
66.85,-23.759,-2.291
66.88,-29.164,-2.371
66.91,-33.411,-2.623
66.94,-36.78,-3.082
66.98,-38.885,-3.815
67.01,-40.535,-4.662
67.04,-42.149,-5.327
67.07,-44.536,-5.613
67.11,-47.238,-5.636
67.14,-50.186,-5.625
67.17,-53.38,-5.693
67.2,-56.749,-5.98
67.24,-60.504,-6.564
67.27,-64.575,-7.263
67.3,-68.822,-7.962
67.33,-72.437,-8.672
67.37,-75.49,-9.416
67.4,-78.543,-10.264
67.43,-81.737,-10.974
67.47,-85.036,-11.387
67.5,-88.159,-11.719
67.53,-91.107,-12.189
67.56,-94.09,-12.601
67.6,-97.284,-13.025
67.63,-100.899,-13.54
67.66,-104.514,-14.067
67.69,-108.093,-14.583
67.73,-111.357,-15.247
67.76,-114.516,-16.026
67.79,-117.815,-16.691
67.82,-121.184,-17.229
67.86,-124.167,-17.687
67.89,-127.045,-18.157
67.92,-130.063,-18.741
67.95,-133.643,-19.326
67.99,-137.257,-19.795
68.02,-140.416,-20.185
68.05,-143.399,-20.838
68.08,-146.382,-21.319
68.12,-149.716,-22.006
68.15,-153.015,-22.636
68.18,-156.104,-23.003
68.21,-158.876,-23.427
68.25,-161.719,-23.931
68.28,-164.737,-24.389
68.31,-167.825,-24.675
68.34,-170.493,-24.973
68.38,-172.984,-25.363
68.41,-175.581,-25.729
68.44,-178.319,-26.004
68.47,-180.986,-26.336
68.51,-183.653,-26.691
68.54,-186.04,-27.001
68.57,-188.321,-27.356
68.6,-190.813,-27.722
68.64,-193.199,-27.986
68.67,-195.27,-28.215
68.7,-197.375,-28.444
68.73,-199.586,-28.811
68.77,-201.868,-29.051
68.8,-204.149,-29.189
68.83,-206.114,-29.395
68.86,-207.764,-29.796
68.9,-209.729,-30.174
68.93,-212.151,-30.472
68.96,-214.432,-30.689
68.99,-216.362,-30.953
69.03,-218.117,-31.388
69.06,-220.117,-31.915
69.09,-222.293,-32.236
69.12,-224.504,-32.602
69.16,-226.399,-32.935
69.19,-227.838,-33.233
69.22,-229.523,-33.748
69.26,-231.699,-34.103
69.29,-233.594,-34.241
69.32,-235.349,-34.653
69.35,-237.173,-35.065
69.39,-238.718,-35.34
69.42,-240.437,-35.661
69.45,-242.297,-35.982
69.48,-243.912,-36.257
69.52,-245.386,-36.52
69.55,-246.86,-36.887
69.58,-248.544,-37.265
69.61,-250.299,-37.517
69.65,-251.738,-37.746
69.68,-253.107,-38.055
69.71,-254.756,-38.399
69.74,-256.406,-38.697
69.78,-257.95,-39.018
69.81,-259.529,-39.361
69.84,-261.003,-39.751
69.87,-262.267,-40.037
69.91,-263.284,-40.243
69.94,-264.442,-40.461
69.97,-265.811,-40.633
70.0,-267.039,-40.805
70.04,-268.338,-41.103
70.07,-269.672,-41.309
70.1,-270.76,-41.503
70.13,-271.812,-41.778
70.17,-272.935,-42.042
70.2,-274.023,-42.294
70.23,-275.041,-42.546
70.26,-275.989,-42.809
70.3,-277.287,-43.061
70.33,-278.27,-43.279
70.36,-279.077,-43.543
70.39,-279.884,-43.623
70.43,-280.516,-43.623
70.46,-281.113,-43.691
70.49,-281.674,-43.634
70.52,-281.99,-43.669
70.56,-282.481,-43.806
70.59,-282.938,-43.714
70.62,-283.569,-44.001
70.65,-284.096,-44.092
70.69,-284.763,-44.161
70.72,-285.043,-44.299
70.75,-284.973,-44.195
70.78,-285.219,-44.31
70.82,-285.745,-44.379
70.85,-285.921,-44.367
70.88,-285.535,-44.402
70.91,-285.57,-44.413
70.95,-285.5,-44.207
70.98,-285.008,-43.966
71.01,-284.622,-43.817
71.04,-284.482,-43.726
71.08,-284.517,-43.6
71.11,-284.061,-43.543
71.14,-283.534,-43.611
71.18,-283.183,-43.588
71.21,-282.516,-43.417
71.24,-281.709,-43.279
71.27,-281.078,-43.004
71.31,-280.27,-42.672
71.34,-279.393,-42.546
71.37,-278.586,-42.431
71.4,-277.779,-42.282
71.44,-276.831,-42.145
71.47,-275.883,-41.973
71.5,-274.796,-41.767
71.53,-273.497,-41.549
71.57,-272.198,-41.423
71.6,-271.251,-41.309
71.63,-270.233,-41.057
71.66,-268.935,-40.85
71.7,-267.706,-40.667
71.73,-266.338,-40.346
71.76,-264.478,-40.152
71.79,-263.109,-40.003
71.83,-261.951,-39.682
71.86,-260.442,-39.35
71.89,-258.862,-39.041
71.92,-257.037,-38.834
71.96,-255.563,-38.708
71.99,-253.914,-38.422
72.02,-252.299,-38.09
72.05,-250.79,-37.987
72.09,-249.106,-37.746
72.12,-247.176,-37.494
72.15,-245.351,-37.322
72.18,-243.771,-37.196
72.22,-242.192,-36.933
72.25,-240.192,-36.612
72.28,-238.051,-36.314
72.31,-236.05,-36.119
72.35,-234.471,-36.016
72.38,-232.962,-35.741
72.41,-231.032,-35.398
72.44,-228.996,-35.226
72.48,-227.136,-35.146
72.51,-225.171,-34.768
72.54,-222.82,-34.47
72.57,-220.714,-34.252
72.61,-218.819,-33.886
72.64,-216.537,-33.496
72.67,-214.256,-33.267
72.7,-212.221,-33.049
72.74,-210.115,-32.728
72.77,-207.939,-32.362
72.8,-205.588,-32.053
72.83,-203.271,-31.778
72.87,-201.025,-31.549
72.9,-199.13,-31.308
72.93,-197.06,-31.022
72.97,-194.814,-30.77
73.0,-192.427,-30.529
73.03,-190.005,-30.266
73.06,-187.865,-30.036
73.1,-185.548,-29.578
73.13,-182.671,-29.063
73.16,-179.933,-28.788
73.19,-177.617,-28.444
73.23,-175.195,-27.86
73.26,-172.353,-27.321
73.29,-169.44,-26.932
73.32,-166.562,-26.485
73.36,-163.649,-26.004
73.39,-160.806,-25.397
73.42,-157.964,-24.95
73.45,-154.77,-24.481
73.49,-151.822,-23.896
73.52,-148.839,-23.346
73.55,-145.75,-22.739
73.58,-142.416,-22.281
73.62,-139.293,-21.766
73.65,-136.31,-21.216
73.68,-133.221,-20.746
73.71,-130.168,-20.288
73.75,-127.115,-19.875
73.78,-123.991,-19.532
73.81,-120.938,-19.051
73.84,-117.85,-18.501
73.88,-114.726,-18.031
73.91,-111.533,-17.619
73.94,-108.374,-17.229
73.97,-105.356,-16.828
74.01,-102.303,-16.381
74.04,-99.039,-15.877
74.07,-95.599,-15.442
74.1,-92.336,-15.018
74.14,-89.177,-14.457
74.17,-85.913,-13.873
74.2,-82.509,-13.288
74.23,-79.21,-12.761
74.27,-76.051,-12.257
74.3,-72.858,-11.753
74.33,-69.559,-11.238
74.36,-66.33,-10.803
74.4,-62.961,-10.447
74.43,-59.697,-10.001
74.46,-56.258,-9.474
74.49,-52.959,-8.935
74.53,-49.309,-8.397
74.56,-46.15,-7.87
74.59,-42.465,-7.343
74.62,-39.938,-6.633
74.66,-40.991,-4.892
74.69,-46.045,-0.905
74.72,-38.499,2.28
74.76,-26.251,0.722
74.79,-26.883,0.034
74.82,-23.514,1.042
74.85,-15.793,1.111
74.89,-8.774,0.962
74.92,-2.562,0.928
74.95,2.632,0.687
74.98,4.141,0.229
75.02,4.948,0.504
75.05,8.739,0.756
75.08,11.897,0.596
75.11,14.354,0.916
75.15,18.214,1.535
75.18,23.128,2.325
75.21,28.708,2.956
75.24,33.691,3.036
75.28,36.674,3.104
75.31,37.938,3.78
75.34,39.307,4.72
75.37,41.623,5.304
75.41,44.431,5.396
75.44,47.168,5.281
75.47,49.8,5.292
75.5,53.029,5.59
75.54,56.96,6.049
75.57,60.925,6.633
75.6,64.68,7.343
75.63,68.33,8.259
75.67,71.91,9.153
75.7,75.279,9.989
75.73,78.578,10.688
75.76,81.702,11.226
75.8,84.79,11.685
75.83,87.984,12.166
75.86,91.353,12.544
75.89,94.652,12.945
75.93,97.916,13.449
75.96,101.25,14.01
75.99,104.829,14.629
76.02,108.304,15.27
76.06,111.743,15.82
76.09,114.937,16.427
76.12,118.025,17.0
76.15,121.184,17.584
76.19,124.307,18.111
76.22,127.571,18.638
76.25,130.73,19.131
76.28,134.134,19.589
76.32,137.468,20.15
76.35,140.627,20.643
76.38,143.539,21.09
76.41,146.347,21.571
76.45,149.471,22.098
76.48,152.489,22.453
76.51,155.261,22.774
76.55,157.964,23.117
76.58,160.771,23.53
76.61,163.719,23.931
76.64,166.632,24.297
76.68,169.405,24.687
76.71,172.107,25.145
76.74,174.809,25.512
76.77,177.336,25.924
76.81,180.074,26.405
76.84,182.881,26.829
76.87,185.583,27.184
76.9,188.005,27.585
76.94,190.392,27.997
76.97,192.813,28.33
77.0,195.235,28.57
77.03,197.481,28.845
77.07,199.727,29.12
77.1,201.868,29.395
77.13,204.008,29.693
77.16,206.219,29.945
77.2,208.115,30.014
77.23,209.694,30.185
77.26,211.414,30.529
77.29,213.625,30.907
77.33,215.941,31.159
77.36,218.187,31.445
77.39,220.258,31.915
77.42,222.433,32.488
77.46,224.399,32.786
77.49,226.434,33.255
77.52,228.365,33.691
77.55,230.4,33.977
77.59,232.05,34.321
77.62,233.664,34.561
77.65,235.419,34.848
77.68,237.314,35.02
77.72,238.753,35.191
77.75,240.262,35.524
77.78,242.227,35.959
77.81,244.368,36.337
77.85,246.228,36.738
77.88,247.913,37.219
77.91,249.878,37.803
77.94,252.194,38.342
77.98,254.405,38.857
78.01,256.511,39.361
78.04,258.406,39.888
78.07,260.406,40.438
78.11,262.337,40.805
78.14,263.881,40.976
78.17,265.636,41.435
78.2,267.671,42.019
78.24,269.637,42.374
78.27,271.356,42.683
78.3,273.041,43.038
78.33,274.585,43.336
78.37,276.094,43.531
78.4,277.463,43.772
78.43,278.796,43.989
78.47,280.095,44.069
78.5,280.972,44.024
78.53,281.534,43.943
78.56,282.025,43.921
78.6,282.797,43.76
78.63,283.499,43.6
78.66,283.92,43.52
78.69,284.271,43.382
78.73,284.377,43.245
78.76,284.447,43.165
78.79,284.692,43.05
78.82,284.833,42.924
78.86,285.149,42.901
78.89,285.71,43.004
78.92,286.166,43.061
78.95,286.307,43.084
78.99,286.272,43.165
79.02,286.588,43.245
79.05,286.903,43.153
79.08,286.833,43.119
79.12,286.974,43.268
79.15,287.43,43.439
79.18,287.64,43.52
79.21,287.325,43.577
79.25,287.009,43.543
79.28,286.693,43.417
79.31,286.061,43.21
79.34,285.359,43.027
79.38,285.008,42.878
79.41,284.622,42.764
79.44,284.061,42.764
79.47,283.569,42.718
79.51,283.113,42.592
79.54,282.446,42.466
79.57,281.674,42.363
79.6,280.972,42.282
79.64,280.27,42.26
79.67,279.744,42.294
79.7,279.253,42.248
79.73,278.305,42.088
79.77,277.112,41.973
79.8,276.164,41.801
79.83,275.146,41.515
79.86,273.848,41.217
79.9,272.304,41.034
79.93,271.075,40.908
79.96,270.093,40.759
79.99,268.9,40.553
80.03,267.531,40.243
80.06,265.916,39.888
80.09,264.302,39.636
80.12,262.758,39.384
80.16,261.249,39.086
80.19,259.705,38.834
80.22,258.195,38.651
80.26,256.546,38.422
80.29,254.897,38.239
80.32,253.387,38.113
80.35,251.387,37.826
80.39,246.158,35.89
80.42,238.753,33.359
80.45,233.418,32.064
80.48,230.505,30.667
80.52,226.189,28.582
80.55,220.538,27.505
80.58,217.696,27.94
80.61,217.31,28.708
80.65,217.345,30.059
80.68,218.292,31.961
80.71,221.03,33.473
80.74,223.03,34.527
80.78,222.925,35.856
80.81,222.153,37.345
80.84,221.872,38.147
80.87,221.346,38.319
80.91,219.977,38.181
80.94,218.047,37.78
80.97,216.011,37.196
81.0,214.362,36.578
81.04,212.817,36.016
81.07,210.957,35.547
81.1,208.852,35.157
81.13,206.921,34.825
81.17,205.167,34.47
81.2,203.201,34.069
81.23,200.85,33.565
81.26,198.534,33.061
81.3,196.288,32.557
81.33,193.971,32.018
81.36,191.304,31.445
81.39,188.707,30.953
81.43,186.356,30.54
81.46,184.25,30.082
81.49,181.828,29.567
81.52,179.231,29.166
81.56,176.74,28.799
81.59,174.002,28.341
81.62,171.159,27.86
81.65,168.211,27.207
81.69,164.807,26.382
81.72,161.227,25.638
81.75,157.964,24.939
81.78,154.805,24.102
81.82,151.401,23.323
81.85,147.856,22.682
81.88,144.557,22.109
81.91,141.539,21.628
81.95,138.451,21.055
81.98,135.257,20.528
82.01,132.028,20.173
82.05,128.975,19.864
82.08,126.167,19.486
82.11,123.43,19.119
82.14,120.377,18.753
82.18,117.148,18.398
82.21,114.024,18.146
82.24,111.182,17.894
82.27,108.514,17.538
82.31,105.637,17.103
82.34,102.583,16.737
82.37,99.565,16.45
82.4,96.652,16.038
82.44,93.599,15.499
82.47,90.23,15.041
82.5,86.966,14.606
82.53,83.913,14.171
82.57,81.0,13.655
82.6,77.841,13.162
82.63,74.718,12.693
82.66,71.384,12.2
82.7,68.015,11.696
82.73,64.645,11.238
82.76,61.452,10.677
82.79,58.083,10.104
82.83,54.713,9.474
82.86,51.064,8.981
82.89,47.624,8.363
82.92,43.834,7.824
82.96,42.149,6.896
82.99,44.641,4.491
83.02,48.466,-0.057
83.05,37.166,-2.188
83.09,27.795,-0.183
83.12,29.024,-0.172
83.15,23.795,-1.077
83.18,16.074,-0.951
83.22,9.476,-0.859
83.25,3.58,-0.79
83.28,-1.404,-0.596
83.31,-2.948,-0.137
83.35,-2.913,-0.252
83.38,-5.58,-0.584
83.41,-8.247,-0.79
83.44,-11.055,-1.088
83.48,-15.477,-1.123
83.51,-20.074,-1.661
83.54,-25.69,-2.543
83.57,-31.831,-3.127
83.61,-37.341,-3.334
83.64,-40.5,-3.666
83.67,-41.869,-4.548
83.7,-43.202,-5.636
83.74,-45.624,-6.369
83.77,-48.502,-6.449
83.8,-51.064,-6.255
83.84,-53.45,-6.255
83.87,-56.398,-6.518
83.9,-59.978,-6.896
83.93,-64.189,-7.354
83.97,-68.33,-7.824
84.0,-72.05,-8.5
84.03,-75.349,-9.336
84.06,-78.403,-10.115
84.1,-81.526,-10.848
84.13,-84.755,-11.456
84.16,-87.949,-11.914
84.19,-90.826,-12.257
84.23,-93.634,-12.578
84.26,-96.758,-13.128
84.29,-100.197,-13.575
84.32,-103.882,-14.067
84.36,-107.391,-14.64
84.39,-110.936,-15.282
84.42,-114.305,-16.049
84.45,-117.604,-16.656
84.49,-120.728,-17.195
84.52,-123.64,-17.779
84.55,-126.518,-18.272
84.58,-129.642,-18.741
84.62,-132.835,-19.199
84.65,-136.029,-19.623
84.68,-139.258,-20.104
84.71,-142.451,-20.586
84.75,-145.47,-21.009
84.78,-148.453,-21.514
84.81,-151.506,-22.121
84.84,-154.735,-22.613
84.88,-157.718,-23.06
84.91,-160.49,-23.587
84.94,-163.509,-24.114
84.97,-166.492,-24.503
85.01,-169.264,-24.939
85.04,-172.002,-25.408
85.07,-174.669,-25.752
85.1,-177.371,-26.073
85.14,-180.179,-26.52
85.17,-182.846,-26.932
85.2,-185.443,-27.333
85.23,-188.005,-27.665
85.27,-190.321,-28.02
85.3,-192.638,-28.307
85.33,-194.954,-28.524
85.36,-197.06,-28.696
85.4,-199.306,-29.051
85.43,-201.692,-29.383
85.46,-203.903,-29.613
85.49,-205.939,-29.865
85.53,-207.939,-30.22
85.56,-209.904,-30.506
85.59,-212.186,-30.77
85.62,-214.362,-31.022
85.66,-216.327,-31.285
85.69,-218.117,-31.64
85.72,-220.012,-32.11
85.76,-222.153,-32.499
85.79,-224.258,-32.809
85.82,-226.118,-33.141
85.85,-227.979,-33.542
85.89,-229.944,-33.908
85.92,-231.874,-34.218
85.95,-233.769,-34.47
85.98,-235.594,-34.802
86.02,-237.454,-35.123
86.05,-239.174,-35.455
86.08,-240.753,-35.879
86.11,-242.403,-36.211
86.15,-244.263,-36.543
86.18,-246.158,-36.807
86.21,-247.772,-37.07
86.24,-249.106,-37.437
86.28,-250.79,-37.815
86.31,-252.405,-38.021
86.34,-253.633,-38.193
86.37,-254.826,-38.525
86.41,-256.335,-38.788
86.44,-257.88,-38.892
86.47,-259.178,-39.052
86.5,-260.371,-39.361
86.54,-261.705,-39.636
86.57,-262.828,-39.762
86.6,-263.916,-39.968
86.63,-265.215,-40.22
86.67,-266.478,-40.484
86.7,-267.776,-40.885
86.73,-269.075,-41.206
86.76,-270.303,-41.538
86.8,-271.532,-41.801
86.83,-272.725,-42.099
86.86,-273.778,-42.477
86.89,-275.076,-42.775
86.93,-276.305,-42.901
86.96,-277.357,-43.245
86.99,-278.481,-43.6
87.02,-279.639,-43.726
87.06,-280.165,-43.795
87.09,-281.042,-43.966
87.12,-281.709,-43.921
87.15,-281.779,-43.772
87.19,-281.99,-43.886
87.22,-282.867,-44.001
87.25,-283.64,-43.84
87.28,-283.78,-43.817
87.32,-284.061,-44.081
87.35,-284.692,-44.173
87.38,-285.149,-44.161
87.41,-285.219,-44.161
87.45,-285.149,-44.253
87.48,-285.5,-44.322
87.51,-285.71,-44.264
87.55,-285.745,-44.195
87.58,-285.71,-44.138
87.61,-285.394,-44.047
87.64,-285.008,-43.955
87.68,-284.868,-43.852
87.71,-284.657,-43.737
87.74,-284.341,-43.795
87.77,-284.236,-43.817
87.81,-283.92,-43.817
87.84,-283.675,-43.772
87.87,-282.938,-43.6
87.9,-282.095,-43.405
87.94,-281.218,-43.176
87.97,-280.235,-43.004
88.0,-279.498,-42.775
88.03,-278.831,-42.489
88.07,-277.919,-42.237
88.1,-276.831,-42.03
88.13,-275.778,-41.824
88.16,-274.69,-41.664
88.2,-273.672,-41.458
88.23,-272.549,-41.286
88.26,-271.461,-41.16
88.29,-270.268,-41.011
88.33,-268.97,-40.885
88.36,-267.847,-40.747
88.39,-266.653,-40.427
88.42,-264.899,-40.117
88.46,-263.354,-39.991
88.49,-262.302,-39.705
88.52,-260.828,-39.35
88.55,-259.038,-39.189
88.59,-257.458,-39.109
88.62,-256.09,-38.892
88.65,-254.405,-38.525
88.68,-252.51,-38.193
88.72,-250.545,-37.998
88.75,-248.825,-37.757
88.78,-247.211,-37.46
88.81,-245.386,-37.127
88.85,-243.561,-36.921
88.88,-241.771,-36.726
88.91,-239.7,-36.463
88.94,-237.84,-36.268
88.98,-236.226,-36.085
89.01,-234.471,-35.856
89.04,-232.541,-35.558
89.07,-230.365,-35.329
89.11,-228.365,-35.043
89.14,-226.189,-34.699
89.17,-224.048,-34.378
89.2,-221.872,-33.977
89.24,-219.766,-33.622
89.27,-217.59,-33.267
89.3,-215.414,-32.981
89.34,-213.379,-32.728
89.37,-211.449,-32.58
89.4,-209.483,-32.328
89.43,-207.307,-32.076
89.47,-205.061,-31.95
89.5,-202.956,-31.778
89.53,-200.99,-31.514
89.56,-198.92,-31.377
89.6,-196.849,-31.182
89.63,-194.814,-30.976
89.66,-192.567,-30.747
89.69,-190.356,-30.449
89.73,-187.935,-29.968
89.76,-185.443,-29.601
89.79,-183.057,-29.383
89.82,-180.811,-28.96
89.86,-178.178,-28.627
89.89,-175.511,-28.215
89.92,-172.879,-27.7
89.95,-170.036,-27.218
89.99,-167.404,-26.84
90.02,-164.561,-26.176
90.05,-161.438,-25.546
90.08,-158.455,-25.202
90.12,-155.788,-24.687
90.15,-152.945,-24.183
90.18,-149.751,-23.633
90.21,-146.312,-22.957
90.25,-142.873,-22.43
90.28,-139.714,-21.846
90.31,-136.31,-21.078
90.34,-132.941,-20.46
90.38,-129.677,-19.898
90.41,-126.448,-19.326
90.44,-123.254,-18.856
90.47,-120.131,-18.409
90.51,-117.007,-17.962
90.54,-113.884,-17.538
90.57,-110.936,-17.218
90.6,-108.058,-16.794
90.64,-104.97,-16.393
90.67,-101.776,-16.129
90.7,-98.828,-15.843
90.73,-95.81,-15.431
90.77,-92.686,-14.995
90.8,-89.317,-14.537
90.83,-86.053,-14.067
90.86,-82.86,-13.632
90.9,-79.807,-13.082
90.93,-76.367,-12.578
90.96,-73.174,-12.166
90.99,-69.98,-11.627
91.03,-66.681,-11.032
91.06,-63.242,-10.516
91.09,-59.943,-9.955
91.13,-56.293,-9.382
91.16,-53.029,-8.912
91.19,-49.449,-8.34
91.22,-46.08,-7.721
91.26,-42.149,-7.217
91.29,-39.447,-6.518
91.32,-40.254,-4.766
91.35,-45.027,-0.722
91.39,-36.85,2.325
91.42,-24.812,0.676
91.45,-25.655,0.023
91.48,-22.426,1.02
91.52,-14.775,1.146
91.55,-7.651,0.916
91.58,-2.422,0.802
91.61,1.72,0.573
91.65,2.667,0.218
91.68,3.194,0.447
91.71,6.738,0.813
91.74,11.125,0.664
91.78,13.968,0.561
91.81,17.758,0.871
91.84,22.04,1.879
91.87,27.62,3.082
91.91,33.797,3.551
91.94,38.148,3.551
91.97,39.658,3.987
92.0,40.324,5.029
92.04,42.044,5.968
92.07,44.992,6.175
92.1,48.116,5.888
92.13,50.642,5.613
92.17,53.169,5.739
92.2,56.644,6.232
92.23,60.855,6.793
92.26,65.207,7.366
92.3,68.997,8.122
92.33,72.296,9.027
92.36,75.525,9.921
92.39,78.999,10.78
92.43,82.404,11.352
92.46,85.422,11.673
92.49,88.159,12.109
92.52,91.142,12.635
92.56,94.617,13.036
92.59,98.267,13.392
92.62,101.46,13.77
92.65,104.408,14.251
92.69,107.637,14.927
92.72,111.252,15.637
92.75,114.761,16.003
92.78,117.639,16.404
92.82,120.271,16.966
92.85,123.289,17.63
92.88,126.659,18.157
92.91,129.887,18.386
92.95,132.87,18.925
92.98,136.099,19.543
93.01,139.644,20.139
93.05,142.838,20.769
93.08,145.961,21.353
93.11,149.014,21.995
93.14,152.278,22.579
93.18,155.542,23.106
93.21,158.701,23.621
93.24,161.684,24.057
93.27,164.386,24.549
93.31,167.404,25.042
93.34,170.282,25.431
93.37,173.125,25.752
93.4,175.722,25.993
93.44,178.249,26.256
93.47,180.775,26.634
93.5,183.443,27.001
93.53,186.145,27.253
93.57,188.461,27.516
93.6,190.707,27.768
93.63,192.813,28.055
93.66,195.164,28.307
93.7,197.375,28.559
93.73,199.622,28.822
93.76,201.762,29.051
93.79,203.868,29.315
93.83,206.044,29.601
93.86,207.869,29.784
93.89,209.659,30.002
93.92,211.659,30.346
93.96,213.8,30.689
93.99,215.976,30.987
94.02,217.941,31.365
94.05,219.872,31.789
94.09,221.872,32.167
94.12,223.837,32.454
94.15,225.627,32.763
94.18,227.452,33.141
94.22,229.698,33.565
94.25,231.874,33.966
94.28,233.945,34.412
94.31,236.05,35.065
94.35,238.647,35.787
94.38,241.245,36.303
94.41,243.35,36.749
94.44,245.07,37.276
94.48,246.825,37.712
94.51,248.579,37.918
94.54,250.124,38.067
94.57,251.492,38.216
94.61,252.791,38.17
94.64,253.773,38.09
94.67,255.072,38.216
94.7,256.616,38.307
94.74,257.634,38.365
94.77,258.722,38.674
94.8,260.442,39.006
94.84,262.056,39.144
94.87,262.793,39.212
94.9,263.319,39.384
94.93,264.232,39.464
94.97,265.144,39.384
95.0,265.741,39.327
95.03,266.338,39.43
95.06,267.11,39.487
95.1,267.987,39.545
95.13,268.724,39.659
95.16,269.566,39.934
95.19,270.374,40.129
95.23,271.216,40.404
95.26,272.444,40.816
95.29,273.953,41.263
95.32,275.287,41.744
95.36,276.445,42.202
95.39,277.638,42.798
95.42,278.867,43.21
95.45,279.955,43.543
95.49,280.656,43.806
95.52,281.393,43.989
95.55,282.201,44.035
95.58,283.008,44.218
95.62,283.499,44.299
95.65,283.78,44.092
95.68,284.026,44.115
95.71,284.587,44.322
95.75,284.903,44.195
95.78,284.552,43.978
95.81,284.587,44.104
95.84,285.043,44.092
95.88,285.149,43.829
95.91,284.763,43.726
95.94,284.587,43.76
95.97,284.447,43.691
96.01,284.236,43.554
96.04,284.061,43.451
96.07,283.85,43.382
96.1,283.429,43.336
96.14,283.183,43.313
96.17,283.008,43.279
96.2,282.552,43.268
96.23,282.095,43.187
96.27,281.429,43.004
96.3,280.446,42.786
96.33,279.709,42.649
96.36,278.972,42.443
96.4,278.024,42.282
96.43,277.217,42.179
96.46,276.34,41.985
96.49,275.252,41.801
96.53,274.269,41.595
96.56,273.146,41.309
96.59,271.812,41.08
96.63,270.479,40.908
96.66,269.25,40.69
96.69,268.022,40.392
96.72,266.478,40.083
96.76,264.723,39.831
96.79,263.284,39.556
96.82,261.88,39.201
96.85,260.126,38.857
96.89,258.511,38.605
96.92,256.862,38.422
96.95,255.002,38.113
96.98,252.826,37.654
97.02,250.79,37.231
97.05,249.176,36.933
97.08,247.527,36.646
97.11,245.526,36.371
97.15,243.982,36.417
97.18,243.315,36.726
97.21,242.648,36.91
97.24,241.034,36.83
97.28,239.174,37.013
97.31,238.156,37.208
97.34,237.103,37.024
97.37,234.927,36.704
97.41,232.33,36.326
97.44,230.19,35.982
97.47,228.47,35.615
97.5,226.469,35.054
97.54,223.907,34.55
97.57,221.556,34.275
97.6,219.766,33.966
97.63,217.836,33.553
97.67,215.555,33.233
97.7,213.168,32.992
97.73,210.887,32.717
97.76,208.536,32.328
97.8,206.044,31.938
97.83,203.798,31.537
97.86,201.447,31.159
97.89,198.885,30.838
97.93,196.603,30.609
97.96,194.673,30.392
97.99,192.743,30.151
98.02,190.392,29.91
98.06,187.935,29.613
98.09,185.478,29.361
98.12,183.022,29.086
98.15,180.635,28.731
98.19,178.108,28.352
98.22,175.336,27.94
98.25,172.493,27.447
98.28,169.72,27.024
98.32,166.913,26.474
98.35,163.965,25.878
98.38,160.912,25.328
98.42,158.104,24.927
98.45,155.296,24.354
98.48,152.524,23.885
98.51,149.365,23.461
98.55,146.417,23.071
98.58,143.504,22.705
98.61,140.521,22.144
98.64,137.363,21.708
98.68,134.344,21.193
98.71,131.396,20.746
98.74,128.238,20.208
98.77,124.974,19.681
98.81,121.535,19.199
98.84,118.271,18.684
98.87,114.796,18.02
98.9,111.252,17.367
98.94,107.988,16.828
98.97,104.829,16.313
99.0,101.706,15.82
99.03,98.512,15.385
99.07,95.284,14.961
99.1,92.125,14.537
99.13,88.686,14.022
99.16,85.211,13.529
99.2,81.947,13.14
99.23,78.719,12.693
99.26,75.42,12.143
99.29,72.086,11.673
99.33,68.857,11.272
99.36,65.839,10.86
99.39,62.575,10.425
99.42,59.486,10.001
99.46,56.187,9.657
99.49,53.029,9.256
99.52,49.66,8.832
99.55,46.466,8.317
99.59,42.711,7.893
99.62,40.991,7.08
99.65,43.237,4.869
99.68,47.8,0.424
99.72,38.148,-2.211
99.75,27.48,-0.367
99.78,28.603,-0.046
99.81,24.286,-1.008
99.85,16.6,-1.008
99.88,9.581,-0.871
99.91,3.51,-0.813
99.94,-1.72,-0.642
99.98,-3.72,-0.16
100.01,-4.071,-0.332
100.04,-7.44,-0.63
100.07,-9.686,-0.871
100.11,-12.318,-1.501
100.14,-17.618,-1.833
100.17,-23.058,-2.234
100.2,-28.813,-2.681
100.24,-33.937,-2.99
100.27,-37.727,-3.391
100.3,-40.009,-4.181
100.34,-41.693,-5.121
100.37,-43.448,-5.774
100.4,-45.624,-6.094
100.43,-48.045,-6.197
100.47,-50.853,-6.175
100.5,-54.152,-6.14
100.53,-57.732,-6.22
100.56,-61.346,-6.541
100.6,-65.102,-7.114
100.63,-68.787,-7.79
100.66,-72.261,-8.489
100.69,-75.56,-9.222
100.73,-78.613,-9.898
100.76,-81.491,-10.413
100.79,-84.369,-10.894
100.82,-87.352,-11.433
100.86,-90.475,-11.822
100.89,-93.704,-12.177
100.92,-97.003,-12.635
100.95,-100.513,-13.197
100.99,-103.882,-13.689
101.02,-107.251,-14.434
101.05,-110.69,-15.236
101.08,-114.2,-15.923
101.12,-117.429,-16.416
101.15,-120.587,-16.989
101.18,-123.36,-17.458
101.21,-126.202,-18.031
101.25,-129.572,-18.661
101.28,-133.221,-19.096
101.31,-136.766,-19.623
101.34,-140.03,-20.208
101.38,-143.083,-20.815
101.41,-146.312,-21.445
101.44,-149.821,-22.155
101.47,-153.085,-22.693
101.51,-156.174,-23.117
101.54,-159.087,-23.576
101.57,-161.859,-24.034
101.6,-164.702,-24.492
101.64,-167.615,-24.813
101.67,-170.352,-25.019
101.7,-172.774,-25.374
101.73,-175.511,-25.729
101.77,-178.214,-25.97
101.8,-180.74,-26.302
101.83,-183.408,-26.749
101.86,-186.04,-27.058
101.9,-188.356,-27.264
101.93,-190.602,-27.562
101.96,-192.848,-27.871
101.99,-195.129,-28.089
102.03,-197.165,-28.238
102.06,-199.271,-28.536
102.09,-201.482,-28.879
102.13,-203.658,-29.12
102.16,-205.693,-29.349
102.19,-207.729,-29.647
102.22,-209.624,-29.956
102.26,-211.624,-30.288
102.29,-213.73,-30.644
102.32,-215.871,-30.987
102.35,-217.941,-31.285
102.39,-219.907,-31.652
102.42,-221.767,-32.03
102.45,-223.697,-32.362
102.48,-225.592,-32.74
102.52,-227.522,-33.095
102.55,-229.417,-33.427
102.58,-231.137,-33.656
102.61,-232.681,-33.966
102.65,-234.296,-34.252
102.68,-236.296,-34.596
102.71,-238.226,-34.871
102.74,-239.735,-35.18
102.78,-241.174,-35.455
102.81,-242.613,-35.787
102.84,-244.368,-36.096
102.87,-246.123,-36.337
102.91,-247.807,-36.887
102.94,-249.738,-37.379
102.97,-251.422,-37.677
103.0,-252.966,-38.055
103.04,-254.826,-38.525
103.07,-256.581,-38.869
103.1,-258.09,-39.201
103.13,-259.705,-39.613
103.17,-261.354,-39.968
103.2,-262.688,-40.117
103.23,-263.565,-40.14
103.26,-264.548,-40.278
103.3,-265.706,-40.45
103.33,-266.969,-40.61
103.36,-268.233,-40.782
103.39,-269.391,-41.045
103.43,-270.689,-41.355
103.46,-271.848,-41.595
103.49,-272.865,-41.836
103.52,-273.778,-42.145
103.56,-274.866,-42.363
103.59,-275.883,-42.466
103.62,-276.831,-42.695
103.65,-278.024,-42.912
103.69,-278.867,-43.107
103.72,-279.604,-43.291
103.75,-280.341,-43.359
103.78,-281.183,-43.554
103.82,-281.709,-43.646
103.85,-282.13,-43.6
103.88,-282.903,-43.886
103.92,-283.745,-44.012
103.95,-284.131,-44.058
103.98,-284.412,-44.115
104.01,-285.219,-44.253
104.05,-285.851,-44.23
104.08,-285.464,-43.955
104.11,-285.324,-44.001
104.14,-285.745,-44.161
104.18,-285.886,-44.069
104.21,-285.745,-43.898
104.24,-285.675,-43.863
104.27,-285.464,-43.714
104.31,-284.973,-43.554
104.34,-284.482,-43.428
104.37,-284.341,-43.291
104.4,-284.131,-43.142
104.44,-283.429,-43.187
104.47,-283.078,-43.291
104.5,-283.043,-43.187
104.53,-282.411,-42.958
104.57,-281.358,-42.764
104.6,-280.516,-42.592
104.63,-279.674,-42.431
104.66,-279.077,-42.294
104.7,-278.34,-42.134
104.73,-277.393,-41.996
104.76,-276.48,-41.87
104.79,-275.462,-41.618
104.83,-274.164,-41.469
104.86,-273.146,-41.263
104.89,-272.023,-41.022
104.92,-270.76,-40.839
104.96,-269.531,-40.702
104.99,-268.478,-40.507
105.02,-267.426,-40.243
105.05,-265.846,-39.968
105.09,-264.056,-39.739
105.12,-262.723,-39.522
105.15,-261.319,-39.189
105.18,-259.529,-38.846
105.22,-257.88,-38.571
105.25,-256.476,-38.342
105.28,-254.861,-38.101
105.31,-252.861,-37.838
105.35,-251.071,-37.7
105.38,-249.738,-37.666
105.41,-248.334,-37.414
105.44,-246.614,-37.07
105.48,-244.789,-37.001
105.51,-243.315,-37.036
105.54,-241.911,-36.91
105.57,-240.262,-36.6
105.61,-238.226,-36.429
105.64,-235.945,-36.268
105.67,-233.945,-35.879
105.71,-231.944,-35.455
105.74,-230.049,-35.191
105.77,-228.294,-34.917
105.8,-226.364,-34.596
105.84,-224.258,-34.412
105.87,-222.363,-34.229
105.9,-220.433,-33.966
105.93,-218.327,-33.714
105.97,-216.327,-33.53
106.0,-214.326,-33.221
106.03,-212.291,-32.877
106.06,-209.904,-32.499
106.1,-207.307,-32.213
106.13,-205.167,-32.018
106.16,-203.271,-31.732
106.19,-201.096,-31.331
106.23,-199.06,-31.136
106.26,-197.025,-30.987
106.29,-194.778,-30.747
106.32,-192.532,-30.609
106.36,-190.637,-30.449
106.39,-188.496,-30.025
106.42,-185.689,-29.635
106.45,-182.951,-29.303
106.49,-180.67,-28.96
106.52,-178.108,-28.444
106.55,-175.23,-27.883
106.58,-172.212,-27.333
106.62,-169.58,-26.852
106.65,-166.737,-26.313
106.68,-163.684,-25.683
106.71,-161.052,-25.408
106.75,-158.525,-25.007
106.78,-155.823,-24.446
106.81,-152.629,-23.976
106.84,-149.471,-23.667
106.88,-146.452,-23.186
106.91,-143.294,-22.533
106.94,-140.03,-21.937
106.97,-136.661,-21.296
107.01,-133.186,-20.677
107.04,-130.098,-20.219
107.07,-127.185,-19.635
107.1,-124.026,-18.97
107.14,-120.587,-18.547
107.17,-117.429,-18.214
107.2,-114.481,-17.722
107.23,-111.357,-17.241
107.27,-108.093,-16.851
107.3,-104.865,-16.462
107.33,-101.811,-16.061
107.36,-98.898,-15.671
107.4,-95.74,-15.224
107.43,-92.546,-14.881
107.46,-89.458,-14.468
107.49,-86.404,-14.056
107.53,-83.281,-13.701
107.56,-80.263,-13.231
107.59,-76.753,-12.578
107.63,-73.174,-12.04
107.66,-69.769,-11.547
107.69,-66.47,-10.94
107.72,-63.031,-10.264
107.76,-59.451,-9.668
107.79,-55.766,-9.164
107.82,-52.467,-8.615
107.85,-48.993,-8.042
107.89,-45.624,-7.354
107.92,-41.553,-6.736
107.95,-38.675,-6.14
107.98,-39.201,-4.617
108.02,-44.08,-0.642
108.05,-35.692,2.303
108.08,-24.11,0.607
108.11,-25.269,0.0
108.15,-23.128,0.779
108.18,-17.688,0.905
108.21,-11.687,0.871
108.24,-6.984,0.687
108.28,-3.229,0.676
108.31,1.228,0.825
108.34,4.562,0.389
108.37,4.633,0.241
108.41,7.335,0.836
108.44,12.704,0.859
108.47,16.109,0.939
108.5,19.934,1.627
108.54,25.198,2.692
108.57,31.621,3.551
108.6,37.482,3.849
108.63,40.289,4.135
108.67,40.956,4.995
108.7,42.22,6.289
108.73,45.097,6.931
108.76,48.361,6.61
108.8,50.853,6.129
108.83,52.994,6.14
108.86,56.117,6.507
108.89,60.258,6.988
108.93,64.786,7.503
108.96,68.892,8.179
108.99,72.472,9.038
109.02,75.771,9.955
109.06,78.964,10.814
109.09,82.123,11.501
109.12,85.141,11.937
109.15,87.984,12.223
109.19,90.967,12.59
109.22,94.266,13.059
109.25,97.845,13.403
109.28,101.425,13.85
109.32,104.794,14.468
109.35,108.374,15.179
109.38,111.884,15.889
109.42,115.358,16.553
109.45,118.657,17.103
109.48,121.71,17.687
109.51,124.553,18.191
109.55,127.817,18.741
109.58,131.186,19.211
109.61,134.485,19.578
109.64,137.749,20.013
109.68,140.802,20.505
109.71,143.575,20.941
109.74,146.242,21.319
109.77,149.19,21.834
109.81,152.208,22.155
109.84,154.91,22.327
109.87,157.472,22.625
109.9,160.21,23.117
109.94,163.333,23.553
109.97,166.246,23.931
110.0,168.983,24.4
110.03,171.756,24.927
110.07,174.564,25.351
110.1,177.336,25.809
110.13,179.968,26.313
110.16,182.671,26.772
110.2,185.443,27.115
110.23,187.865,27.505
110.26,190.321,27.848
110.29,192.638,28.135
110.33,194.954,28.444
110.36,197.2,28.788
110.39,199.762,29.097
110.42,202.008,29.269
110.46,203.833,29.532
110.49,205.693,29.807
110.52,207.729,29.956
110.55,209.413,29.91
110.59,211.343,30.231
110.62,213.8,30.793
110.65,216.362,31.113
110.68,218.398,31.423
110.72,220.222,31.904
110.75,222.328,32.488
110.78,224.574,32.958
110.81,226.855,33.37
110.85,229.031,33.817
110.88,230.927,34.16
110.91,233.032,34.596
110.94,235.138,35.008
110.98,236.963,35.237
111.01,238.402,35.524
111.04,240.051,35.741
111.07,241.455,35.821
111.11,242.789,35.948
111.14,244.193,36.074
111.17,245.491,36.131
111.21,246.825,36.245
111.24,248.264,36.474
111.27,249.738,36.761
111.3,251.282,36.979
111.34,252.721,37.276
111.37,254.3,37.712
111.4,256.09,38.067
111.43,257.634,38.399
111.47,259.073,38.869
111.5,260.652,39.281
111.53,262.161,39.59
111.56,263.144,39.659
111.6,263.846,39.774
111.63,264.864,39.957
111.66,266.092,40.049
111.69,267.355,40.209
111.73,268.373,40.541
111.76,269.637,40.873
111.79,270.97,41.103
111.82,272.093,41.366
111.86,273.216,41.71
111.89,274.339,42.065
111.92,275.603,42.443
111.95,277.007,42.798
111.99,278.2,43.107
112.02,279.358,43.405
112.05,280.305,43.646
112.08,281.288,43.806
112.12,281.92,43.886
112.15,282.516,43.932
112.18,283.078,43.932
112.21,283.85,44.047
112.25,284.763,44.23
112.28,284.798,44.069
112.31,285.043,44.184
112.34,285.745,44.322
112.38,286.131,44.138
112.41,285.886,44.047
112.44,285.675,43.921
112.47,285.886,43.909
112.51,286.026,43.795
112.54,285.675,43.634
112.57,285.254,43.565
112.6,285.043,43.497
112.64,284.868,43.313
112.67,284.447,43.107
112.7,283.955,42.981
112.73,283.604,42.97
112.77,283.429,42.924
112.8,283.148,42.878
112.83,282.516,42.844
112.86,282.166,42.809
112.9,282.095,42.935
112.93,281.358,42.752
112.96,280.235,42.557
113.0,279.604,42.626
113.03,279.533,42.603
113.06,278.796,42.351
113.09,277.814,42.225
113.13,276.901,42.111
113.16,276.094,42.007
113.19,274.866,41.652
113.22,273.181,41.206
113.26,271.812,40.965
113.29,270.689,40.667
113.32,269.25,40.335
113.35,267.847,40.129
113.39,266.443,39.877
113.42,265.039,39.682
113.45,263.6,39.499
113.48,262.091,39.189
113.52,260.406,39.006
113.55,259.248,38.949
113.58,258.16,38.857
113.61,256.581,38.559
113.65,254.265,38.193
113.68,252.264,37.872
113.71,251.036,37.815
113.74,249.562,37.448
113.78,247.316,37.024
113.81,244.824,36.715
113.84,242.999,36.463
113.87,241.455,36.188
113.91,239.349,35.799
113.94,237.068,35.535
113.97,235.208,35.524
114.0,233.98,35.421
114.04,232.646,35.203
114.07,231.137,35.157
114.1,229.698,35.375
114.13,228.4,35.501
114.17,226.785,35.455
114.2,224.75,35.295
114.23,222.714,35.1
114.26,220.714,34.756
114.3,218.433,34.229
114.33,215.73,33.702
114.36,213.168,33.324
114.39,210.957,32.855
114.43,208.536,32.305
114.46,206.044,31.835
114.49,203.728,31.491
114.52,201.622,31.159
114.56,199.586,30.976
114.59,197.551,30.838
114.62,195.34,30.632
114.65,193.024,30.392
114.69,190.672,30.185
114.72,188.356,29.876
114.75,185.794,29.452
114.78,183.127,29.063
114.82,180.67,28.673
114.85,178.073,28.307
114.88,175.476,27.848
114.92,172.633,27.299
114.95,169.791,26.84
114.98,166.983,26.474
115.01,164.14,25.878
115.05,161.263,25.317
115.08,158.455,24.939
115.11,155.647,24.435
115.14,152.489,23.885
115.18,149.225,23.495
115.21,146.242,23.071
115.24,143.469,22.522
115.27,140.521,22.04
115.31,137.328,21.559
115.34,134.099,21.021
115.37,130.94,20.54
115.4,127.817,20.013
115.44,124.448,19.463
115.47,121.254,19.016
115.5,118.095,18.421
115.53,114.761,17.779
115.57,111.287,17.309
115.6,108.058,16.966
115.63,105.005,16.473
115.66,101.917,15.98
115.7,98.618,15.522
115.73,95.143,15.041
115.76,91.774,14.571
115.79,88.545,14.113
115.83,85.492,13.598
115.86,82.298,13.151
115.89,79.14,12.773
115.92,76.016,12.349
115.96,72.893,11.948
115.99,69.559,11.627
116.02,66.365,11.238
116.05,63.101,10.791
116.09,59.837,10.333
116.12,56.398,9.886
116.15,53.169,9.359
116.18,49.66,8.855
116.22,46.501,8.225
116.25,42.781,7.675
116.28,40.921,6.885
116.31,42.957,4.754
116.35,47.414,0.389
116.38,37.938,-2.154
116.41,27.62,-0.355
116.44,28.848,-0.046
116.48,24.847,-0.974
116.51,17.091,-1.042
116.54,9.616,-0.916
116.57,3.615,-0.779
116.61,-1.579,-0.676
