Trigger_Date,2023/08/25
Trigger_Time,T 09:50:43.066 PDT
Samples_Per_Cycle,512
Microseconds_Per_Sample,32.549
Time (ms),Voltage (V),Current (A)
-16.66,4.036,0.275
-16.63,6.422,0.733
-16.6,10.599,0.676
-16.57,13.406,0.573
-16.53,16.319,1.02
-16.5,20.496,1.879
-16.47,25.795,2.749
-16.44,31.48,3.07
-16.4,35.657,2.99
-16.37,37.622,3.299
-16.34,38.745,4.25
-16.31,40.71,5.201
-16.27,43.904,5.625
-16.24,46.957,5.567
-16.21,49.59,5.499
-16.18,52.362,5.739
-16.14,55.731,6.232
-16.11,59.662,6.759
-16.08,63.593,7.274
-16.05,67.172,7.95
-16.01,70.506,8.775
-15.98,73.84,9.623
-15.95,77.28,10.356
-15.92,80.579,10.906
-15.88,83.632,11.341
-15.85,86.51,11.811
-15.82,89.598,12.28
-15.79,93.002,12.681
-15.75,96.477,13.094
-15.72,99.776,13.586
-15.69,103.215,14.216
-15.66,106.795,14.904
-15.62,110.339,15.511
-15.59,113.708,16.095
-15.56,116.867,16.782
-15.53,120.061,17.447
-15.49,123.395,17.997
-15.46,126.694,18.501
-15.43,129.958,19.028
-15.4,132.906,19.486
-15.36,136.169,20.001
-15.33,139.539,20.563
-15.3,142.697,20.918
-15.27,145.61,21.422
-15.23,148.558,21.926
-15.2,151.611,22.361
-15.17,154.594,22.819
-15.14,157.718,23.312
-15.1,160.841,23.839
-15.07,163.824,24.32
-15.04,166.632,24.778
-15.0,169.44,25.225
-14.97,172.142,25.672
-14.94,174.844,25.935
-14.91,177.301,26.199
-14.87,179.863,26.565
-14.84,182.6,26.84
-14.81,184.952,27.035
-14.78,187.163,27.333
-14.74,189.339,27.654
-14.71,191.69,27.86
-14.68,193.831,28.02
-14.65,195.937,28.215
-14.61,198.077,28.433
-14.58,200.218,28.673
-14.55,202.359,28.96
-14.52,204.395,29.269
-14.48,206.5,29.532
-14.45,208.536,29.75
-14.42,210.326,30.002
-14.39,212.01,30.403
-14.35,214.186,30.838
-14.32,216.397,31.171
-14.29,218.538,31.549
-14.26,220.679,32.053
-14.22,222.644,32.419
-14.19,224.329,32.797
-14.16,226.364,33.278
-14.13,228.575,33.633
-14.09,230.54,33.908
-14.06,232.365,34.309
-14.03,234.015,34.596
-14.0,235.77,34.894
-13.96,237.56,35.26
-13.93,239.384,35.535
-13.9,240.929,35.81
-13.87,242.473,36.188
-13.83,244.263,36.543
-13.8,246.158,36.83
-13.77,247.842,37.105
-13.74,249.422,37.46
-13.7,250.79,37.792
-13.67,252.44,38.136
-13.64,254.23,38.479
-13.61,255.984,38.674
-13.57,257.353,38.892
-13.54,258.546,39.281
-13.51,260.126,39.682
-13.48,261.74,39.957
-13.44,262.933,40.026
-13.41,263.846,40.186
-13.38,265.109,40.472
-13.34,266.548,40.656
-13.31,267.776,40.805
-13.28,269.005,41.08
-13.25,270.163,41.355
-13.21,271.356,41.618
-13.18,272.479,41.893
-13.15,273.637,42.214
-13.12,274.831,42.42
-13.08,276.059,42.626
-13.05,277.077,42.844
-13.02,278.024,43.13
-12.99,278.972,43.371
-12.95,279.884,43.382
-12.92,280.481,43.497
-12.89,281.218,43.623
-12.86,281.709,43.657
-12.82,282.025,43.657
-12.79,282.832,43.795
-12.76,283.534,43.921
-12.73,283.745,43.795
-12.69,283.99,43.829
-12.66,284.271,43.806
-12.63,284.201,43.669
-12.6,283.78,43.451
-12.56,283.78,43.462
-12.53,284.201,43.508
-12.5,284.517,43.451
-12.47,284.657,43.543
-12.43,284.868,43.795
-12.4,285.114,43.921
-12.37,285.289,44.024
-12.34,285.5,44.104
-12.3,285.71,44.23
-12.27,285.815,44.344
-12.24,285.956,44.528
-12.21,285.71,44.493
-12.17,284.973,44.333
-12.14,284.377,44.069
-12.11,283.85,43.817
-12.08,282.762,43.394
-12.04,281.323,42.89
-12.01,280.341,42.683
-11.98,279.814,42.523
-11.95,278.761,42.145
-11.91,277.533,41.813
-11.88,276.234,41.652
-11.85,275.287,41.309
-11.82,274.023,41.045
-11.78,272.339,40.77
-11.75,270.97,40.61
-11.72,269.987,40.358
-11.68,268.584,40.106
-11.65,267.11,39.911
-11.62,265.776,39.728
-11.59,264.372,39.464
-11.55,262.758,39.247
-11.52,261.319,39.109
-11.49,259.915,38.937
-11.46,258.441,38.766
-11.42,256.932,38.617
-11.39,255.423,38.433
-11.36,253.949,38.262
-11.33,252.264,37.998
-11.29,250.545,37.712
-11.26,248.825,37.54
-11.23,247.105,37.322
-11.2,245.28,37.047
-11.16,243.315,36.795
-11.13,241.631,36.646
-11.1,239.665,36.268
-11.07,237.489,35.948
-11.03,235.98,35.959
-11.0,234.717,35.799
-10.97,232.857,35.455
-10.94,230.856,35.386
-10.9,229.382,35.432
-10.87,227.768,35.226
-10.84,225.592,34.974
-10.81,223.346,34.848
-10.77,221.451,34.653
-10.74,219.661,34.229
-10.71,217.345,33.863
-10.68,215.063,33.588
-10.64,212.923,33.347
-10.61,211.028,33.026
-10.58,208.781,32.648
-10.55,206.465,32.385
-10.51,204.43,32.179
-10.48,202.429,31.801
-10.45,200.218,31.514
-10.42,197.867,31.342
-10.38,195.656,31.148
-10.35,193.515,30.815
-10.32,191.199,30.483
-10.29,188.567,30.14
-10.25,186.075,29.75
-10.22,183.583,29.28
-10.19,181.021,28.834
-10.16,178.389,28.467
-10.12,175.897,28.032
-10.09,173.125,27.516
-10.06,170.247,27.069
-10.02,167.685,26.714
-9.99,164.772,26.107
-9.96,161.613,25.569
-9.93,158.56,25.191
-9.89,155.823,24.687
-9.86,152.98,24.217
-9.83,150.102,23.759
-9.8,147.119,23.346
-9.76,144.031,22.831
-9.73,141.013,22.361
-9.7,138.065,21.834
-9.67,134.941,21.273
-9.63,131.747,20.838
-9.6,128.624,20.391
-9.57,125.5,19.83
-9.54,122.202,19.314
-9.5,118.903,18.799
-9.47,115.569,18.214
-9.44,112.375,17.71
-9.41,109.392,17.321
-9.37,106.479,16.874
-9.34,103.426,16.45
-9.31,100.337,16.061
-9.28,97.038,15.591
-9.24,93.704,15.156
-9.21,90.44,14.743
-9.18,87.177,14.239
-9.15,83.948,13.735
-9.11,80.719,13.197
-9.08,77.139,12.681
-9.05,73.77,12.223
-9.02,70.647,11.834
-8.98,67.734,11.261
-8.95,64.33,10.677
-8.92,60.82,10.195
-8.89,57.31,9.794
-8.85,54.327,9.348
-8.82,51.028,8.855
-8.79,47.765,8.282
-8.76,43.764,7.767
-8.72,41.026,7.24
-8.69,41.553,5.682
-8.66,46.852,1.81
-8.63,42.044,-2.062
-8.59,28.217,-1.031
-8.56,27.831,0.241
-8.53,26.427,-0.825
-8.5,18.706,-1.134
-8.46,11.09,-0.939
-8.43,4.878,-0.825
-8.4,-0.983,-0.825
-8.36,-4.141,-0.218
-8.33,-3.825,-0.229
-8.3,-6.914,-0.642
-8.27,-9.195,-0.733
-8.23,-10.915,-1.501
-8.2,-16.319,-1.959
-8.17,-21.829,-2.154
-8.14,-27.304,-2.463
-8.1,-32.217,-2.772
-8.07,-36.394,-3.116
-8.04,-38.885,-3.746
-8.01,-40.746,-4.685
-7.97,-42.641,-5.487
-7.94,-44.817,-5.888
-7.91,-47.273,-6.003
-7.88,-50.116,-6.014
-7.84,-53.169,-6.037
-7.81,-56.468,-6.14
-7.78,-59.872,-6.438
-7.75,-63.628,-6.988
-7.71,-67.453,-7.618
-7.68,-71.068,-8.248
-7.65,-74.051,-8.89
-7.62,-76.753,-9.611
-7.58,-79.842,-10.367
-7.55,-83.211,-10.917
-7.52,-86.545,-11.261
-7.49,-89.598,-11.708
-7.45,-92.686,-12.177
-7.42,-95.915,-12.681
-7.39,-99.425,-13.277
-7.36,-103.004,-13.941
-7.32,-106.444,-14.537
-7.29,-109.743,-15.236
-7.26,-113.042,-15.98
-7.23,-116.586,-16.588
-7.19,-120.026,-17.08
-7.16,-123.254,-17.745
-7.13,-126.237,-18.272
-7.1,-129.572,-18.867
-7.06,-132.941,-19.52
-7.03,-136.275,-19.921
-7.0,-139.293,-20.471
-6.97,-142.206,-20.987
-6.93,-145.329,-21.422
-6.9,-148.734,-21.846
-6.87,-151.752,-22.224
-6.84,-154.349,-22.602
-6.8,-157.086,-23.186
-6.77,-160.245,-23.759
-6.74,-163.298,-24.137
-6.7,-166.176,-24.423
-6.67,-168.948,-24.767
-6.64,-171.475,-25.111
-6.61,-173.967,-25.454
-6.57,-176.634,-25.821
-6.54,-179.442,-26.187
-6.51,-182.144,-26.485
-6.48,-184.671,-26.84
-6.44,-187.022,-27.299
-6.41,-189.619,-27.757
-6.38,-192.287,-28.1
-6.35,-194.568,-28.398
-6.31,-196.674,-28.753
-6.28,-199.06,-29.189
-6.25,-201.552,-29.487
-6.22,-203.833,-29.658
-6.18,-205.728,-29.922
-6.15,-207.729,-30.254
-6.12,-209.694,-30.472
-6.09,-211.694,-30.678
-6.05,-213.554,-30.919
-6.02,-215.379,-31.182
-5.99,-217.38,-31.491
-5.96,-219.591,-31.789
-5.92,-221.451,-32.007
-5.89,-223.065,-32.305
-5.86,-224.89,-32.66
-5.83,-226.785,-33.003
-5.79,-228.716,-33.347
-5.76,-230.54,-33.668
-5.73,-232.155,-33.943
-5.7,-233.98,-34.435
-5.66,-235.945,-34.848
-5.63,-237.77,-35.02
-5.6,-239.244,-35.329
-5.57,-241.034,-35.799
-5.53,-243.069,-36.154
-5.5,-244.684,-36.452
-5.47,-246.193,-36.852
-5.44,-247.878,-37.299
-5.4,-249.702,-37.597
-5.37,-251.282,-37.792
-5.34,-252.545,-38.055
-5.31,-253.879,-38.376
-5.27,-255.458,-38.72
-5.24,-257.283,-38.949
-5.21,-258.792,-39.189
-5.18,-259.95,-39.59
-5.14,-261.389,-39.957
-5.11,-262.582,-40.117
-5.08,-263.705,-40.266
-5.05,-264.934,-40.484
-5.01,-266.267,-40.679
-4.98,-267.531,-40.896
-4.95,-268.654,-41.148
-4.91,-269.637,-41.469
-4.88,-270.724,-41.778
-4.85,-272.058,-41.973
-4.82,-273.251,-42.156
-4.78,-274.304,-42.466
-4.75,-275.392,-42.775
-4.72,-276.62,-43.016
-4.69,-277.568,-43.291
-4.65,-278.551,-43.531
-4.62,-279.428,-43.669
-4.59,-280.13,-43.726
-4.56,-280.867,-43.817
-4.52,-281.358,-43.84
-4.49,-281.744,-43.921
-4.46,-282.306,-44.012
-4.43,-282.903,-44.012
-4.39,-283.464,-44.115
-4.36,-283.85,-44.161
-4.33,-284.306,-44.207
-4.3,-284.903,-44.173
-4.26,-285.114,-44.127
-4.23,-284.868,-44.115
-4.2,-284.798,-44.218
-4.17,-285.114,-44.253
-4.13,-285.254,-44.092
-4.1,-285.043,-43.943
-4.07,-284.657,-43.817
-4.04,-284.201,-43.669
-4.0,-283.71,-43.52
-3.97,-283.499,-43.417
-3.94,-283.359,-43.348
-3.91,-283.078,-43.348
-3.87,-282.762,-43.325
-3.84,-282.306,-43.359
-3.81,-281.744,-43.302
-3.78,-281.148,-43.176
-3.74,-280.481,-42.958
-3.71,-279.639,-42.786
-3.68,-278.972,-42.672
-3.65,-278.235,-42.569
-3.61,-277.357,-42.5
-3.58,-276.726,-42.363
-3.55,-275.638,-42.134
-3.52,-274.234,-41.985
-3.48,-273.111,-41.801
-3.45,-272.234,-41.538
-3.42,-271.216,-41.274
-3.39,-269.952,-41.08
-3.35,-268.689,-40.919
-3.32,-267.706,-40.77
-3.29,-266.478,-40.484
-3.25,-264.864,-40.14
-3.22,-263.179,-39.923
-3.19,-261.67,-39.671
-3.16,-260.196,-39.396
-3.12,-258.617,-39.109
-3.09,-257.072,-38.869
-3.06,-255.669,-38.674
-3.03,-254.019,-38.376
-2.99,-252.159,-38.147
-2.96,-250.439,-38.055
-2.93,-249.106,-37.872
-2.9,-247.491,-37.62
-2.86,-245.421,-37.368
-2.83,-243.491,-37.15
-2.8,-241.946,-36.99
-2.77,-240.262,-36.738
-2.73,-238.297,-36.486
-2.7,-236.436,-36.268
-2.67,-234.787,-36.062
-2.64,-232.927,-35.741
-2.6,-230.821,-35.466
-2.57,-228.716,-35.306
-2.54,-226.82,-35.043
-2.51,-224.785,-34.71
-2.47,-222.749,-34.412
-2.44,-220.609,-34.126
-2.41,-218.468,-33.897
-2.38,-216.432,-33.599
-2.34,-214.291,-33.278
-2.31,-212.537,-33.141
-2.28,-210.677,-32.9
-2.25,-208.36,-32.58
-2.21,-206.219,-32.396
-2.18,-204.395,-32.27
-2.15,-202.324,-32.007
-2.12,-200.183,-31.824
-2.08,-198.218,-31.675
-2.05,-196.217,-31.434
-2.02,-193.936,-31.125
-1.99,-191.585,-30.77
-1.95,-189.093,-30.357
-1.92,-186.426,-29.899
-1.89,-183.618,-29.418
-1.86,-181.232,-28.925
-1.82,-178.74,-28.444
-1.79,-175.862,-27.963
-1.76,-172.844,-27.447
-1.73,-169.966,-27.012
-1.69,-167.369,-26.565
-1.66,-164.597,-25.97
-1.63,-161.333,-25.363
-1.59,-158.455,-25.088
-1.56,-155.823,-24.652
-1.53,-152.769,-23.965
-1.5,-149.611,-23.576
-1.46,-146.593,-23.083
-1.43,-143.645,-22.579
-1.4,-140.486,-22.075
-1.37,-137.257,-21.514
-1.33,-134.099,-21.044
-1.3,-131.186,-20.574
-1.27,-128.203,-20.024
-1.24,-124.939,-19.532
-1.2,-121.64,-19.131
-1.17,-118.446,-18.684
-1.14,-115.393,-18.168
-1.11,-112.41,-17.722
-1.07,-109.322,-17.286
-1.04,-106.233,-16.817
-1.01,-103.04,-16.404
-0.98,-99.706,-15.969
-0.94,-96.407,-15.476
-0.91,-93.353,-15.007
-0.88,-90.16,-14.514
-0.85,-86.896,-13.953
-0.81,-83.562,-13.392
-0.78,-80.087,-12.945
-0.75,-76.648,-12.475
-0.72,-73.384,-12.005
-0.68,-70.085,-11.398
-0.65,-66.576,-10.803
-0.62,-63.101,-10.241
-0.59,-59.802,-9.749
-0.55,-56.538,-9.187
-0.52,-53.204,-8.66
-0.49,-49.8,-8.214
-0.46,-46.536,-7.813
-0.42,-42.992,-7.286
-0.39,-39.833,-6.816
-0.36,-39.236,-5.705
-0.33,-43.694,-2.681
-0.29,-43.027,1.512
-0.26,-29.41,1.627
-0.23,-25.97,-0.115
-0.2,-26.076,0.642
-0.16,-19.232,1.191
-0.13,-11.195,1.088
-0.1,-4.633,0.882
-0.07,0.912,0.836
-0.03,4.071,0.355
0.0,4.317,0.298
0.03,6.914,0.745
0.07,11.055,0.653
0.1,14.003,0.596
0.13,17.021,1.134
0.16,21.443,2.096
0.2,27.023,2.887
0.23,32.603,3.139
0.26,36.359,3.185
0.29,37.903,3.746
0.33,39.061,4.869
0.36,41.623,5.854
0.39,45.097,6.083
0.42,48.01,5.865
0.46,50.327,5.865
0.49,52.888,6.255
0.52,56.573,6.713
0.55,60.82,7.057
0.59,64.54,7.4
0.62,67.804,8.019
0.65,70.857,8.867
0.68,74.121,9.634
0.72,77.49,10.23
0.75,80.789,10.757
0.78,83.807,11.146
0.81,86.685,11.559
0.85,89.703,12.074
0.88,92.932,12.544
0.91,96.442,13.048
0.94,99.846,13.586
0.98,103.145,14.136
1.01,106.584,14.778
1.04,110.094,15.465
1.07,113.498,16.026
1.11,116.621,16.553
1.14,119.569,17.115
1.17,122.588,17.756
1.2,125.571,18.134
1.24,128.835,18.65
1.27,132.028,19.142
1.3,135.046,19.429
1.33,138.205,20.036
1.37,141.609,20.677
1.4,144.943,21.113
1.43,147.926,21.674
1.46,150.874,22.338
1.5,153.998,22.911
1.53,157.332,23.472
1.56,160.631,23.988
1.59,163.544,24.389
1.63,166.211,24.801
1.66,168.878,25.259
1.69,171.651,25.66
1.73,174.318,25.935
1.76,176.845,26.245
1.79,179.407,26.588
1.82,182.249,26.989
1.86,184.987,27.299
1.89,187.408,27.551
1.92,189.479,27.871
1.95,191.76,28.215
1.99,194.041,28.387
2.02,196.217,28.513
2.05,198.288,28.731
2.08,200.359,28.937
2.12,202.57,29.166
2.15,204.675,29.487
2.18,206.746,29.739
2.21,208.711,29.991
2.25,210.641,30.334
2.28,212.747,30.724
2.31,214.818,31.045
2.34,216.924,31.388
2.38,218.924,31.778
2.41,220.854,32.213
2.44,222.574,32.522
2.47,224.574,32.774
2.51,226.54,33.084
2.54,228.435,33.416
2.57,230.26,33.782
2.6,231.979,34.08
2.64,233.875,34.55
2.67,236.015,35.02
2.7,237.946,35.226
2.73,239.384,35.524
2.77,240.964,35.97
2.8,242.964,36.383
2.83,244.649,36.6
2.86,246.088,36.852
2.9,247.772,37.265
2.93,249.597,37.586
2.96,251.247,37.78
2.99,252.51,38.032
3.03,254.019,38.422
3.06,255.669,38.72
3.09,257.248,38.926
3.12,258.687,39.224
3.16,260.231,39.567
3.19,261.6,39.854
3.22,262.688,39.98
3.25,263.741,40.163
3.29,264.969,40.404
3.32,266.302,40.633
3.35,267.601,40.873
3.39,268.794,41.16
3.42,269.952,41.435
3.45,271.181,41.675
3.48,272.339,41.859
3.52,273.427,42.122
3.55,274.585,42.408
3.58,275.708,42.603
3.61,276.726,42.89
3.65,277.884,43.187
3.68,278.972,43.325
3.71,279.709,43.428
3.74,280.481,43.611
3.78,281.183,43.657
3.81,281.639,43.669
3.84,282.025,43.68
3.87,282.903,43.84
3.91,283.64,43.932
3.94,283.885,43.829
3.97,284.096,43.978
4.0,284.587,44.115
4.04,284.868,44.001
4.07,284.763,43.898
4.1,284.868,43.921
4.13,285.289,43.989
4.17,285.535,44.081
4.2,285.71,44.092
4.23,285.815,44.15
4.26,285.815,44.218
4.3,285.815,44.184
4.33,285.57,44.104
4.36,285.324,44.024
4.39,285.043,43.966
4.43,284.763,43.909
4.46,284.306,43.806
4.49,283.885,43.611
4.52,283.113,43.313
4.56,282.236,43.027
4.59,281.288,42.798
4.62,280.446,42.592
4.65,279.674,42.397
4.69,279.007,42.271
4.72,278.867,42.408
4.75,279.253,42.821
4.78,279.463,43.233
4.82,279.428,43.611
4.85,279.533,44.047
4.88,279.639,44.356
4.91,279.147,44.413
4.95,278.2,44.264
4.98,276.936,43.909
5.01,275.322,43.325
5.05,273.357,42.626
5.08,271.356,41.893
5.11,269.25,41.103
5.14,267.11,40.369
5.18,264.969,39.819
5.21,263.039,39.35
5.24,261.179,38.857
5.27,259.213,38.342
5.31,257.037,37.838
5.34,254.861,37.437
5.37,252.791,37.059
5.4,250.58,36.669
5.44,248.228,36.326
5.47,246.298,36.062
5.5,244.368,35.799
5.53,242.403,35.592
5.57,240.472,35.466
5.6,238.612,35.409
5.63,236.893,35.352
5.66,235.419,35.283
5.7,233.664,35.134
5.73,231.804,35.02
5.76,229.839,34.928
5.79,227.768,34.676
5.83,225.381,34.286
5.86,223.065,33.966
5.89,220.819,33.691
5.92,218.713,33.301
5.96,216.502,32.958
5.99,214.397,32.763
6.02,212.361,32.522
6.05,210.115,32.224
6.09,207.764,32.03
6.12,205.658,31.915
6.15,203.693,31.743
6.18,201.692,31.514
6.22,199.622,31.365
6.25,197.726,31.285
6.28,195.691,31.102
6.31,193.234,30.804
6.35,190.848,30.609
6.38,188.602,30.346
6.41,186.25,29.888
6.44,183.688,29.441
6.48,181.056,29.086
6.51,178.6,28.776
6.54,175.932,28.295
6.57,173.055,27.722
6.61,170.317,27.31
6.64,167.65,26.84
6.67,164.702,26.199
6.7,161.438,25.626
6.74,158.595,25.214
6.77,156.068,24.79
6.8,152.98,24.137
6.84,149.4,23.541
6.87,146.172,23.14
6.9,143.539,22.762
6.93,140.662,22.086
6.97,137.222,21.433
7.0,133.678,21.021
7.03,130.73,20.689
7.06,127.887,20.082
7.1,124.588,19.348
7.13,120.763,18.764
7.16,117.113,18.34
7.19,112.164,16.989
7.23,105.461,14.915
7.26,98.969,13.758
7.29,94.792,12.876
7.32,91.949,11.559
7.36,88.37,10.127
7.39,84.193,9.691
7.42,81.07,10.047
7.45,79.771,10.722
7.49,78.999,11.204
7.52,77.385,11.685
7.55,74.788,12.406
7.58,72.366,13.197
7.62,70.296,13.632
7.65,68.05,13.598
7.68,65.242,13.208
7.71,62.083,12.807
7.75,59.206,12.464
7.78,56.609,11.902
7.81,53.801,11.261
7.84,50.783,10.768
7.88,47.835,10.344
7.91,44.641,9.76
7.94,41.904,9.107
7.97,42.851,7.4
8.01,47.449,3.574
8.04,47.063,-1.363
8.07,32.042,-1.879
8.1,27.058,0.183
8.14,27.444,-0.573
8.17,20.215,-1.203
8.2,11.862,-1.02
8.23,5.299,-0.825
8.27,-0.211,-0.733
8.3,-3.053,-0.218
8.33,-2.632,-0.16
8.36,-4.457,-0.584
8.4,-8.177,-0.584
8.43,-10.529,-0.378
8.46,-13.161,-0.642
8.5,-17.267,-1.363
8.53,-22.461,-2.314
8.56,-28.708,-2.921
8.59,-34.604,-3.082
8.63,-38.78,-3.059
8.66,-40.64,-3.46
8.69,-41.728,-4.571
8.72,-43.729,-5.728
8.76,-46.782,-6.186
8.79,-49.765,-6.152
8.82,-52.327,-6.152
8.85,-54.959,-6.369
8.89,-58.153,-6.736
8.92,-62.048,-7.366
8.95,-66.576,-7.973
8.98,-70.787,-8.534
9.02,-74.191,-9.21
9.05,-77.209,-10.081
9.08,-80.403,-10.952
9.11,-83.983,-11.639
9.15,-87.317,-11.948
9.18,-90.089,-12.2
9.21,-92.686,-12.59
9.24,-95.494,-13.071
9.28,-98.863,-13.54
9.31,-102.373,-14.01
9.34,-105.882,-14.48
9.37,-109.392,-14.995
9.41,-112.761,-15.625
9.44,-115.814,-16.152
9.47,-118.762,-16.748
9.5,-121.956,-17.458
9.54,-125.325,-17.894
9.57,-128.378,-18.203
9.6,-131.081,-18.741
9.63,-134.204,-19.394
9.67,-137.608,-20.001
9.7,-141.188,-20.54
9.73,-144.487,-21.044
9.76,-147.47,-21.64
9.8,-150.523,-22.258
9.83,-153.752,-22.751
9.86,-156.735,-23.22
9.89,-159.543,-23.759
9.93,-162.421,-24.228
9.96,-165.193,-24.538
9.99,-167.966,-24.87
10.02,-170.738,-25.237
10.06,-173.37,-25.523
10.09,-175.967,-25.867
10.12,-178.81,-26.279
10.16,-181.583,-26.646
10.19,-184.074,-27.012
10.22,-186.496,-27.447
10.25,-189.128,-27.894
10.29,-191.83,-28.215
10.32,-194.182,-28.513
10.35,-196.252,-28.845
10.38,-198.639,-29.269
10.42,-201.236,-29.624
10.45,-203.622,-29.865
10.48,-205.693,-30.105
10.51,-207.764,-30.426
10.55,-209.729,-30.689
10.58,-211.589,-30.976
10.61,-213.66,-31.274
10.64,-215.836,-31.468
10.68,-217.836,-31.663
10.71,-219.626,-32.03
10.74,-221.486,-32.408
10.77,-223.627,-32.728
10.81,-225.627,-33.026
10.84,-227.487,-33.393
10.87,-229.382,-33.828
10.9,-231.383,-34.229
10.94,-233.313,-34.55
10.97,-235.103,-34.894
11.0,-236.928,-35.249
11.03,-238.577,-35.558
11.07,-240.437,-35.787
11.1,-242.262,-36.119
11.13,-243.947,-36.543
11.16,-245.561,-36.841
11.2,-247.141,-37.173
11.23,-248.965,-37.483
11.26,-250.545,-37.769
11.29,-251.808,-38.032
11.33,-253.142,-38.307
11.36,-254.861,-38.502
11.39,-256.335,-38.651
11.42,-257.529,-38.869
11.46,-258.757,-39.212
11.49,-260.406,-39.567
11.52,-261.81,-39.739
11.55,-262.793,-39.797
11.59,-263.705,-39.991
11.62,-264.828,-40.358
11.65,-266.267,-40.541
11.68,-267.601,-40.702
11.72,-268.619,-40.999
11.75,-269.987,-41.355
11.78,-271.251,-41.607
11.82,-272.269,-41.939
11.85,-273.427,-42.305
11.88,-274.48,-42.454
11.91,-275.462,-42.672
11.95,-276.656,-42.993
11.98,-277.638,-43.222
12.01,-278.516,-43.417
12.04,-279.323,-43.554
12.08,-279.955,-43.669
12.11,-280.727,-43.714
12.14,-281.218,-43.68
12.17,-281.639,-43.714
12.21,-282.201,-43.795
12.24,-282.727,-43.909
12.27,-283.253,-43.989
12.3,-283.64,-44.047
12.34,-283.92,-43.978
12.37,-283.815,-43.978
12.4,-283.85,-43.875
12.43,-283.78,-43.749
12.47,-283.885,-43.737
12.5,-283.99,-43.703
12.53,-283.955,-43.646
12.56,-283.675,-43.691
12.6,-283.604,-43.703
12.63,-283.534,-43.611
12.66,-283.253,-43.474
12.69,-283.078,-43.382
12.73,-282.903,-43.371
12.76,-282.692,-43.462
12.79,-282.552,-43.554
12.82,-282.481,-43.554
12.86,-282.025,-43.405
12.89,-280.972,-43.348
12.92,-280.376,-43.279
12.95,-280.025,-43.05
12.99,-279.323,-42.867
13.02,-278.2,-42.809
13.05,-277.638,-42.764
13.08,-277.217,-42.523
13.12,-275.919,-42.248
13.15,-274.585,-42.088
13.18,-273.532,-41.893
13.21,-272.514,-41.607
13.25,-271.391,-41.458
13.28,-270.233,-41.297
13.31,-269.075,-41.114
13.34,-267.952,-40.931
13.38,-266.583,-40.644
13.41,-264.969,-40.324
13.44,-263.284,-40.106
13.48,-261.845,-39.888
13.51,-260.582,-39.51
13.54,-258.827,-39.189
13.57,-257.143,-38.995
13.61,-255.774,-38.811
13.64,-254.23,-38.536
13.67,-252.475,-38.342
13.7,-250.931,-38.239
13.74,-249.632,-38.032
13.77,-248.018,-37.815
13.8,-246.333,-37.723
13.83,-244.789,-37.609
13.87,-243.245,-37.494
13.9,-241.35,-37.196
13.93,-239.595,-36.91
13.96,-237.805,-36.761
14.0,-235.77,-36.337
14.03,-233.453,-35.89
14.06,-231.207,-35.558
14.09,-229.347,-35.306
14.13,-227.277,-34.894
14.16,-225.031,-34.561
14.19,-222.82,-34.252
14.22,-220.889,-33.863
14.26,-219.029,-33.691
14.29,-217.134,-33.588
14.32,-215.274,-33.37
14.35,-213.274,-33.244
14.39,-211.378,-33.152
14.42,-209.273,-32.866
14.45,-206.851,-32.614
14.48,-204.71,-32.362
14.52,-202.57,-32.018
14.55,-200.359,-31.709
14.58,-198.148,-31.4
14.61,-195.866,-31.125
14.65,-193.761,-30.815
14.68,-191.339,-30.46
14.71,-188.812,-30.105
14.74,-186.32,-29.716
14.78,-183.723,-29.292
14.81,-181.126,-28.868
14.84,-178.74,-28.478
14.87,-176.108,-27.929
14.91,-173.335,-27.447
14.94,-170.493,-26.966
14.97,-167.825,-26.611
15.0,-164.948,-26.027
15.04,-161.649,-25.363
15.07,-158.56,-25.03
15.1,-155.893,-24.561
15.14,-153.261,-24.034
15.17,-150.278,-23.484
15.2,-146.803,-22.957
15.23,-143.539,-22.51
15.27,-140.521,-21.983
15.3,-137.503,-21.319
15.33,-134.134,-20.735
15.36,-130.8,-20.242
15.4,-127.747,-19.738
15.43,-124.693,-19.199
15.46,-121.5,-18.741
15.49,-118.236,-18.283
15.53,-114.972,-17.882
15.56,-111.989,-17.561
15.59,-109.216,-17.183
15.62,-106.303,-16.737
15.66,-103.145,-16.37
15.69,-99.986,-16.061
15.72,-96.933,-15.648
15.75,-93.739,-15.179
15.79,-90.37,-14.697
15.82,-87.071,-14.182
15.85,-83.702,-13.644
15.88,-80.403,-13.094
15.92,-77.104,-12.498
15.95,-73.665,-11.983
15.98,-70.331,-11.456
16.01,-66.997,-10.883
16.05,-63.487,-10.299
16.08,-60.118,-9.806
16.11,-56.749,-9.268
16.14,-53.38,-8.763
16.18,-49.976,-8.294
16.21,-46.782,-7.859
16.24,-43.413,-7.24
16.27,-39.973,-6.747
16.31,-39.236,-5.693
16.34,-43.939,-2.635
16.37,-42.921,1.695
16.4,-28.427,1.627
16.44,-25.023,-0.115
16.47,-24.777,0.699
16.5,-17.653,1.214
16.53,-9.581,1.065
16.57,-3.264,0.859
16.6,1.755,0.699
16.63,3.51,0.195
16.66,3.615,0.401
16.7,6.984,0.768
16.73,10.458,0.504
16.76,12.599,0.493
16.8,16.284,0.859
16.83,20.39,1.661
16.86,25.444,2.6
16.89,31.059,3.036
16.93,35.762,3.116
16.96,38.254,3.334
16.99,39.307,4.044
17.02,40.781,5.052
17.06,43.553,5.659
17.09,46.606,5.59
17.12,49.168,5.373
17.15,51.625,5.499
17.19,54.749,5.9
17.22,58.784,6.346
17.25,62.926,6.793
17.28,66.681,7.458
17.32,70.05,8.374
17.35,73.384,9.336
17.38,76.859,10.161
17.41,80.157,10.894
17.45,83.386,11.467
17.48,86.51,11.902
17.51,89.598,12.372
17.54,92.897,12.887
17.58,96.477,13.357
17.61,100.056,13.896
17.64,103.671,14.503
17.67,107.251,15.144
17.71,110.655,15.751
17.74,113.954,16.485
17.77,117.218,17.137
17.8,120.552,17.733
17.84,123.676,18.249
17.87,126.974,18.695
17.9,130.028,19.073
17.93,133.081,19.509
17.97,136.275,20.15
18.0,139.749,20.631
18.03,143.118,21.032
18.06,146.031,21.502
18.1,148.909,22.086
18.13,151.927,22.579
18.16,154.98,22.991
18.19,157.964,23.381
18.23,160.841,23.828
18.26,163.754,24.228
18.29,166.527,24.572
18.32,169.334,24.893
18.36,171.826,25.168
18.39,174.142,25.431
18.42,176.669,25.775
18.46,179.407,26.073
18.49,182.074,26.313
18.52,184.601,26.6
18.55,186.917,26.978
18.59,189.163,27.344
18.62,191.339,27.722
18.65,193.69,28.055
18.68,196.147,28.307
18.72,198.393,28.582
18.75,200.534,28.925
18.78,202.64,29.257
18.81,204.921,29.578
18.85,206.921,29.842
18.88,208.817,30.082
18.91,210.887,30.414
18.94,213.028,30.747
18.98,215.134,31.033
19.01,217.134,31.319
19.04,218.959,31.766
19.07,220.995,32.236
19.11,223.135,32.522
19.14,225.136,32.728
19.17,226.82,33.107
19.2,228.68,33.53
19.24,230.646,33.874
19.27,232.401,34.103
19.3,234.331,34.504
19.33,236.401,34.951
19.37,238.191,35.18
19.4,239.595,35.432
19.43,241.174,35.707
19.46,242.929,36.154
19.5,244.859,36.406
19.53,246.368,36.612
19.56,247.807,36.944
19.59,249.422,37.334
19.63,250.931,37.586
19.66,252.51,37.769
19.69,253.984,38.044
19.72,255.563,38.399
19.76,257.178,38.651
19.79,258.617,38.926
19.82,260.056,39.361
19.85,261.67,39.739
19.89,262.933,39.842
19.92,263.986,40.026
19.95,265.179,40.404
19.98,266.618,40.633
20.02,267.952,40.805
20.05,269.145,41.068
20.08,270.338,41.309
20.11,271.461,41.618
20.15,272.655,41.916
20.18,273.743,42.145
20.21,274.866,42.397
20.25,276.024,42.557
20.28,277.077,42.729
20.31,278.094,43.038
20.34,278.972,43.291
20.38,279.849,43.359
20.41,280.727,43.371
20.44,281.183,43.474
20.47,281.604,43.565
20.51,282.025,43.474
20.54,282.832,43.6
20.57,283.604,43.76
20.6,283.955,43.669
20.64,284.201,43.84
20.67,284.868,43.943
20.7,285.078,43.829
20.73,285.043,43.737
20.77,285.184,43.726
20.8,285.394,43.806
20.83,285.675,43.817
20.86,285.675,43.829
20.9,285.64,43.898
20.93,285.605,43.875
20.96,285.429,43.76
20.99,285.078,43.669
21.03,284.868,43.588
21.06,284.763,43.531
21.09,284.517,43.451
21.12,284.026,43.462
21.16,283.675,43.439
21.19,283.183,43.279
21.22,282.481,43.05
21.25,281.604,42.878
21.29,281.113,42.832
21.32,281.218,43.016
21.35,281.393,43.21
21.38,280.867,43.268
21.42,280.025,43.302
21.45,279.288,43.199
21.48,278.2,42.901
21.51,276.691,42.408
21.55,274.725,41.836
21.58,272.865,41.206
21.61,270.935,40.507
21.64,269.005,39.9
21.68,267.285,39.35
21.71,265.565,38.834
21.74,263.846,38.491
21.77,262.267,38.388
21.81,260.968,38.273
21.84,259.459,38.067
21.87,257.88,37.975
21.91,256.3,37.872
21.94,254.686,37.689
21.97,252.931,37.46
22.0,251.036,37.253
22.04,248.93,36.875
22.07,247.141,36.692
22.1,245.456,36.532
22.13,243.701,36.211
22.17,241.946,36.039
22.2,239.981,35.925
22.23,238.226,35.73
22.26,236.401,35.558
22.3,234.682,35.501
22.33,232.962,35.329
22.36,231.172,35.191
22.39,229.207,35.031
22.43,227.206,34.722
22.46,225.381,34.63
22.49,223.662,34.47
22.52,221.767,34.16
22.56,219.801,33.966
22.59,218.011,33.92
22.62,216.081,33.737
22.65,214.151,33.565
22.69,212.502,33.473
22.72,210.747,33.233
22.75,208.606,32.946
22.78,206.36,32.774
22.82,204.359,32.602
22.85,202.359,32.305
22.88,200.288,31.995
22.91,198.112,31.697
22.95,196.007,31.468
22.98,193.971,31.205
23.01,191.725,30.838
23.04,189.268,30.552
23.08,186.987,30.208
23.11,184.46,29.681
23.14,181.723,29.235
23.17,179.196,28.902
23.21,176.599,28.444
23.24,173.897,27.883
23.27,170.984,27.39
23.3,168.211,26.909
23.34,165.263,26.245
23.37,162.105,25.66
23.4,158.806,25.053
23.43,155.788,24.526
23.47,153.191,24.206
23.5,150.418,23.598
23.53,147.154,22.934
23.57,143.785,22.567
23.6,140.802,22.178
23.63,137.749,21.502
23.66,134.485,20.952
23.7,131.221,20.448
23.73,128.027,19.933
23.76,124.763,19.371
23.79,121.429,18.799
23.83,117.955,18.191
23.86,114.481,17.687
23.89,111.287,17.229
23.92,108.304,16.759
23.96,105.321,16.313
23.99,102.232,15.923
24.02,99.039,15.534
24.05,95.705,15.224
24.09,92.686,14.904
24.12,89.703,14.457
24.15,86.615,14.056
24.18,83.562,13.827
24.22,80.894,13.563
24.25,78.227,13.197
24.28,75.314,12.853
24.31,72.156,12.578
24.35,69.067,12.246
24.38,65.839,11.879
24.41,62.715,11.318
24.44,59.135,10.722
24.48,55.801,10.092
24.51,52.046,9.416
24.54,48.642,8.718
24.57,44.852,8.088
24.61,42.22,7.309
24.64,42.606,5.556
24.67,47.519,1.604
24.7,41.728,-2.165
24.74,27.795,-0.997
24.77,27.234,0.16
24.8,25.023,-0.894
24.83,17.372,-1.077
24.87,10.072,-0.916
24.9,3.51,-0.905
24.93,-2.281,-0.699
24.96,-3.966,-0.092
25.0,-4.036,-0.389
25.03,-7.826,-0.664
25.06,-8.809,-0.974
25.09,-11.652,-1.799
25.13,-17.372,-1.936
25.16,-22.531,-1.993
25.19,-27.444,-2.245
25.23,-31.937,-2.6
25.26,-35.692,-3.07
25.29,-38.289,-3.78
25.32,-40.324,-4.594
25.36,-42.395,-5.212
25.39,-44.746,-5.579
25.42,-47.449,-5.762
25.45,-50.256,-5.888
25.49,-53.345,-6.026
25.52,-56.819,-6.289
25.55,-60.399,-6.724
25.58,-64.189,-7.274
25.62,-67.944,-7.847
25.65,-71.349,-8.489
25.68,-74.472,-9.21
25.71,-77.631,-9.989
25.75,-80.754,-10.539
25.78,-83.913,-10.974
25.81,-86.931,-11.444
25.84,-90.054,-11.879
25.88,-93.178,-12.257
25.91,-96.442,-12.727
25.94,-99.811,-13.288
25.97,-103.32,-13.85
26.01,-106.619,-14.434
26.04,-109.918,-15.087
26.07,-113.217,-15.774
26.1,-116.446,-16.393
26.14,-119.64,-16.863
26.17,-122.728,-17.309
26.2,-125.851,-17.848
26.23,-128.975,-18.363
26.27,-132.063,-18.867
26.3,-135.503,-19.429
26.33,-138.872,-20.013
26.36,-141.89,-20.425
26.4,-144.733,-20.964
26.43,-147.891,-21.708
26.46,-151.576,-22.212
26.49,-154.875,-22.545
26.53,-157.578,-23.071
26.56,-160.28,-23.736
26.59,-163.368,-24.332
26.62,-166.632,-24.71
26.66,-169.58,-24.985
26.69,-172.002,-25.317
26.72,-174.458,-25.718
26.75,-177.02,-26.073
26.79,-179.933,-26.451
26.82,-182.741,-26.783
26.85,-185.303,-27.058
26.89,-187.689,-27.367
26.92,-190.005,-27.78
26.95,-192.497,-28.135
26.98,-194.989,-28.387
27.02,-197.235,-28.639
27.05,-199.341,-28.971
27.08,-201.587,-29.326
27.11,-203.903,-29.59
27.15,-206.149,-29.773
27.18,-208.009,-30.014
27.21,-209.834,-30.277
27.24,-211.765,-30.518
27.28,-213.8,-30.724
27.31,-215.695,-30.941
27.34,-217.485,-31.216
27.37,-219.345,-31.503
27.41,-221.275,-31.812
27.44,-223.03,-32.11
27.47,-224.82,-32.442
27.5,-226.645,-32.763
27.54,-228.68,-33.107
27.57,-230.505,-33.381
27.6,-232.225,-33.759
27.63,-234.12,-34.309
27.67,-236.121,-34.687
27.7,-237.805,-34.882
27.73,-239.174,-35.134
27.76,-240.929,-35.592
27.8,-242.754,-35.821
27.83,-244.122,-36.051
27.86,-245.561,-36.417
27.89,-247.456,-36.807
27.93,-249.036,-37.105
27.96,-250.334,-37.528
27.99,-252.089,-37.918
28.02,-253.879,-38.193
28.06,-255.388,-38.433
28.09,-256.792,-38.8
28.12,-258.441,-39.212
28.15,-260.231,-39.567
28.19,-261.705,-39.819
28.22,-262.793,-39.957
28.25,-263.846,-40.198
28.28,-265.074,-40.518
28.32,-266.443,-40.759
28.35,-267.671,-40.976
28.38,-269.005,-41.217
28.41,-270.198,-41.423
28.45,-271.251,-41.675
28.48,-272.339,-41.962
28.51,-273.602,-42.145
28.55,-274.725,-42.305
28.58,-275.568,-42.534
28.61,-276.656,-42.89
28.64,-277.954,-43.107
28.68,-278.867,-43.279
28.71,-279.533,-43.531
28.74,-280.411,-43.611
28.77,-281.078,-43.634
28.81,-281.639,-43.68
28.84,-282.166,-43.669
28.87,-282.727,-43.749
28.9,-282.973,-43.737
28.94,-283.71,-44.047
28.97,-284.587,-44.081
29.0,-284.903,-44.012
29.03,-284.868,-44.173
29.07,-284.903,-43.989
29.1,-284.903,-43.989
29.13,-285.254,-44.012
29.16,-285.464,-43.886
29.2,-285.078,-43.783
29.23,-284.692,-43.795
29.26,-284.657,-43.68
29.29,-284.482,-43.417
29.33,-283.745,-43.256
29.36,-283.289,-43.176
29.39,-283.148,-43.096
29.42,-282.938,-43.027
29.46,-282.516,-42.981
29.49,-282.025,-42.947
29.52,-281.429,-42.89
29.55,-280.832,-42.775
29.59,-280.025,-42.638
29.62,-279.323,-42.512
29.65,-278.831,-42.351
29.68,-278.165,-42.191
29.72,-277.252,-42.088
29.75,-276.585,-42.007
29.78,-275.638,-41.813
29.81,-274.48,-41.664
29.85,-273.322,-41.492
29.88,-272.198,-41.263
29.91,-271.181,-41.022
29.94,-269.882,-40.816
29.98,-268.549,-40.679
30.01,-267.496,-40.541
30.04,-266.267,-40.255
30.07,-264.548,-39.957
30.11,-262.968,-39.762
30.14,-261.81,-39.476
30.17,-260.301,-39.167
30.21,-258.582,-38.96
30.24,-257.002,-38.788
30.27,-255.388,-38.559
30.3,-253.773,-38.296
30.34,-252.054,-37.964
30.37,-250.475,-37.792
30.4,-248.755,-37.563
30.43,-246.895,-37.311
30.47,-244.965,-37.127
30.5,-243.28,-36.91
30.53,-241.666,-36.681
30.56,-239.806,-36.417
30.6,-237.77,-36.154
30.63,-236.015,-35.948
30.66,-234.331,-35.776
30.69,-232.541,-35.524
30.73,-230.681,-35.295
30.76,-228.961,-35.214
30.79,-227.242,-35.077
30.82,-225.381,-34.813
30.86,-223.416,-34.596
30.89,-221.416,-34.378
30.92,-219.45,-34.103
30.95,-217.099,-33.794
30.99,-214.958,-33.45
31.02,-213.414,-33.336
31.05,-211.273,-32.866
31.08,-208.571,-32.431
31.12,-206.184,-32.293
31.15,-204.149,-31.938
31.18,-202.148,-31.663
31.21,-200.078,-31.491
31.25,-197.972,-31.342
31.28,-196.042,-31.125
31.31,-194.006,-30.861
31.34,-191.585,-30.54
31.38,-189.093,-30.208
31.41,-186.531,-29.83
31.44,-183.934,-29.326
31.47,-181.267,-28.811
31.51,-178.529,-28.33
31.54,-175.827,-27.803
31.57,-172.879,-27.241
31.6,-169.966,-26.76
31.64,-167.159,-26.336
31.67,-164.386,-25.809
31.7,-161.508,-25.202
31.73,-158.595,-24.836
31.77,-155.577,-24.492
31.8,-152.734,-23.85
31.83,-149.646,-23.404
31.87,-146.558,-22.9
31.9,-143.68,-22.396
31.93,-140.311,-21.857
31.96,-137.047,-21.307
32.0,-133.923,-20.883
32.03,-131.01,-20.437
32.06,-127.957,-19.921
32.09,-124.904,-19.44
32.13,-121.64,-18.993
32.16,-118.481,-18.512
32.19,-115.358,-18.02
32.22,-112.164,-17.607
32.26,-109.251,-17.183
32.29,-106.128,-16.725
32.32,-102.969,-16.313
32.35,-99.67,-15.9
32.39,-96.442,-15.408
32.42,-93.108,-14.961
32.45,-89.879,-14.468
32.48,-86.65,-13.907
32.52,-83.421,-13.357
32.55,-80.122,-12.819
32.58,-76.683,-12.326
32.61,-73.56,-11.96
32.65,-70.471,-11.467
32.68,-67.242,-10.917
32.71,-63.733,-10.402
32.74,-60.223,-9.978
32.78,-56.784,-9.451
32.81,-53.415,-8.935
32.84,-50.081,-8.397
32.87,-46.782,-7.881
32.91,-43.378,-7.297
32.94,-40.149,-6.782
32.97,-39.412,-5.67
33.0,-43.974,-2.635
33.04,-43.132,1.627
33.07,-28.954,1.627
33.1,-25.444,-0.115
33.13,-25.339,0.664
33.17,-18.355,1.203
33.2,-10.178,1.088
33.23,-3.615,0.894
33.26,1.649,0.745
33.3,3.825,0.252
33.33,4.106,0.378
33.36,7.3,0.756
33.39,11.16,0.607
33.43,14.038,0.573
33.46,17.162,1.134
33.49,21.548,2.085
33.52,27.129,2.841
33.56,32.323,3.024
33.59,35.797,3.013
33.62,37.236,3.482
33.66,38.289,4.353
33.69,40.43,5.144
33.72,43.588,5.396
33.75,46.606,5.212
33.79,49.168,5.132
33.82,51.765,5.476
33.85,55.415,6.026
33.88,59.592,6.541
33.92,63.557,7.137
33.95,67.137,7.927
33.98,70.612,8.832
34.01,74.016,9.714
34.05,77.42,10.459
34.08,80.754,11.078
34.11,83.913,11.536
34.14,86.861,11.994
34.18,90.019,12.452
34.21,93.318,12.83
34.24,96.687,13.254
34.27,100.127,13.724
34.31,103.601,14.251
34.34,107.005,14.835
34.37,110.41,15.488
34.4,113.708,16.118
34.44,117.253,16.805
34.47,120.552,17.412
34.5,123.605,17.825
34.53,126.588,18.558
34.57,129.817,19.085
34.6,133.186,19.509
34.63,136.52,19.978
34.66,139.679,20.425
34.7,142.522,20.895
34.73,145.505,21.502
34.76,148.839,22.052
34.79,152.068,22.35
34.83,154.805,22.751
34.86,157.402,23.346
34.89,160.561,23.931
34.92,163.754,24.32
34.96,166.562,24.607
34.99,168.983,24.927
35.02,171.44,25.351
35.05,174.072,25.695
35.09,176.88,25.958
35.12,179.512,26.222
35.15,181.934,26.565
35.18,184.425,26.921
35.22,186.917,27.276
35.25,189.374,27.619
35.28,191.76,27.952
35.32,194.006,28.238
35.35,196.358,28.559
35.38,198.779,28.857
35.41,201.096,29.12
35.45,203.096,29.395
35.48,205.026,29.762
35.51,207.272,30.048
35.54,209.203,30.174
35.58,210.887,30.403
35.61,212.747,30.747
35.64,214.888,31.067
35.67,216.959,31.319
35.71,218.959,31.686
35.74,221.065,32.11
35.77,222.925,32.396
35.8,224.644,32.706
35.84,226.575,33.129
35.87,228.68,33.473
35.9,230.47,33.748
35.93,232.26,34.092
35.97,234.05,34.481
36.0,236.05,34.882
36.03,237.91,35.203
36.06,239.63,35.535
36.1,241.139,35.925
36.13,242.929,36.28
36.16,244.684,36.589
36.19,246.368,36.91
36.23,247.983,37.231
36.26,249.632,37.54
36.29,251.352,37.78
36.32,252.686,37.998
36.36,254.019,38.33
36.39,255.563,38.697
36.42,257.423,38.949
36.45,258.968,39.189
36.49,260.266,39.556
36.52,261.67,39.957
36.55,262.933,40.117
36.58,264.021,40.243
36.62,265.285,40.53
36.65,266.759,40.69
36.68,268.092,40.816
36.71,269.25,41.137
36.75,270.338,41.435
36.78,271.602,41.698
36.81,272.725,41.95
36.84,273.848,42.134
36.88,274.796,42.386
36.91,275.813,42.626
36.94,276.971,42.809
36.98,278.059,43.05
37.01,279.007,43.291
37.04,279.779,43.439
37.07,280.551,43.52
37.11,281.183,43.6
37.14,281.744,43.6
37.17,282.025,43.611
37.2,282.692,43.76
37.24,283.815,43.943
37.27,284.096,43.829
37.3,284.306,43.921
37.33,284.517,44.104
37.37,284.868,44.024
37.4,284.973,43.978
37.43,285.008,43.898
37.46,285.078,43.978
37.5,285.394,44.024
37.53,285.605,43.955
37.56,285.64,43.989
37.59,285.64,44.024
37.63,285.464,43.966
37.66,285.219,43.886
37.69,285.043,43.783
37.72,284.763,43.726
37.76,284.552,43.669
37.79,284.201,43.588
37.82,283.78,43.439
37.85,283.078,43.268
37.89,282.552,43.256
37.92,281.674,42.89
37.95,280.411,42.546
37.98,279.99,42.649
38.02,279.955,42.615
38.05,279.077,42.363
38.08,277.814,42.271
38.11,276.866,42.202
38.15,275.883,41.939
38.18,274.445,41.515
38.21,272.83,41.103
38.24,271.251,40.782
38.28,269.812,40.461
38.31,268.373,40.106
38.34,266.864,39.808
38.37,265.355,39.487
38.41,263.67,39.178
38.44,262.091,39.018
38.47,260.757,38.846
38.5,259.248,38.594
38.54,257.704,38.41
38.57,256.23,38.273
38.6,254.721,38.078
38.64,253.036,37.952
38.67,251.527,37.815
38.7,250.089,37.62
38.73,248.334,37.483
38.77,246.684,37.311
38.8,244.965,37.116
38.83,243.175,36.967
38.86,241.455,36.784
38.9,239.63,36.429
38.93,237.595,36.074
38.96,235.629,35.959
38.99,233.945,35.764
39.03,232.295,35.535
39.06,230.435,35.295
39.09,228.61,35.1
39.12,226.926,35.031
39.16,225.241,34.939
39.19,223.206,34.745
39.22,221.24,34.63
39.25,219.661,34.538
39.29,217.906,34.264
39.32,215.871,33.931
39.35,213.695,33.759
39.38,211.484,33.542
39.42,209.483,33.141
39.45,207.202,32.751
39.48,204.816,32.431
39.51,202.534,32.03
39.55,200.253,31.732
39.58,198.112,31.457
39.61,196.042,31.125
39.64,193.831,30.793
39.68,191.479,30.449
39.71,188.953,30.105
39.74,186.356,29.739
39.77,183.688,29.315
39.81,181.021,28.845
39.84,178.389,28.501
39.87,175.862,28.02
39.9,173.055,27.379
39.94,170.107,26.932
39.97,167.404,26.577
40.0,164.491,25.958
40.03,161.473,25.42
40.07,158.49,24.996
40.1,155.682,24.481
40.13,152.734,24.091
40.16,149.786,23.564
40.2,146.663,23.037
40.23,143.504,22.625
40.26,140.416,22.235
40.3,137.468,21.651
40.33,134.45,21.113
40.36,131.361,20.609
40.39,128.098,20.093
40.43,124.834,19.635
40.46,121.78,19.268
40.49,118.727,18.741
40.52,115.639,18.191
40.56,112.41,17.768
40.59,109.251,17.424
40.62,106.268,16.989
40.65,103.285,16.588
40.69,100.127,16.129
40.72,96.793,15.625
40.75,93.564,15.213
40.78,90.37,14.766
40.82,87.282,14.251
40.85,84.053,13.792
40.88,80.824,13.311
40.91,77.42,12.842
40.95,74.226,12.406
40.98,70.998,11.937
41.01,67.734,11.421
41.04,64.33,10.929
41.08,61.171,10.413
41.11,57.661,9.875
41.14,54.362,9.371
41.17,50.853,8.89
41.21,47.694,8.328
41.24,43.974,7.79
41.27,41.237,7.171
41.3,41.798,5.476
41.34,46.887,1.558
41.37,41.167,-2.154
41.4,27.515,-0.928
41.43,27.48,0.172
41.47,24.883,-0.974
41.5,16.249,-1.18
41.53,8.774,-0.859
41.56,3.018,-0.825
41.6,-2.141,-0.642
41.63,-3.369,-0.069
41.66,-3.474,-0.412
41.69,-7.159,-0.653
41.73,-9.37,-0.584
41.76,-11.266,-0.997
41.79,-15.828,-1.42
41.82,-20.706,-1.947
41.86,-26.216,-2.497
41.89,-31.551,-2.784
41.92,-36.183,-2.944
41.96,-39.096,-3.345
41.99,-40.991,-4.193
42.02,-42.746,-5.063
42.05,-44.781,-5.59
42.09,-47.168,-5.842
42.12,-49.695,-5.774
42.15,-52.257,-5.659
42.18,-55.24,-5.739
42.22,-58.609,-6.06
42.25,-62.399,-6.507
42.28,-66.365,-7.068
42.31,-70.015,-7.755
42.35,-73.314,-8.523
42.38,-76.648,-9.405
42.41,-80.017,-10.241
42.44,-83.316,-10.894
42.48,-86.65,-11.501
42.51,-89.914,-12.12
42.54,-93.178,-12.613
42.57,-96.652,-13.208
42.61,-100.197,-13.884
42.64,-103.706,-14.468
42.67,-107.181,-15.121
42.7,-110.62,-15.866
42.74,-114.13,-16.393
42.77,-117.358,-16.897
42.8,-120.447,-17.493
42.83,-123.64,-18.111
42.87,-126.834,-18.535
42.9,-130.133,-19.016
42.93,-133.221,-19.486
42.96,-136.485,-19.875
43.0,-139.714,-20.46
43.03,-142.732,-20.872
43.06,-145.68,-21.284
43.09,-148.769,-21.857
43.13,-151.752,-22.315
43.16,-154.7,-22.659
43.19,-157.683,-23.175
43.22,-160.736,-23.656
43.26,-163.544,-24.045
43.29,-166.316,-24.469
43.32,-169.299,-24.859
43.35,-171.931,-25.111
43.39,-174.248,-25.466
43.42,-176.704,-25.844
43.45,-179.512,-26.199
43.48,-182.32,-26.554
43.52,-184.952,-26.898
43.55,-187.233,-27.241
43.58,-189.655,-27.722
43.62,-192.287,-28.123
43.65,-194.778,-28.352
43.68,-196.779,-28.65
43.71,-198.955,-29.109
43.75,-201.411,-29.441
43.78,-203.833,-29.658
43.81,-205.904,-29.876
43.84,-207.764,-30.14
43.88,-209.518,-30.414
43.91,-211.589,-30.689
43.94,-213.66,-30.861
43.97,-215.45,-31.09
44.01,-217.38,-31.48
44.04,-219.556,-31.824
44.07,-221.556,-32.064
44.1,-223.241,-32.328
44.14,-224.995,-32.728
44.17,-227.031,-33.095
44.2,-229.066,-33.462
44.23,-230.646,-33.725
44.27,-232.33,-34.08
44.3,-234.401,-34.55
44.33,-236.366,-34.825
44.36,-237.63,-34.997
44.4,-238.998,-35.34
44.43,-240.999,-35.799
44.46,-243.105,-35.959
44.49,-244.403,-36.2
44.53,-245.631,-36.681
44.56,-247.632,-37.208
44.59,-249.773,-37.46
44.62,-251.212,-37.654
44.66,-252.264,-38.055
44.69,-253.914,-38.525
44.72,-255.844,-38.8
44.75,-257.494,-38.995
44.79,-258.827,-39.315
44.82,-260.091,-39.739
44.85,-261.424,-40.117
44.88,-262.723,-40.22
44.92,-263.846,-40.324
44.95,-265.039,-40.564
44.98,-266.443,-40.77
45.01,-267.741,-40.976
45.05,-268.794,-41.229
45.08,-269.952,-41.503
45.11,-271.075,-41.767
45.14,-272.163,-41.996
45.18,-273.322,-42.248
45.21,-274.374,-42.5
45.24,-275.427,-42.718
45.28,-276.515,-43.016
45.31,-277.568,-43.313
45.34,-278.621,-43.531
45.37,-279.533,-43.588
45.41,-280.025,-43.714
45.44,-280.797,-43.886
45.47,-281.499,-43.863
45.5,-281.885,-43.875
45.54,-282.376,-44.047
45.57,-282.797,-43.955
45.6,-283.464,-44.184
45.63,-284.236,-44.31
45.67,-284.833,-44.23
45.7,-285.078,-44.322
45.73,-285.043,-44.184
45.76,-284.938,-44.218
45.8,-285.219,-44.299
45.83,-285.429,-44.195
45.86,-285.359,-43.966
45.89,-284.938,-43.817
45.93,-284.306,-43.737
45.96,-283.92,-43.623
45.99,-283.675,-43.313
46.02,-283.253,-43.13
46.06,-282.938,-43.107
46.09,-282.692,-43.165
46.12,-282.481,-43.199
46.15,-281.99,-43.256
46.19,-281.429,-43.268
46.22,-280.972,-43.165
46.25,-280.27,-43.004
46.28,-279.498,-42.832
46.32,-278.761,-42.718
46.35,-278.059,-42.569
46.38,-277.147,-42.42
46.41,-276.199,-42.317
46.45,-275.357,-42.134
46.48,-274.409,-41.824
46.51,-273.076,-41.584
46.54,-271.988,-41.435
46.58,-271.04,-41.297
46.61,-269.847,-41.183
46.64,-268.794,-41.068
46.67,-267.847,-40.816
46.71,-266.373,-40.495
46.74,-264.758,-40.243
46.77,-263.214,-39.991
46.8,-261.565,-39.693
46.84,-260.056,-39.373
46.87,-258.406,-39.041
46.9,-256.757,-38.788
46.93,-255.142,-38.582
46.97,-253.387,-38.353
47.0,-251.773,-38.124
47.03,-250.439,-38.032
47.07,-249.001,-37.78
47.1,-247.105,-37.505
47.13,-245.21,-37.379
47.16,-243.526,-37.219
47.2,-241.982,-37.001
47.23,-240.262,-36.738
47.26,-238.156,-36.474
47.29,-236.261,-36.326
47.33,-234.612,-36.142
47.36,-232.822,-35.787
47.39,-230.786,-35.489
47.42,-228.821,-35.363
47.46,-226.926,-35.169
47.49,-224.995,-34.859
47.52,-223.135,-34.538
47.55,-221.1,-34.252
47.59,-218.889,-34.034
47.62,-216.818,-33.851
47.65,-214.818,-33.622
47.68,-213.098,-33.37
47.72,-210.922,-32.958
47.75,-208.536,-32.717
47.78,-206.255,-32.522
47.81,-204.008,-32.087
47.85,-202.043,-31.858
47.88,-200.078,-31.617
47.91,-197.902,-31.297
47.94,-195.621,-31.033
47.98,-193.199,-30.873
48.01,-190.918,-30.563
48.04,-188.567,-30.151
48.07,-186.11,-29.716
48.11,-183.443,-29.223
48.14,-180.775,-28.811
48.17,-178.249,-28.456
48.2,-175.687,-28.02
48.24,-172.879,-27.493
48.27,-169.966,-27.058
48.3,-167.264,-26.577
48.33,-164.421,-26.027
48.37,-161.333,-25.466
48.4,-158.525,-25.122
48.43,-155.823,-24.71
48.46,-152.91,-23.999
48.5,-149.576,-23.564
48.53,-146.312,-23.083
48.56,-143.329,-22.613
48.59,-140.276,-22.029
48.63,-137.047,-21.41
48.66,-133.783,-20.918
48.69,-130.73,-20.483
48.73,-127.747,-19.99
48.76,-124.728,-19.497
48.79,-121.535,-19.085
48.82,-118.236,-18.638
48.86,-115.182,-18.226
48.89,-112.164,-17.756
48.92,-109.216,-17.229
48.95,-106.023,-16.725
48.99,-102.759,-16.324
49.02,-99.635,-15.969
49.05,-96.512,-15.476
49.08,-93.353,-14.927
49.12,-89.949,-14.4
49.15,-86.44,-13.941
49.18,-83.141,-13.483
49.21,-80.017,-12.956
49.25,-76.718,-12.406
49.28,-73.419,-11.937
49.31,-70.085,-11.421
49.34,-66.751,-10.929
49.38,-63.312,-10.436
49.41,-60.013,-9.955
49.44,-56.714,-9.439
49.47,-53.415,-8.924
49.51,-49.905,-8.397
49.54,-46.677,-7.95
49.57,-43.272,-7.332
49.6,-40.009,-6.793
49.64,-39.342,-5.659
49.67,-44.009,-2.635
49.7,-43.237,1.638
49.73,-28.989,1.627
49.77,-25.584,-0.115
49.8,-25.444,0.676
49.83,-18.25,1.26
49.86,-9.827,1.111
49.9,-3.159,0.894
49.93,2.141,0.745
49.96,4.036,0.206
49.99,4.422,0.447
50.03,7.826,0.745
50.06,11.23,0.55
50.09,14.108,0.619
50.12,17.442,1.18
50.16,21.794,2.073
50.19,27.129,2.772
50.22,32.147,2.921
50.25,35.551,2.944
50.29,37.201,3.505
50.32,38.745,4.525
50.35,41.377,5.373
50.39,44.606,5.636
50.42,47.554,5.625
50.45,50.151,5.728
50.48,53.099,6.117
50.52,56.679,6.598
50.55,60.609,7.091
50.58,64.435,7.606
50.61,68.05,8.259
50.65,71.313,9.004
50.68,74.472,9.703
50.71,77.455,10.344
50.74,80.438,10.848
50.78,83.492,11.226
50.81,86.51,11.616
50.84,89.738,12.063
50.87,93.143,12.475
50.91,96.617,12.933
50.94,100.021,13.518
50.97,103.215,14.182
51.0,106.514,14.823
51.04,110.023,15.568
51.07,113.673,16.233
51.1,117.007,16.668
51.13,119.71,17.16
51.17,122.517,17.722
51.2,125.711,18.295
51.23,129.185,18.81
51.26,132.555,19.188
51.3,135.783,19.692
51.33,138.977,20.345
51.36,142.136,20.872
51.39,145.224,21.433
51.43,148.418,22.121
51.46,151.541,22.59
51.49,154.594,22.968
51.52,157.437,23.461
51.56,160.455,23.931
51.59,163.438,24.343
51.62,166.281,24.698
51.65,168.948,25.065
51.69,171.51,25.408
51.72,174.142,25.729
51.75,176.775,26.027
51.78,179.337,26.325
51.82,181.934,26.691
51.85,184.496,27.035
51.88,187.022,27.39
51.91,189.444,27.757
51.95,191.76,28.123
51.98,194.112,28.421
52.01,196.463,28.753
52.05,198.814,29.074
52.08,200.955,29.326
52.11,203.166,29.59
52.14,205.377,29.91
52.18,207.343,30.117
52.21,209.167,30.288
52.24,210.992,30.598
52.27,213.168,30.93
52.31,215.379,31.159
52.34,217.204,31.423
52.37,219.064,31.812
52.4,221.205,32.224
52.44,223.065,32.442
52.47,224.785,32.683
52.5,226.645,33.164
52.53,228.716,33.53
52.57,230.681,33.805
52.6,232.26,34.034
52.63,234.12,34.493
52.66,236.191,34.951
52.7,238.086,35.237
52.73,239.525,35.547
52.76,241.139,35.879
52.79,242.964,36.303
52.83,244.894,36.646
52.86,246.509,36.921
52.89,248.053,37.242
52.92,249.702,37.62
52.96,251.317,37.826
52.99,252.615,38.021
53.02,253.984,38.33
53.05,255.563,38.64
53.09,257.213,38.88
53.12,258.792,39.189
53.15,260.406,39.556
53.18,261.775,39.9
53.22,262.863,40.083
53.25,263.951,40.278
53.28,265.32,40.53
53.31,266.794,40.724
53.35,267.952,40.931
53.38,269.04,41.206
53.41,270.163,41.458
53.44,271.391,41.698
53.48,272.514,41.916
53.51,273.602,42.145
53.54,274.69,42.386
53.57,275.848,42.649
53.61,276.936,42.924
53.64,278.165,43.233
53.67,279.218,43.405
53.71,279.919,43.577
53.74,280.692,43.68
53.77,281.323,43.714
53.8,281.92,43.657
53.84,282.271,43.6
53.87,282.762,43.737
53.9,283.71,44.024
53.93,283.99,43.898
53.97,284.271,43.955
54.0,284.727,44.058
54.03,285.114,43.932
54.06,285.078,44.024
54.1,285.219,43.966
54.13,285.394,44.047
54.16,285.745,44.138
54.19,285.921,44.127
54.23,285.886,44.127
54.26,285.745,44.127
54.29,285.429,44.035
54.32,285.184,43.852
54.36,284.692,43.703
54.39,284.447,43.669
54.42,284.166,43.554
54.45,283.71,43.439
54.49,283.183,43.302
54.52,282.516,43.073
54.55,281.639,42.901
54.58,280.867,42.752
54.62,280.2,42.546
54.65,279.639,42.42
54.68,279.007,42.374
54.71,278.235,42.271
54.75,277.322,42.122
54.78,276.41,41.893
54.81,275.146,41.629
54.84,273.743,41.389
54.88,272.234,41.148
54.91,271.04,40.908
54.94,269.882,40.598
54.97,268.513,40.266
55.01,267.11,39.968
55.04,265.495,39.682
55.07,263.846,39.476
55.1,262.477,39.258
55.14,261.143,39.029
55.17,259.494,38.823
55.2,257.915,38.651
55.23,256.476,38.536
55.27,255.002,38.365
55.3,253.528,38.17
55.33,251.808,38.01
55.37,250.159,37.861
55.4,248.72,37.757
55.43,247.07,37.505
55.46,245.21,37.276
55.5,243.526,37.07
55.53,241.666,36.818
55.56,239.525,36.52
55.59,237.489,36.28
55.63,235.945,36.062
55.66,234.19,35.741
55.69,232.155,35.443
55.72,230.19,35.272
55.76,228.435,35.146
55.79,226.645,34.951
55.82,224.715,34.722
55.85,222.749,34.527
55.89,220.819,34.321
55.92,218.889,34.046
55.95,216.888,33.817
55.98,214.783,33.553
56.02,212.677,33.278
56.05,210.747,33.152
56.08,208.922,32.889
56.11,206.676,32.602
56.15,204.359,32.431
56.18,202.464,32.247
56.21,200.569,31.972
56.24,198.534,31.709
56.28,196.393,31.434
56.31,194.077,31.102
56.34,191.515,30.758
56.37,189.058,30.437
56.41,186.636,29.968
56.44,184.004,29.429
56.47,181.372,28.96
56.5,178.67,28.57
56.54,176.003,28.089
56.57,173.265,27.562
56.6,170.352,27.115
56.63,167.615,26.691
56.67,164.632,26.05
56.7,161.403,25.489
56.73,158.279,24.973
56.76,155.507,24.469
56.8,152.734,24.034
56.83,149.786,23.427
56.86,146.487,22.968
56.89,143.259,22.522
56.93,140.276,22.029
56.96,137.152,21.514
56.99,133.958,21.067
57.03,131.01,20.62
57.06,127.992,20.104
57.09,124.869,19.612
57.12,121.64,19.188
57.16,118.446,18.764
57.19,115.463,18.306
57.22,112.55,17.836
57.25,109.532,17.435
57.29,106.339,17.011
57.32,103.075,16.622
57.35,99.916,16.21
57.38,96.793,15.671
57.42,93.388,15.144
57.45,90.16,14.663
57.48,86.931,14.159
57.51,83.878,13.666
57.55,80.684,13.197
57.58,77.315,12.704
57.61,73.946,12.269
57.64,70.822,11.845
57.68,67.523,11.387
57.71,64.154,10.848
57.74,60.68,10.379
57.77,57.381,9.875
57.81,54.187,9.394
57.84,51.274,9.027
57.87,48.747,8.878
57.9,46.15,8.626
57.94,44.044,8.282
57.97,45.308,6.839
58.0,50.081,3.345
58.03,50.046,-1.226
58.07,35.973,-1.867
58.1,29.761,-0.034
58.13,28.883,-0.664
58.16,20.706,-1.294
58.2,11.266,-1.18
58.23,1.685,-1.317
58.26,-7.3,-0.951
58.29,-9.125,0.115
58.33,-7.932,-0.355
58.36,-12.88,-0.836
58.39,-13.196,-2.28
58.42,-16.354,-4.594
58.46,-26.041,-4.536
58.49,-33.13,-3.196
58.52,-34.99,-2.658
58.55,-34.253,-3.723
58.59,-35.376,-5.499
58.62,-38.64,-6.484
58.65,-41.833,-6.22
58.68,-43.097,-5.43
58.72,-43.729,-5.086
58.75,-45.589,-5.224
58.78,-49.59,-5.27
58.82,-54.117,-5.006
58.85,-57.732,-4.926
58.88,-60.68,-5.556
58.91,-64.189,-6.575
58.95,-68.225,-7.515
58.98,-72.086,-8.259
59.01,-75.174,-8.981
59.04,-78.052,-9.783
59.08,-81.175,-10.596
59.11,-84.79,-11.204
59.14,-88.3,-11.685
59.17,-91.809,-12.2
59.21,-94.968,-12.773
59.24,-98.161,-13.346
59.27,-101.671,-14.045
59.3,-105.426,-14.732
59.34,-109.006,-15.213
59.37,-112.199,-15.717
59.4,-115.288,-16.427
59.43,-118.517,-17.034
59.47,-121.78,-17.527
59.5,-124.904,-17.997
59.53,-127.957,-18.501
59.56,-131.326,-19.073
59.6,-134.766,-19.6
59.63,-138.135,-20.013
59.66,-141.328,-20.597
59.69,-144.312,-21.147
59.73,-147.154,-21.559
59.76,-150.067,-22.063
59.79,-153.015,-22.636
59.82,-156.139,-23.049
59.86,-159.192,-23.381
59.89,-162.105,-23.782
59.92,-164.912,-24.228
59.95,-167.72,-24.664
59.99,-170.528,-25.168
60.02,-173.335,-25.534
60.05,-176.178,-25.844
60.08,-178.986,-26.199
60.12,-181.477,-26.577
60.15,-183.934,-26.943
60.18,-186.601,-27.356
60.21,-189.128,-27.722
60.25,-191.444,-27.986
60.28,-193.655,-28.249
60.31,-195.972,-28.582
60.34,-198.358,-28.937
60.38,-200.85,-29.2
60.41,-203.166,-29.498
60.44,-205.482,-29.956
60.48,-207.869,-30.288
60.51,-209.94,-30.437
60.54,-211.308,-30.758
60.57,-210.571,-29.945
60.61,-207.413,-27.974
60.64,-205.132,-27.047
60.67,-205.061,-26.142
60.7,-204.745,-24.183
60.74,-202.991,-23.049
60.77,-202.324,-23.301
60.8,-204.359,-24.354
60.83,-207.693,-26.016
60.87,-211.624,-28.032
60.9,-216.327,-30.254
60.93,-222.469,-32.316
60.96,-227.979,-33.908
61.0,-231.067,-35.455
61.03,-232.927,-37.139
61.06,-235.664,-38.605
61.09,-239.139,-39.407
61.13,-241.736,-39.533
61.16,-243.28,-39.613
61.19,-245.105,-39.888
61.22,-247.421,-40.163
61.26,-249.702,-40.278
61.29,-251.527,-40.461
61.32,-253.423,-40.736
61.35,-255.353,-41.034
61.39,-257.248,-41.263
61.42,-258.687,-41.366
61.45,-260.056,-41.412
61.48,-261.319,-41.412
61.52,-262.302,-41.297
61.55,-262.968,-41.171
61.58,-263.986,-41.137
61.61,-265.215,-41.137
61.65,-266.443,-41.263
61.68,-267.917,-41.423
61.71,-269.286,-41.607
61.74,-270.514,-41.881
61.78,-271.602,-42.214
61.81,-272.655,-42.512
61.84,-273.848,-42.672
61.87,-274.831,-42.867
61.91,-275.919,-43.073
61.94,-277.112,-43.187
61.97,-277.989,-43.394
62.0,-278.902,-43.611
62.04,-279.709,-43.691
62.07,-280.305,-43.669
62.1,-280.762,-43.657
62.14,-281.148,-43.623
62.17,-281.393,-43.623
62.2,-281.955,-43.669
62.23,-282.481,-43.634
62.27,-282.692,-43.611
62.3,-282.973,-43.691
62.33,-283.324,-43.726
62.36,-283.534,-43.703
62.4,-283.464,-43.623
62.43,-283.359,-43.588
62.46,-283.71,-43.508
62.49,-283.64,-43.428
62.53,-283.289,-43.52
62.56,-283.289,-43.577
62.59,-283.324,-43.531
62.62,-283.183,-43.417
62.66,-282.973,-43.313
62.69,-282.903,-43.256
62.72,-282.692,-43.348
62.75,-282.622,-43.52
62.79,-282.692,-43.577
62.82,-282.411,-43.6
62.85,-281.815,-43.52
62.88,-281.183,-43.382
62.92,-280.516,-43.222
62.95,-279.744,-43.096
62.98,-279.182,-43.004
63.01,-278.516,-42.855
63.05,-277.744,-42.718
63.08,-277.007,-42.592
63.11,-276.059,-42.374
63.14,-274.796,-42.191
63.18,-273.637,-41.996
63.21,-272.795,-41.744
63.24,-271.672,-41.503
63.27,-270.374,-41.297
63.31,-269.215,-41.114
63.34,-268.022,-40.896
63.37,-266.548,-40.541
63.4,-264.899,-40.266
63.44,-263.6,-40.049
63.47,-262.231,-39.751
63.5,-260.582,-39.487
63.53,-259.038,-39.293
63.57,-257.704,-39.121
63.6,-256.371,-38.96
63.63,-254.756,-38.685
63.66,-253.072,-38.41
63.7,-251.457,-38.239
63.73,-249.808,-38.101
63.76,-248.299,-37.883
63.8,-246.649,-37.597
63.83,-244.894,-37.471
63.86,-243.35,-37.345
63.89,-241.595,-37.082
63.93,-239.841,-36.91
63.96,-238.191,-36.681
63.99,-236.086,-36.452
64.02,-234.12,-36.222
64.06,-232.225,-35.89
64.09,-230.295,-35.569
64.12,-228.259,-35.249
64.15,-225.908,-34.836
64.19,-223.662,-34.435
64.22,-221.626,-34.16
64.25,-219.556,-33.794
64.28,-217.204,-33.427
64.32,-215.028,-33.164
64.35,-213.133,-33.026
64.38,-210.992,-32.602
64.41,-208.746,-32.305
64.45,-206.36,-32.144
64.48,-204.149,-31.801
64.51,-202.078,-31.583
64.54,-200.008,-31.354
64.58,-197.621,-31.056
64.61,-195.34,-30.873
64.64,-193.234,-30.701
64.67,-191.093,-30.277
64.71,-188.777,-29.945
64.74,-186.04,-29.613
64.77,-183.372,-29.154
64.8,-180.986,-28.925
64.84,-178.81,-28.559
64.87,-176.143,-27.974
64.9,-173.3,-27.459
64.93,-170.598,-27.104
64.97,-168.001,-26.714
65.0,-165.158,-26.107
65.03,-162.07,-25.546
65.06,-159.192,-25.122
65.1,-156.314,-24.629
65.13,-153.331,-24.102
65.16,-150.208,-23.621
65.19,-147.224,-23.117
65.23,-144.171,-22.579
65.26,-140.942,-21.995
65.29,-137.749,-21.433
65.32,-134.66,-20.964
65.36,-131.537,-20.46
65.39,-128.484,-19.944
65.42,-125.325,-19.486
65.46,-122.026,-19.073
65.49,-118.797,-18.558
65.52,-115.744,-18.077
65.55,-112.691,-17.619
65.59,-109.497,-17.149
65.62,-106.268,-16.748
65.65,-103.18,-16.416
65.68,-100.302,-16.003
65.72,-97.284,-15.431
65.75,-93.774,-14.869
65.78,-90.23,-14.434
65.81,-86.966,-14.022
65.85,-83.913,-13.506
65.88,-80.579,-12.899
65.91,-77.174,-12.383
65.94,-73.911,-11.994
65.98,-70.752,-11.49
66.01,-67.558,-10.94
66.04,-64.119,-10.447
66.07,-60.68,-9.978
66.11,-57.275,-9.508
66.14,-54.082,-9.073
66.17,-50.923,-8.546
66.2,-47.729,-8.076
66.24,-44.044,-7.503
66.27,-40.605,-7.034
66.3,-40.184,-5.923
66.33,-45.062,-2.795
66.37,-44.29,1.627
66.4,-29.761,1.695
66.43,-25.97,-0.115
66.46,-25.69,0.722
66.5,-17.863,1.329
66.53,-9.23,1.088
66.56,-2.562,0.939
66.59,2.878,0.71
66.63,4.001,0.069
66.66,4.036,0.515
66.69,8.037,0.756
66.72,10.88,0.447
66.76,13.196,0.596
66.79,16.46,1.157
66.82,20.811,1.982
66.85,25.935,2.577
66.89,30.884,2.704
66.92,34.534,2.669
66.95,36.569,3.024
66.98,38.113,3.872
67.02,40.675,4.811
67.05,44.08,5.258
67.08,47.168,5.396
67.12,49.94,5.636
67.15,52.924,6.129
67.18,56.644,6.736
67.21,60.715,7.32
67.25,64.575,7.836
67.28,67.909,8.5
67.31,71.103,9.268
67.34,74.472,9.989
67.38,77.946,10.619
67.41,81.386,11.146
67.44,84.544,11.57
67.47,87.563,12.005
67.51,90.651,12.441
67.54,93.774,12.784
67.57,96.898,13.208
67.6,100.092,13.632
67.64,103.426,14.01
67.67,106.619,14.514
67.7,109.778,15.121
67.73,112.831,15.648
67.77,115.919,16.233
67.8,119.113,16.828
67.83,122.482,17.401
67.86,125.641,17.894
67.9,128.484,18.249
67.93,131.572,18.89
67.96,135.011,19.578
67.99,138.731,20.15
68.03,142.276,20.735
68.06,145.54,21.353
68.09,148.663,22.052
68.12,151.927,22.716
68.16,155.226,23.323
68.19,158.35,23.896
68.22,161.403,24.343
68.25,164.105,24.641
68.29,166.632,24.916
68.32,169.124,25.168
68.35,171.651,25.385
68.38,174.248,25.534
68.42,176.74,25.741
68.45,179.301,25.993
68.48,181.863,26.325
68.51,184.46,26.703
68.55,186.952,27.069
68.58,189.374,27.425
68.61,191.69,27.837
68.64,194.006,28.238
68.68,196.428,28.593
68.71,198.955,28.891
68.74,201.201,29.12
68.78,203.131,29.395
68.81,205.167,29.739
68.84,207.307,29.945
68.87,209.203,30.128
68.91,211.028,30.426
68.94,213.133,30.701
68.97,215.169,30.964
69.0,217.134,31.262
69.04,219.24,31.652
69.07,221.31,32.018
69.1,223.1,32.305
69.13,224.785,32.66
69.17,226.715,33.072
69.2,228.856,33.393
69.23,230.576,33.645
69.26,232.19,33.977
69.3,233.98,34.355
69.33,236.015,34.607
69.36,237.63,34.802
69.39,239.069,35.077
69.43,240.753,35.535
69.46,242.508,35.821
69.49,244.157,36.074
69.52,245.631,36.394
69.56,247.491,36.91
69.59,249.562,37.334
69.62,251.141,37.551
69.65,252.51,37.929
69.69,254.405,38.41
69.72,256.335,38.743
69.75,257.845,38.949
69.78,259.003,39.327
69.82,260.547,39.682
69.85,261.986,39.785
69.88,262.933,39.854
69.91,263.776,39.923
69.95,264.793,40.072
69.98,266.267,40.289
70.01,267.636,40.507
70.04,268.794,40.805
70.08,270.093,41.217
70.11,271.146,41.446
70.14,272.269,41.687
70.17,273.216,41.927
70.21,274.48,42.214
70.24,275.848,42.466
70.27,277.077,42.718
70.3,277.989,42.97
70.34,278.726,43.073
70.37,279.604,43.451
70.4,280.411,43.462
70.44,281.078,43.497
70.47,281.674,43.726
70.5,282.481,43.76
70.53,283.113,43.783
70.57,284.061,44.115
70.6,284.587,44.15
70.63,284.868,44.161
70.66,285.149,44.173
70.7,285.535,44.069
70.73,285.57,43.955
70.76,285.254,43.68
70.79,285.219,43.623
70.83,285.359,43.623
70.86,285.324,43.508
70.89,285.114,43.439
70.92,284.938,43.417
70.96,284.727,43.336
70.99,284.341,43.233
71.02,284.166,43.096
71.05,283.92,43.096
71.09,283.569,43.13
71.12,283.324,43.153
71.15,282.973,43.061
71.18,282.376,42.901
71.22,281.639,42.809
71.25,281.042,42.683
71.28,280.446,42.523
71.31,279.814,42.374
71.35,279.077,42.305
71.38,278.235,42.237
71.41,277.182,42.099
71.44,276.234,41.87
71.48,275.146,41.595
71.51,273.743,41.229
71.54,272.163,40.896
71.57,270.935,40.656
71.61,269.707,40.392
71.64,268.408,40.106
71.67,267.004,39.831
71.7,265.46,39.579
71.74,264.021,39.315
71.77,262.617,39.075
71.8,261.108,38.846
71.83,259.529,38.617
71.87,257.985,38.41
71.9,256.335,38.262
71.93,254.756,38.055
71.96,253.247,37.78
72.0,251.352,37.563
72.03,249.667,37.483
72.06,248.334,37.357
72.09,246.86,37.047
72.13,245.245,37.013
72.16,243.701,37.093
72.19,242.122,36.864
72.23,240.332,36.669
72.26,238.261,36.509
72.29,236.366,36.188
72.32,234.401,35.764
72.36,232.155,35.489
72.39,230.225,35.18
72.42,228.294,34.894
72.45,226.54,34.687
72.49,224.644,34.424
72.52,222.574,34.264
72.55,220.889,34.264
72.58,219.415,34.103
72.62,217.415,33.851
72.65,215.204,33.737
72.68,213.203,33.565
72.71,211.273,33.221
72.75,208.957,32.728
72.78,206.43,32.328
72.81,204.008,31.927
72.84,201.657,31.537
72.88,199.411,31.193
72.91,197.34,30.896
72.94,195.059,30.655
72.97,192.778,30.449
73.01,190.462,30.128
73.04,188.145,29.865
73.07,185.934,29.544
73.1,183.408,29.143
73.14,180.881,28.799
73.17,178.389,28.501
73.2,175.722,28.089
73.23,173.09,27.7
73.27,170.457,27.264
73.3,167.896,26.909
73.33,164.983,26.256
73.36,161.964,25.752
73.4,158.876,25.374
73.43,156.068,24.79
73.46,153.366,24.297
73.49,150.804,23.931
73.53,147.891,23.427
73.56,144.487,22.877
73.59,140.907,22.338
73.62,137.714,21.811
73.66,134.871,21.296
73.69,131.747,20.505
73.72,128.098,19.83
73.75,124.553,19.36
73.79,121.254,18.833
73.82,118.166,18.26
73.85,115.007,17.802
73.89,111.848,17.367
73.92,108.9,16.954
73.95,105.952,16.622
73.98,102.864,16.324
74.02,99.881,15.923
74.05,96.652,15.454
74.08,93.353,14.995
74.11,89.949,14.549
74.15,86.685,14.09
74.18,83.597,13.644
74.21,80.473,13.185
74.24,77.35,12.739
74.28,74.121,12.303
74.31,70.752,11.788
74.34,67.313,11.341
74.37,64.154,10.825
74.41,60.925,10.321
74.44,57.907,9.898
74.47,54.819,9.542
74.5,51.555,9.073
74.54,48.01,8.637
74.57,44.571,8.202
74.6,41.202,7.767
74.63,40.149,6.701
74.67,43.869,3.861
74.7,45.589,-0.974
74.73,31.165,-2.062
74.76,24.461,0.08
74.8,25.198,-0.458
74.83,18.285,-1.191
74.86,10.178,-0.974
74.89,3.755,-0.813
74.93,-1.755,-0.745
74.96,-4.001,-0.103
74.99,-3.65,-0.332
75.02,-7.861,-0.79
75.06,-11.02,-0.619
75.09,-12.599,-1.157
75.12,-17.232,-1.936
75.15,-22.987,-2.486
75.19,-28.813,-2.772
75.22,-33.621,-2.795
75.25,-36.429,-3.001
75.28,-37.657,-3.883
75.32,-39.307,-4.972
75.35,-41.869,-5.533
75.38,-44.641,-5.613
75.41,-47.238,-5.499
75.45,-49.8,-5.499
75.48,-52.888,-5.774
75.51,-56.749,-6.186
75.55,-60.855,-6.621
75.58,-64.856,-7.228
75.61,-68.506,-7.95
75.64,-71.805,-8.741
75.68,-74.963,-9.531
75.71,-78.122,-10.207
75.74,-81.07,-10.677
75.77,-84.088,-11.043
75.81,-87.036,-11.433
75.84,-90.089,-11.822
75.87,-93.283,-12.212
75.9,-96.617,-12.681
75.94,-99.881,-13.208
75.97,-103.391,-13.804
76.0,-106.689,-14.411
76.03,-109.918,-14.915
76.07,-113.112,-15.602
76.1,-116.586,-16.301
76.13,-120.061,-16.954
76.16,-123.114,-17.527
76.2,-126.132,-17.985
76.23,-129.291,-18.615
76.26,-132.765,-19.234
76.29,-136.275,-19.715
76.33,-139.468,-20.139
76.36,-142.522,-20.643
76.39,-145.61,-21.261
76.42,-148.769,-21.811
76.46,-151.787,-22.247
76.49,-154.84,-22.739
76.52,-157.893,-23.209
76.55,-160.841,-23.564
76.59,-163.614,-23.908
76.62,-166.176,-24.32
76.65,-168.843,-24.801
76.68,-171.651,-25.225
76.72,-174.388,-25.5
76.75,-177.196,-25.821
76.78,-179.863,-26.233
76.81,-182.355,-26.611
76.85,-184.811,-26.875
76.88,-187.268,-27.195
76.91,-189.725,-27.608
76.94,-192.146,-27.906
76.98,-194.463,-28.192
77.01,-196.814,-28.524
77.04,-199.095,-28.822
77.07,-201.236,-29.086
77.11,-203.166,-29.326
77.14,-204.71,-29.349
77.17,-205.869,-29.235
77.21,-206.956,-29.131
77.24,-208.185,-28.96
77.27,-209.554,-28.811
77.3,-211.028,-28.879
77.34,-213.098,-29.235
77.37,-215.52,-29.796
77.4,-218.152,-30.46
77.43,-220.924,-31.319
77.47,-223.802,-32.282
77.5,-226.61,-33.301
77.53,-229.312,-34.275
77.56,-232.12,-35.191
77.6,-234.576,-35.856
77.63,-236.542,-36.291
77.66,-238.226,-36.704
77.69,-240.086,-36.967
77.73,-241.806,-37.001
77.76,-243.245,-36.99
77.79,-244.614,-37.059
77.82,-246.193,-37.093
77.86,-247.772,-37.127
77.89,-249.106,-37.299
77.92,-250.369,-37.574
77.95,-251.843,-37.803
77.99,-253.282,-37.987
78.02,-254.721,-38.101
78.05,-255.914,-38.193
78.08,-257.002,-38.445
78.12,-258.406,-38.754
78.15,-259.915,-39.041
78.18,-261.319,-39.258
78.21,-262.337,-39.384
78.25,-263.214,-39.648
78.28,-264.513,-39.957
78.31,-265.952,-40.163
78.34,-267.215,-40.472
78.38,-268.513,-40.839
78.41,-269.742,-41.137
78.44,-270.865,-41.423
78.47,-271.953,-41.675
78.51,-273.076,-41.927
78.54,-274.234,-42.145
78.57,-275.111,-42.454
78.6,-276.375,-42.844
78.64,-277.708,-43.004
78.67,-278.691,-43.142
78.7,-279.323,-43.382
78.73,-280.095,-43.474
78.77,-280.902,-43.634
78.8,-281.323,-43.52
78.83,-281.815,-43.428
78.87,-282.411,-43.714
78.9,-283.078,-43.863
78.93,-283.534,-43.886
78.96,-283.955,-43.989
79.0,-284.517,-44.138
79.03,-284.657,-43.978
79.06,-284.903,-44.092
79.09,-285.464,-44.184
79.13,-285.64,-44.035
79.16,-285.5,-44.047
79.19,-285.5,-44.104
79.22,-285.429,-43.966
79.26,-285.043,-43.772
79.29,-284.763,-43.611
79.32,-284.341,-43.474
79.35,-283.745,-43.336
79.39,-283.499,-43.245
79.42,-283.394,-43.153
79.45,-282.903,-43.061
79.48,-282.166,-43.027
79.52,-281.534,-42.947
79.55,-280.972,-42.832
79.58,-280.341,-42.683
79.61,-279.568,-42.5
79.65,-278.937,-42.34
79.68,-278.165,-42.225
79.71,-277.357,-42.088
79.74,-276.585,-41.893
79.78,-275.462,-41.664
79.81,-274.304,-41.469
79.84,-273.076,-41.297
79.87,-271.848,-41.068
79.91,-270.724,-40.85
79.94,-269.601,-40.621
79.97,-268.163,-40.369
80.0,-266.794,-40.175
80.04,-265.39,-39.934
80.07,-263.986,-39.705
80.1,-262.653,-39.487
80.13,-261.284,-39.189
80.17,-259.529,-38.914
80.2,-257.845,-38.766
80.23,-256.441,-38.582
80.26,-254.826,-38.33
80.3,-253.001,-37.998
80.33,-251.176,-37.769
80.36,-249.702,-37.631
80.39,-247.983,-37.276
80.43,-245.877,-37.001
80.46,-244.122,-36.944
80.49,-243.034,-36.944
80.53,-241.771,-36.715
80.56,-239.771,-36.452
80.59,-237.665,-36.36
80.62,-235.98,-36.314
80.66,-234.366,-36.051
80.69,-232.471,-35.627
80.72,-230.26,-35.191
80.75,-228.014,-34.836
80.79,-226.154,-34.63
80.82,-224.188,-34.412
80.85,-222.118,-34.057
80.88,-219.801,-33.702
80.92,-217.59,-33.53
80.95,-215.871,-33.313
80.98,-214.362,-33.084
81.01,-212.572,-32.981
81.05,-210.361,-32.763
81.08,-208.115,-32.648
81.11,-206.36,-32.66
81.14,-204.535,-32.408
81.18,-202.324,-31.972
81.21,-199.832,-31.606
81.24,-197.481,-31.319
81.27,-195.34,-31.033
81.31,-193.129,-30.689
81.34,-190.813,-30.288
81.37,-188.321,-29.968
81.4,-185.864,-29.635
81.44,-183.372,-29.189
81.47,-181.056,-28.857
81.5,-178.67,-28.433
81.53,-175.862,-28.02
81.57,-172.984,-27.596
81.6,-170.422,-27.287
81.63,-167.79,-26.714
81.66,-164.807,-26.176
81.7,-161.859,-25.775
81.73,-159.227,-25.237
81.76,-156.419,-24.744
81.79,-153.471,-24.274
81.83,-150.664,-23.782
81.86,-147.575,-23.335
81.89,-144.557,-22.865
81.92,-141.574,-22.384
81.96,-138.205,-21.674
81.99,-134.66,-21.113
82.02,-131.396,-20.666
82.05,-128.343,-20.047
82.09,-125.29,-19.394
82.12,-122.096,-18.89
82.15,-118.797,-18.386
82.19,-115.674,-17.939
82.22,-112.621,-17.584
82.25,-109.743,-17.16
82.28,-106.619,-16.702
82.32,-103.25,-16.336
82.35,-99.846,-15.912
82.38,-96.477,-15.339
82.41,-93.108,-14.778
82.45,-89.633,-14.193
82.48,-86.299,-13.552
82.51,-82.93,-12.933
82.54,-79.491,-12.418
82.58,-76.262,-12.005
82.61,-73.314,-11.662
82.64,-70.296,-11.158
82.67,-66.927,-10.608
82.71,-63.206,-10.184
82.74,-59.767,-9.749
82.77,-56.187,-9.256
82.8,-52.959,-8.718
82.84,-49.484,-8.111
82.87,-46.08,-7.549
82.9,-42.325,-7.057
82.93,-39.131,-6.564
82.97,-38.675,-5.361
83.0,-43.413,-2.096
83.03,-40.781,1.856
83.06,-27.058,1.34
83.1,-25.198,-0.126
83.13,-24.216,0.802
83.16,-16.67,1.214
83.19,-9.16,0.951
83.23,-3.58,0.825
83.26,1.474,0.722
83.29,3.369,0.229
83.32,3.439,0.344
83.36,5.65,0.619
83.39,8.774,0.596
83.42,11.967,0.642
83.45,16.144,0.779
83.49,20.18,1.489
83.52,25.339,2.715
83.55,31.726,3.482
83.58,37.271,3.597
83.62,40.009,3.826
83.65,40.781,4.754
83.68,42.114,5.923
83.71,44.887,6.449
83.75,47.905,6.278
83.78,50.432,5.98
83.81,52.783,6.003
83.85,55.872,6.289
83.88,59.767,6.713
83.91,63.873,7.137
83.94,67.593,7.732
83.98,70.857,8.443
84.01,74.121,9.348
84.04,77.596,10.264
84.07,81.035,10.86
84.11,84.053,11.272
84.14,86.861,11.834
84.17,90.019,12.406
84.2,93.318,12.716
84.24,96.477,13.036
84.27,99.706,13.54
84.3,103.18,14.113
84.33,106.83,14.709
84.37,110.41,15.385
84.4,113.744,16.003
84.43,116.832,16.679
84.46,119.885,17.229
84.5,123.219,17.905
84.53,126.624,18.432
84.56,130.098,18.982
84.59,133.186,19.463
84.63,136.205,19.795
84.66,139.047,20.379
84.69,142.206,20.929
84.72,145.47,21.319
84.76,148.383,21.72
84.79,151.366,22.247
84.82,154.454,22.751
84.85,157.472,23.243
84.89,160.455,23.736
84.92,163.438,24.217
84.95,166.246,24.618
84.98,168.913,24.985
85.02,171.581,25.385
85.05,174.388,25.729
85.08,176.88,26.038
85.11,179.372,26.416
85.15,181.969,26.783
85.18,184.706,27.104
85.21,187.233,27.39
85.24,189.619,27.734
85.28,191.901,28.078
85.31,194.147,28.364
85.34,196.428,28.673
85.37,198.814,28.971
85.41,200.99,29.2
85.44,203.131,29.464
85.47,205.202,29.762
85.5,207.167,29.956
85.54,209.062,30.151
85.57,211.028,30.392
85.6,212.993,30.655
85.64,214.923,30.941
85.67,216.853,31.262
85.7,218.854,31.606
85.73,220.644,31.972
85.77,222.328,32.259
85.8,224.188,32.568
85.83,226.189,32.912
85.86,228.294,33.301
85.9,230.225,33.645
85.93,232.155,34.023
85.96,234.19,34.596
85.99,236.331,35.088
86.03,238.226,35.375
86.06,239.911,35.73
86.09,241.666,36.165
86.12,243.42,36.497
86.16,245.07,36.784
86.19,246.719,37.105
86.22,248.439,37.437
86.25,249.948,37.62
86.29,251.106,37.792
86.32,252.545,38.044
86.35,254.124,38.273
86.38,255.528,38.456
86.42,256.932,38.72
86.45,258.441,39.041
86.48,260.02,39.396
86.51,261.494,39.636
86.55,262.547,39.785
86.58,263.565,40.083
86.61,264.864,40.301
86.64,266.232,40.495
86.68,267.531,40.816
86.71,268.9,41.137
86.74,270.163,41.355
86.77,271.321,41.607
86.81,272.444,41.916
86.84,273.637,42.202
86.87,274.76,42.466
86.9,275.883,42.683
86.94,276.971,42.97
86.97,278.235,43.153
87.0,279.112,43.291
87.03,279.709,43.439
87.07,280.13,43.531
87.1,280.727,43.531
87.13,281.323,43.588
87.16,281.639,43.359
87.2,281.99,43.382
87.23,282.622,43.669
87.26,283.429,43.691
87.3,283.815,43.703
87.33,284.271,43.909
87.36,284.973,44.264
87.39,285.254,44.138
87.43,284.973,44.035
87.46,285.219,44.356
87.49,285.956,44.39
87.52,286.026,44.161
87.56,285.605,44.15
87.59,285.535,44.127
87.62,285.394,43.955
87.65,284.973,43.737
87.69,284.657,43.6
87.72,284.412,43.531
87.75,284.236,43.394
87.78,283.71,43.302
87.82,283.078,43.233
87.85,282.516,43.073
87.88,281.85,42.844
87.91,280.867,42.603
87.95,280.095,42.397
87.98,279.428,42.34
88.01,278.551,42.248
88.04,277.603,42.042
88.08,276.62,41.824
88.11,275.568,41.652
88.14,274.445,41.458
88.17,273.216,41.148
88.21,271.918,40.896
88.24,270.76,40.724
88.27,269.707,40.507
88.3,268.303,40.278
88.34,266.794,40.117
88.37,265.32,39.911
88.4,263.846,39.636
88.43,262.302,39.384
88.47,260.863,39.121
88.5,259.389,38.834
88.53,257.809,38.64
88.56,256.335,38.502
88.6,254.826,38.342
88.63,253.212,38.227
88.66,251.984,38.239
88.69,250.826,38.032
88.73,249.001,37.689
88.76,246.825,37.46
88.79,245.456,37.505
88.82,244.122,37.253
88.86,241.876,36.715
88.89,239.771,36.589
88.92,238.367,36.543
88.96,236.717,36.222
88.99,234.752,35.936
89.02,233.032,35.902
89.05,231.664,35.753
89.09,229.909,35.592
89.12,227.768,35.432
89.15,225.768,35.191
89.18,223.837,34.836
89.22,221.767,34.527
89.25,219.485,34.183
89.28,217.204,33.817
89.31,215.169,33.496
89.35,213.168,33.175
89.38,210.817,32.774
89.41,208.325,32.488
89.44,206.114,32.293
89.48,204.184,31.972
89.51,202.008,31.583
89.54,199.692,31.331
89.57,197.516,31.148
89.61,195.41,30.93
89.64,193.304,30.678
89.67,191.023,30.369
89.7,188.602,30.105
89.74,186.18,29.796
89.77,183.723,29.406
89.8,181.337,29.051
89.83,178.88,28.696
89.87,176.143,28.204
89.9,173.09,27.722
89.93,170.247,27.344
89.96,167.72,26.817
90.0,164.842,26.061
90.03,161.719,25.569
90.06,158.49,25.111
90.09,155.682,24.595
90.13,152.734,24.034
90.16,149.681,23.438
90.19,146.347,22.968
90.22,143.259,22.487
90.26,140.416,22.052
90.29,137.608,21.628
90.32,134.836,21.25
90.35,131.993,20.895
90.39,129.115,20.574
90.42,126.132,20.208
90.45,123.009,19.772
90.48,119.815,19.222
90.52,116.411,18.661
90.55,112.936,18.1
90.58,109.567,17.538
90.62,106.339,16.954
90.65,103.004,16.37
90.68,99.565,15.763
90.71,96.301,15.224
90.75,93.108,14.732
90.78,89.914,14.171
90.81,86.65,13.655
90.84,83.246,13.3
90.88,80.017,12.899
90.91,77.034,12.658
90.94,74.297,12.338
90.97,71.173,11.811
91.01,67.804,11.398
91.04,64.084,10.952
91.07,60.645,10.402
91.1,57.346,9.978
91.14,54.222,9.416
91.17,50.572,8.706
91.2,47.133,8.122
91.23,43.202,7.664
91.27,40.64,6.954
91.3,41.518,5.235
91.33,46.782,1.363
91.36,40.43,-2.188
91.4,27.339,-0.813
91.43,27.866,0.183
91.46,25.058,-0.997
91.49,16.495,-1.157
91.53,9.195,-0.836
91.56,3.931,-0.745
91.59,-0.983,-0.642
91.62,-2.913,-0.183
91.66,-3.053,-0.263
91.69,-5.65,-0.619
91.72,-9.09,-0.619
91.75,-11.125,-0.733
91.79,-14.81,-1.031
91.82,-19.548,-1.833
91.85,-25.514,-2.807
91.88,-31.902,-3.196
91.92,-37.271,-3.208
91.95,-40.324,-3.471
91.98,-41.588,-4.296
92.01,-42.781,-5.292
92.05,-44.957,-6.026
92.08,-47.87,-6.232
92.11,-50.677,-6.003
92.14,-53.064,-5.819
92.18,-55.872,-6.06
92.21,-59.486,-6.564
92.24,-63.733,-7.08
92.28,-67.944,-7.595
92.31,-71.454,-8.259
92.34,-74.542,-9.119
92.37,-77.841,-10.127
92.41,-81.316,-10.86
92.44,-84.404,-11.249
92.47,-87.177,-11.719
92.5,-90.125,-12.257
92.54,-93.318,-12.59
92.57,-96.617,-12.945
92.6,-100.056,-13.46
92.63,-103.636,-13.999
92.67,-107.181,-14.606
92.7,-110.55,-15.339
92.73,-113.849,-16.061
92.76,-117.253,-16.805
92.8,-120.798,-17.378
92.83,-123.851,-17.836
92.86,-126.518,-18.157
92.89,-129.15,-18.73
92.93,-132.309,-19.211
92.96,-135.854,-19.612
92.99,-139.153,-19.99
93.02,-142.241,-20.494
93.06,-145.049,-20.952
93.09,-148.312,-21.685
93.12,-151.541,-22.166
93.15,-154.454,-22.533
93.19,-157.297,-23.186
93.22,-160.315,-23.69
93.25,-163.298,-24.068
93.28,-166.035,-24.435
93.32,-169.054,-24.881
93.35,-171.931,-25.271
93.38,-174.283,-25.512
93.41,-176.599,-25.855
93.45,-179.477,-26.336
93.48,-182.635,-26.806
93.51,-185.233,-26.921
93.54,-187.233,-27.207
93.58,-189.514,-27.871
93.61,-192.392,-28.272
93.64,-194.989,-28.295
93.67,-196.884,-28.547
93.71,-198.709,-29.074
93.74,-201.096,-29.429
93.77,-203.728,-29.624
93.8,-205.658,-29.762
93.84,-207.062,-29.83
93.87,-208.641,-29.979
93.9,-210.641,-30.254
93.94,-212.958,-30.495
93.97,-214.958,-30.793
94.0,-217.064,-31.251
94.03,-219.45,-31.801
94.07,-221.767,-32.408
94.1,-223.907,-32.9
94.13,-225.978,-33.336
94.16,-228.224,-33.943
94.2,-230.435,-34.286
94.23,-232.12,-34.447
94.26,-233.383,-34.802
94.29,-235.208,-35.191
94.33,-237.209,-35.272
94.36,-238.718,-35.272
94.39,-239.841,-35.489
94.42,-241.28,-35.73
94.46,-242.999,-35.902
94.49,-244.543,-36.062
94.52,-245.947,-36.348
94.55,-247.491,-36.715
94.59,-249.036,-37.047
94.62,-250.545,-37.345
94.65,-252.124,-37.631
94.68,-253.458,-37.987
94.72,-254.756,-38.33
94.75,-256.511,-38.662
94.78,-258.231,-39.029
94.81,-259.88,-39.35
94.85,-261.143,-39.671
94.88,-262.161,-40.049
94.91,-263.425,-40.369
94.94,-264.899,-40.633
94.98,-266.408,-40.885
95.01,-267.776,-41.16
95.04,-269.04,-41.423
95.07,-270.163,-41.675
95.11,-271.321,-41.939
95.14,-272.374,-42.225
95.17,-273.497,-42.523
95.2,-274.655,-42.764
95.24,-275.919,-42.912
95.27,-277.112,-43.187
95.3,-278.059,-43.508
95.33,-278.867,-43.714
95.37,-279.639,-43.886
95.4,-280.446,-43.921
95.43,-281.042,-43.898
95.46,-281.674,-43.978
95.5,-282.481,-44.047
95.53,-283.324,-44.173
95.56,-283.815,-44.299
95.6,-284.096,-44.516
95.63,-284.727,-44.665
95.66,-285.605,-44.619
95.69,-285.605,-44.436
95.73,-285.57,-44.493
95.76,-285.57,-44.413
95.79,-285.815,-44.322
95.82,-285.745,-44.138
95.86,-285.184,-43.875
95.89,-284.938,-43.829
95.92,-284.973,-43.669
95.95,-284.341,-43.394
95.99,-283.499,-43.187
96.02,-283.183,-43.176
96.05,-283.218,-43.165
96.08,-282.938,-43.107
96.12,-282.411,-43.016
96.15,-281.604,-42.924
96.18,-280.762,-42.844
96.21,-280.13,-42.649
96.25,-279.358,-42.431
96.28,-278.551,-42.328
96.31,-278.094,-42.363
96.34,-277.603,-42.294
96.38,-276.901,-42.214
96.41,-275.919,-42.145
96.44,-274.901,-42.134
96.47,-273.813,-41.836
96.51,-272.725,-41.607
96.54,-272.198,-41.698
96.57,-271.286,-41.4
96.6,-269.742,-41.137
96.64,-268.759,-41.32
96.67,-268.057,-41.171
96.7,-266.513,-40.679
96.73,-264.513,-40.415
96.77,-263.179,-40.278
96.8,-261.986,-39.854
96.83,-260.126,-39.476
96.86,-258.546,-39.155
96.9,-257.178,-38.926
96.93,-255.634,-38.651
96.96,-253.984,-38.422
96.99,-252.054,-38.158
97.03,-250.229,-37.998
97.06,-248.685,-37.826
97.09,-247.141,-37.483
97.12,-245.21,-37.15
97.16,-243.35,-37.013
97.19,-241.701,-36.852
97.22,-239.771,-36.566
97.26,-237.77,-36.44
97.29,-236.086,-36.245
97.32,-234.331,-35.97
97.35,-232.576,-35.741
97.39,-230.856,-35.569
97.42,-229.207,-35.386
97.45,-227.171,-35.191
97.48,-225.031,-34.974
97.52,-223.17,-34.825
97.55,-221.486,-34.607
97.58,-219.591,-34.355
97.61,-217.45,-34.16
97.65,-215.485,-33.943
97.68,-213.66,-33.645
97.71,-211.694,-33.381
97.74,-209.589,-33.038
97.78,-207.167,-32.637
97.81,-204.605,-32.35
97.84,-202.394,-32.098
97.87,-200.604,-31.766
97.91,-198.499,-31.4
97.94,-195.972,-31.056
97.97,-193.41,-30.758
98.0,-191.023,-30.437
98.04,-188.707,-30.059
98.07,-186.18,-29.509
98.1,-183.408,-29.005
98.13,-180.635,-28.639
98.17,-178.073,-28.249
98.2,-175.406,-27.711
98.23,-172.423,-27.184
98.26,-169.51,-26.737
98.3,-166.562,-26.302
98.33,-163.754,-25.741
98.36,-160.736,-25.145
98.39,-158.034,-24.79
98.43,-155.121,-24.412
98.46,-152.068,-23.633
98.49,-148.979,-23.323
98.52,-146.101,-23.014
98.56,-143.364,-22.602
98.59,-140.17,-22.006
98.62,-137.012,-21.571
98.65,-134.029,-21.193
98.69,-131.291,-20.803
98.72,-128.519,-20.368
98.75,-125.36,-19.818
98.78,-121.956,-19.348
98.82,-118.622,-18.902
98.85,-115.182,-18.272
98.88,-111.743,-17.527
98.91,-108.199,-16.977
98.95,-104.794,-16.393
98.98,-101.636,-15.854
99.01,-98.723,-15.408
99.05,-95.775,-14.904
99.08,-92.546,-14.4
99.11,-89.072,-14.056
99.14,-85.913,-13.815
99.18,-82.93,-13.483
99.21,-79.877,-12.945
99.24,-76.578,-12.521
99.27,-73.349,-12.097
99.31,-69.98,-11.559
99.34,-66.505,-11.02
99.37,-63.171,-10.654
99.4,-60.188,-10.184
99.44,-56.96,-9.542
99.47,-53.485,-8.947
99.5,-50.011,-8.569
99.53,-46.817,-8.248
99.57,-43.658,-7.629
99.6,-40.43,-7.08
99.63,-39.973,-5.865
99.66,-44.29,-2.658
99.7,-43.097,1.615
99.73,-29.094,1.592
99.76,-25.935,-0.149
99.79,-25.865,0.71
99.83,-18.355,1.249
99.86,-10.318,1.02
99.89,-4.247,0.859
99.92,1.404,0.859
99.96,4.317,0.298
99.99,4.808,0.424
100.02,8.282,0.756
100.05,11.897,0.561
100.09,14.178,0.848
100.12,17.793,1.661
100.15,22.777,2.303
100.18,28.041,2.726
100.22,32.568,2.818
100.25,35.271,2.944
100.28,36.324,3.505
100.31,37.657,4.41
100.35,40.184,5.086
100.38,43.343,5.121
100.41,46.22,4.96
100.44,48.853,5.063
100.48,51.906,5.51
100.51,55.766,6.049
100.54,59.908,6.656
100.57,63.943,7.354
100.61,67.628,8.179
100.64,70.998,9.05
100.67,74.156,9.921
100.71,77.42,10.677
100.74,80.649,11.238
100.77,83.842,11.604
100.8,86.826,11.96
100.84,89.949,12.372
100.87,93.213,12.853
100.9,96.722,13.323
100.93,100.232,13.827
100.97,103.777,14.434
101.0,107.251,15.144
101.03,110.831,15.854
101.06,114.375,16.473
101.1,117.499,17.069
101.13,120.552,17.607
101.16,123.711,18.237
101.19,127.115,18.879
101.23,130.94,19.429
101.26,134.274,19.852
101.29,137.222,20.345
101.32,140.24,21.113
101.36,143.469,21.479
101.39,146.417,21.754
101.42,148.909,22.063
101.45,151.401,22.292
101.49,153.893,22.464
101.52,156.56,22.728
101.55,159.438,23.071
101.58,162.456,23.392
101.62,165.263,23.736
101.65,167.896,24.194
101.68,170.633,24.71
101.71,173.335,25.156
101.75,175.967,25.592
101.78,178.494,26.05
101.81,181.232,26.531
101.84,183.934,26.932
101.88,186.496,27.31
101.91,188.918,27.722
101.94,191.374,28.112
101.97,193.901,28.478
102.01,196.428,28.845
102.04,199.06,29.235
102.07,201.376,29.555
102.1,203.447,29.83
102.14,205.412,30.185
102.17,207.483,30.472
102.2,209.589,30.586
102.23,211.449,30.712
102.27,213.239,30.976
102.3,215.274,31.262
102.33,217.345,31.571
102.37,219.38,31.961
102.4,221.381,32.373
102.43,223.627,32.751
102.46,225.768,33.244
102.5,227.803,33.576
102.53,229.558,33.908
102.56,231.523,34.401
102.59,233.769,34.825
102.63,235.735,35.008
102.66,237.138,35.169
102.69,238.367,35.443
102.72,239.981,35.741
102.76,241.771,35.902
102.79,243.175,36.062
102.82,244.543,36.383
102.85,246.404,36.658
102.89,248.264,36.91
102.92,249.738,37.242
102.95,251.176,37.528
102.98,252.51,37.849
103.02,253.984,38.273
103.05,255.949,38.605
103.08,257.564,38.857
103.11,258.932,39.235
103.15,260.477,39.636
103.18,261.88,39.911
103.21,263.039,40.037
103.24,264.056,40.22
103.28,265.285,40.438
103.31,266.689,40.656
103.34,267.917,40.873
103.37,269.075,41.125
103.41,270.268,41.423
103.44,271.532,41.652
103.47,272.585,41.893
103.5,273.602,42.202
103.54,274.69,42.42
103.57,275.813,42.649
103.6,276.936,42.89
103.63,278.094,43.142
103.67,279.077,43.302
103.7,279.814,43.428
103.73,280.446,43.588
103.76,281.148,43.634
103.8,281.639,43.565
103.83,281.99,43.611
103.86,282.657,43.657
103.89,283.253,43.657
103.93,283.71,43.783
103.96,284.271,43.932
103.99,284.727,43.978
104.03,285.324,44.299
104.06,285.254,44.184
104.09,285.078,43.886
104.12,285.71,44.31
104.16,286.482,44.344
104.19,286.131,44.092
104.22,285.429,44.15
104.25,285.535,44.241
104.29,285.71,44.035
104.32,285.219,43.76
104.35,284.727,43.829
104.38,284.903,43.863
104.42,284.727,43.737
104.45,284.236,43.634
104.48,283.64,43.554
104.51,282.797,43.382
104.55,282.06,43.176
104.58,281.464,42.912
104.61,280.551,42.626
104.64,279.639,42.477
104.68,279.042,42.351
104.71,278.375,42.156
104.74,277.357,41.973
104.77,276.27,41.778
104.81,275.111,41.584
104.84,273.883,41.332
104.87,272.725,41.091
104.9,271.532,40.828
104.94,269.987,40.576
104.97,268.549,40.427
105.0,267.426,40.198
105.03,265.987,39.831
105.07,264.232,39.579
105.1,262.688,39.407
105.13,261.354,39.178
105.16,260.02,38.892
105.2,258.195,38.662
105.23,256.581,38.514
105.26,255.037,38.319
105.29,253.282,37.964
105.33,251.141,37.505
105.36,249.352,37.425
105.39,247.842,37.265
105.42,246.123,36.944
105.46,244.122,36.692
105.49,242.473,36.726
105.52,241.28,36.749
105.55,239.735,36.486
105.59,237.7,36.326
105.62,236.05,36.394
105.65,234.787,36.291
105.69,233.138,35.959
105.72,231.137,35.764
105.75,229.347,35.718
105.78,227.628,35.489
105.82,225.662,35.134
105.85,223.521,34.848
105.88,221.416,34.63
105.91,219.45,34.332
105.95,217.485,34.0
105.98,215.344,33.691
106.01,213.203,33.427
106.04,210.957,33.129
106.08,208.746,32.786
106.11,206.535,32.442
106.14,204.289,32.133
106.17,202.184,31.846
106.21,200.078,31.571
106.24,198.007,31.331
106.27,196.007,31.113
106.3,193.69,30.838
106.34,191.269,30.598
106.37,188.953,30.323
106.4,186.531,29.91
106.43,183.864,29.452
106.47,181.197,29.12
106.5,178.74,28.685
106.53,176.143,28.135
106.56,173.23,27.574
106.6,170.282,27.15
106.63,167.58,26.691
106.66,164.772,26.096
106.69,161.754,25.592
106.73,158.665,25.156
106.76,155.472,24.458
106.79,152.454,24.034
106.82,149.33,23.461
106.86,146.347,22.9
106.89,143.083,22.338
106.92,139.714,21.743
106.95,136.766,21.491
106.99,134.099,21.09
107.02,131.361,20.574
107.05,128.168,20.116
107.08,124.939,19.795
107.12,121.815,19.406
107.15,118.762,18.936
107.18,115.639,18.421
107.21,112.515,17.894
107.25,109.251,17.447
107.28,106.058,16.943
107.31,103.075,16.576
107.35,100.162,16.198
107.38,97.073,15.66
107.41,93.81,15.19
107.44,90.265,14.663
107.48,86.826,14.171
107.51,83.562,13.792
107.54,80.473,13.231
107.57,76.999,12.555
107.61,73.384,11.971
107.64,69.839,11.49
107.67,66.646,10.986
107.7,63.557,10.551
107.74,60.68,10.115
107.77,57.381,9.703
107.8,54.012,9.233
107.83,50.327,8.855
107.87,47.133,8.443
107.9,43.378,7.87
107.93,40.746,7.045
107.96,41.167,5.35
108.0,46.291,1.386
108.03,39.693,-2.222
108.06,26.532,-0.768
108.09,27.48,0.229
108.13,25.479,-0.916
108.16,17.477,-1.1
108.19,10.844,-0.756
108.22,5.615,-0.779
108.26,-0.14,-0.825
108.29,-3.755,-0.332
108.32,-3.685,-0.149
108.35,-6.142,-0.63
108.39,-9.09,-0.779
108.42,-10.809,-1.363
108.45,-15.758,-1.753
108.48,-21.162,-2.073
108.52,-26.813,-2.52
108.55,-32.007,-2.795
108.58,-36.464,-3.059
108.61,-39.131,-3.528
108.65,-40.465,-4.319
108.68,-41.728,-5.189
108.71,-43.939,-5.705
108.74,-46.642,-5.716
108.78,-49.449,-5.602
108.81,-52.432,-5.636
108.84,-55.766,-5.9
108.87,-59.521,-6.404
108.91,-63.628,-7.102
108.94,-67.804,-7.904
108.97,-71.594,-8.729
109.01,-74.998,-9.52
109.04,-78.157,-10.344
109.07,-81.175,-11.123
109.1,-84.334,-11.65
109.14,-87.457,-11.994
109.17,-90.511,-12.349
109.2,-93.529,-12.704
109.23,-96.687,-13.082
109.27,-100.056,-13.575
109.3,-103.566,-14.102
109.33,-107.005,-14.617
109.36,-110.48,-15.224
109.4,-113.849,-15.854
109.43,-116.972,-16.439
109.46,-120.166,-17.092
109.49,-123.325,-17.687
109.53,-126.553,-18.134
109.56,-129.712,-18.661
109.59,-133.046,-19.257
109.62,-136.24,-19.818
109.66,-139.223,-20.196
109.69,-142.346,-20.941
109.72,-145.645,-21.422
109.75,-148.979,-21.869
109.79,-151.717,-22.327
109.82,-154.349,-22.739
109.85,-157.262,-23.289
109.88,-160.526,-23.839
109.92,-163.684,-24.137
109.95,-166.492,-24.389
109.98,-168.948,-24.847
110.01,-171.791,-25.489
110.05,-174.669,-25.775
110.08,-177.126,-25.855
110.11,-179.442,-26.187
110.14,-182.074,-26.669
110.18,-184.917,-27.092
110.21,-187.549,-27.344
110.24,-189.795,-27.711
110.27,-192.181,-28.158
110.31,-194.743,-28.547
110.34,-197.2,-28.811
110.37,-199.586,-29.189
110.4,-201.903,-29.555
110.44,-204.149,-29.865
110.47,-206.325,-30.128
110.5,-208.115,-30.288
110.53,-209.799,-30.437
110.57,-211.659,-30.747
110.6,-213.8,-30.987
110.63,-216.046,-31.182
110.66,-218.152,-31.468
110.7,-220.082,-31.869
110.73,-221.907,-32.396
110.76,-223.907,-32.82
110.8,-225.908,-33.084
110.83,-227.979,-33.519
110.86,-230.049,-33.874
110.89,-231.664,-34.069
110.93,-233.032,-34.344
110.96,-234.752,-34.687
110.99,-236.717,-34.997
111.02,-238.437,-35.18
111.06,-239.841,-35.375
111.09,-241.209,-35.661
111.12,-242.719,-35.97
111.15,-244.438,-36.245
111.19,-246.053,-36.543
111.22,-247.597,-36.738
111.25,-249.071,-37.082
111.28,-250.79,-37.631
111.32,-252.756,-38.09
111.35,-254.791,-38.514
111.38,-256.862,-39.075
111.41,-258.687,-39.671
111.45,-260.582,-40.289
111.48,-262.407,-40.828
111.51,-264.091,-41.194
111.54,-265.846,-41.629
111.58,-267.776,-42.099
111.61,-269.847,-42.546
111.64,-271.883,-43.061
111.67,-273.637,-43.52
111.71,-275.322,-44.012
111.74,-277.182,-44.482
111.77,-279.077,-44.826
111.8,-280.516,-45.089
111.84,-281.779,-45.318
111.87,-283.043,-45.467
111.9,-284.201,-45.467
111.93,-285.008,-45.364
111.97,-285.464,-45.261
112.0,-285.675,-45.032
112.03,-285.78,-44.654
112.06,-285.851,-44.218
112.1,-285.745,-43.703
112.13,-285.254,-43.336
112.16,-285.078,-43.279
112.19,-285.71,-43.222
112.23,-286.201,-43.142
112.26,-286.272,-43.13
112.29,-286.201,-43.279
112.32,-286.482,-43.336
112.36,-286.833,-43.302
112.39,-286.798,-43.313
112.42,-286.833,-43.508
112.46,-287.149,-43.737
112.49,-287.395,-43.875
112.52,-287.36,-43.886
112.55,-287.149,-43.817
112.59,-286.833,-43.669
112.62,-286.166,-43.543
112.65,-285.429,-43.382
112.68,-285.184,-43.21
112.72,-284.938,-43.027
112.75,-284.377,-42.924
112.78,-283.745,-42.844
112.81,-283.113,-42.741
112.85,-282.376,-42.592
112.88,-281.358,-42.466
112.91,-280.516,-42.363
112.94,-280.13,-42.248
112.98,-279.498,-42.156
113.01,-278.726,-42.145
113.04,-277.779,-42.065
113.07,-276.726,-41.962
113.11,-275.603,-41.801
113.14,-274.374,-41.538
113.17,-273.006,-41.217
113.2,-271.707,-40.999
113.24,-270.76,-40.828
113.27,-269.601,-40.633
113.3,-268.233,-40.472
113.33,-266.724,-40.324
113.37,-265.285,-40.117
113.4,-263.951,-39.842
113.43,-262.512,-39.533
113.46,-260.968,-39.258
113.5,-259.248,-39.063
113.53,-257.704,-38.88
113.56,-256.371,-38.651
113.59,-254.721,-38.468
113.63,-253.001,-38.25
113.66,-251.387,-37.998
113.69,-249.843,-37.792
113.72,-248.228,-37.7
113.76,-246.754,-37.54
113.79,-245.21,-37.379
113.82,-243.491,-37.322
113.85,-241.806,-37.15
113.89,-240.051,-36.852
113.92,-238.086,-36.646
113.95,-236.261,-36.486
113.98,-234.401,-36.211
114.02,-232.611,-35.959
114.05,-230.365,-35.604
114.08,-225.276,-33.679
114.12,-217.661,-30.999
114.15,-210.922,-29.555
114.18,-206.956,-28.226
114.21,-203.482,-26.164
114.25,-199.095,-24.847
114.28,-196.147,-25.111
114.31,-196.007,-26.05
114.34,-196.709,-27.241
114.38,-197.832,-28.753
114.41,-199.236,-30.426
114.44,-199.551,-31.995
114.47,-198.955,-33.393
114.51,-198.042,-34.412
114.54,-197.27,-34.894
114.57,-195.937,-34.756
114.6,-193.69,-34.309
114.64,-191.304,-33.714
114.67,-189.128,-33.152
114.7,-187.338,-32.557
114.73,-185.373,-31.972
114.77,-183.267,-31.445
114.8,-181.161,-31.171
114.83,-179.091,-30.793
114.86,-176.704,-30.128
114.9,-173.686,-29.383
114.93,-170.352,-28.616
114.96,-166.878,-27.768
114.99,-163.509,-26.817
115.03,-160.175,-25.855
115.06,-156.841,-24.985
115.09,-153.717,-24.286
115.12,-150.769,-23.644
115.16,-147.821,-23.083
115.19,-145.013,-22.613
115.22,-141.925,-22.224
115.25,-138.766,-21.788
115.29,-135.854,-21.456
115.32,-132.976,-21.101
115.35,-129.993,-20.586
115.38,-126.834,-20.07
115.42,-123.535,-19.658
115.45,-120.482,-19.165
115.48,-117.709,-18.627
115.51,-114.972,-18.249
115.55,-112.199,-17.905
115.58,-109.462,-17.538
115.61,-106.514,-17.252
115.64,-103.601,-17.023
115.68,-100.688,-16.748
115.71,-97.565,-16.313
115.74,-94.196,-15.786
115.78,-90.862,-15.247
115.81,-87.843,-14.755
115.84,-84.685,-14.171
115.87,-81.386,-13.529
115.91,-78.192,-12.991
115.94,-74.858,-12.509
115.97,-71.454,-11.891
116.0,-68.12,-11.33
116.04,-64.891,-10.837
116.07,-61.592,-10.276
116.1,-58.118,-9.703
116.13,-54.538,-9.107
116.17,-50.888,-8.534
116.2,-47.449,-8.099
116.23,-43.939,-7.458
116.26,-40.781,-6.759
116.3,-40.149,-5.556
116.33,-44.746,-2.474
116.36,-43.343,1.695
116.39,-29.55,1.478
116.43,-26.988,-0.149
116.46,-26.813,0.699
116.49,-19.969,1.146
116.52,-12.599,0.985
116.56,-6.563,0.848
116.59,-0.983,0.894
116.62,3.615,0.596
