Trigger_Date,2023/08/25
Trigger_Time,T 10:52:38.675 PDT
Samples_Per_Cycle,512
Microseconds_Per_Sample,32.553
Time (ms),Voltage (V),Current (A)
-16.67,3.931,0.08
-16.63,4.878,0.699
-16.6,9.616,0.745
-16.57,12.389,0.481
-16.54,14.81,0.894
-16.5,18.951,1.546
-16.47,23.689,2.36
-16.44,29.094,2.864
-16.41,33.376,2.841
-16.37,35.657,3.013
-16.34,36.674,3.792
-16.31,38.394,4.72
-16.28,41.167,5.201
-16.24,44.255,5.189
-16.21,46.922,5.052
-16.18,49.449,5.235
-16.15,52.573,5.716
-16.11,56.573,6.266
-16.08,60.75,6.793
-16.05,64.575,7.458
-16.02,68.015,8.351
-15.98,71.524,9.302
-15.95,74.928,10.115
-15.92,78.192,10.768
-15.89,81.351,11.341
-15.85,84.404,11.799
-15.82,87.492,12.246
-15.79,90.686,12.613
-15.76,93.81,12.991
-15.72,96.968,13.403
-15.69,100.197,13.896
-15.66,103.777,14.445
-15.63,107.181,15.007
-15.59,110.515,15.58
-15.56,113.638,16.267
-15.53,116.902,16.885
-15.5,120.096,17.447
-15.46,123.219,17.939
-15.43,126.413,18.524
-15.4,129.677,19.039
-15.36,132.976,19.6
-15.33,136.345,20.253
-15.3,139.819,20.78
-15.27,142.802,21.25
-15.23,145.645,21.754
-15.2,148.593,22.27
-15.17,151.576,22.682
-15.14,154.454,23.037
-15.1,157.262,23.438
-15.07,160.175,23.885
-15.04,163.403,24.332
-15.01,166.386,24.698
-14.97,169.019,25.065
-14.94,171.581,25.534
-14.91,174.388,25.958
-14.88,177.336,26.371
-14.84,180.214,26.806
-14.81,182.846,27.287
-14.78,185.513,27.722
-14.75,188.005,28.135
-14.71,190.497,28.524
-14.68,192.989,28.765
-14.65,195.094,28.891
-14.62,197.06,29.154
-14.58,199.095,29.406
-14.55,201.166,29.441
-14.52,202.956,29.532
-14.49,204.781,29.681
-14.45,206.5,29.693
-14.42,208.08,29.75
-14.39,209.764,29.968
-14.36,211.694,30.231
-14.32,213.66,30.483
-14.29,215.59,30.781
-14.26,217.415,31.182
-14.23,219.24,31.629
-14.19,221.135,32.018
-14.16,222.96,32.442
-14.13,224.995,32.9
-14.1,227.136,33.29
-14.06,229.172,33.679
-14.03,231.067,34.069
-14.0,232.962,34.527
-13.97,234.892,34.985
-13.93,236.787,35.478
-13.9,238.507,35.81
-13.87,240.192,36.074
-13.83,241.982,36.474
-13.8,243.666,36.818
-13.77,245.245,37.105
-13.74,246.86,37.483
-13.7,248.755,37.872
-13.67,250.369,38.055
-13.64,251.773,38.296
-13.61,253.317,38.651
-13.57,255.037,38.937
-13.54,256.546,39.178
-13.51,257.88,39.464
-13.48,259.319,39.819
-13.44,260.687,40.049
-13.41,261.81,40.129
-13.38,262.793,40.301
-13.35,264.021,40.53
-13.31,265.25,40.759
-13.28,266.478,40.954
-13.25,267.671,41.137
-13.22,268.794,41.355
-13.18,269.952,41.629
-13.15,270.97,41.87
-13.12,272.058,42.134
-13.09,273.111,42.351
-13.05,274.199,42.557
-13.02,275.252,42.786
-12.99,276.234,43.05
-12.96,277.042,43.256
-12.92,277.708,43.348
-12.89,278.41,43.497
-12.86,279.042,43.554
-12.83,279.568,43.497
-12.79,279.955,43.531
-12.76,280.692,43.726
-12.73,281.499,43.909
-12.7,281.744,43.795
-12.66,281.99,43.989
-12.63,282.516,44.104
-12.6,283.078,43.909
-12.57,283.078,43.921
-12.53,283.078,43.943
-12.5,283.324,43.955
-12.47,283.499,43.955
-12.44,283.569,43.989
-12.4,283.359,43.932
-12.37,282.832,43.703
-12.34,282.13,43.508
-12.3,281.779,43.291
-12.27,281.534,43.073
-12.24,281.288,42.924
-12.21,280.797,42.97
-12.17,280.586,43.176
-12.14,280.727,43.336
-12.11,280.762,43.439
-12.08,280.656,43.554
-12.04,280.481,43.669
-12.01,280.235,43.726
-11.98,279.744,43.806
-11.95,279.253,43.829
-11.91,278.586,43.68
-11.88,277.568,43.382
-11.85,276.34,42.993
-11.82,275.041,42.5
-11.78,273.497,41.962
-11.75,271.777,41.515
-11.72,270.338,41.125
-11.69,268.864,40.679
-11.65,267.18,40.289
-11.62,265.671,39.945
-11.59,264.232,39.522
-11.56,262.688,39.235
-11.52,261.143,39.041
-11.49,259.634,38.857
-11.46,258.266,38.72
-11.43,256.827,38.548
-11.39,255.283,38.388
-11.36,253.703,38.216
-11.33,251.984,38.078
-11.3,250.404,37.838
-11.26,248.65,37.574
-11.23,246.895,37.425
-11.2,245.105,37.196
-11.17,243.35,36.967
-11.13,241.666,36.738
-11.1,239.911,36.578
-11.07,237.805,36.28
-11.04,235.875,36.062
-11.0,234.471,36.005
-10.97,232.857,35.799
-10.94,230.856,35.512
-10.91,228.996,35.409
-10.87,227.452,35.386
-10.84,225.697,35.169
-10.81,223.557,34.871
-10.77,221.521,34.664
-10.74,219.415,34.458
-10.71,217.45,34.103
-10.68,215.379,33.748
-10.64,213.203,33.45
-10.61,211.098,33.141
-10.58,208.922,32.82
-10.55,206.606,32.534
-10.51,204.395,32.213
-10.48,202.254,31.869
-10.45,200.078,31.526
-10.42,197.902,31.251
-10.38,195.831,31.033
-10.35,193.69,30.838
-10.32,191.339,30.586
-10.29,189.058,30.369
-10.25,186.882,30.14
-10.22,184.425,29.704
-10.19,181.863,29.315
-10.16,179.442,29.028
-10.12,177.161,28.593
-10.09,174.318,28.078
-10.06,171.44,27.619
-10.03,168.633,27.15
-9.99,165.93,26.669
-9.96,162.982,26.038
-9.93,159.789,25.477
-9.9,156.56,24.927
-9.86,153.752,24.4
-9.83,150.629,23.793
-9.8,147.47,23.083
-9.77,144.592,22.854
-9.73,141.644,22.235
-9.7,138.521,21.64
-9.67,135.397,21.33
-9.64,132.66,20.941
-9.6,129.887,20.517
-9.57,126.799,20.127
-9.54,123.43,19.681
-9.51,120.026,19.257
-9.47,117.043,18.81
-9.44,113.989,18.237
-9.41,110.76,17.619
-9.38,107.426,17.183
-9.34,104.268,16.737
-9.31,101.144,16.21
-9.28,98.126,15.74
-9.24,95.003,15.305
-9.21,91.704,14.801
-9.18,88.229,14.365
-9.15,85.001,13.918
-9.11,81.807,13.357
-9.08,78.543,12.807
-9.05,75.244,12.361
-9.02,72.05,11.925
-8.98,68.927,11.49
-8.95,65.909,11.043
-8.92,62.715,10.619
-8.89,59.451,10.241
-8.85,56.293,9.909
-8.82,53.239,9.497
-8.79,49.94,9.05
-8.76,46.747,8.592
-8.72,42.851,8.053
-8.69,40.114,7.389
-8.66,40.71,5.728
-8.63,46.045,1.753
-8.59,40.535,-2.154
-8.56,26.497,-0.974
-8.53,26.006,0.149
-8.5,23.619,-0.894
-8.46,16.109,-1.02
-8.43,9.019,-0.882
-8.4,2.913,-0.848
-8.37,-2.492,-0.642
-8.33,-3.755,-0.057
-8.3,-3.685,-0.378
-8.27,-7.581,-0.699
-8.24,-10.213,-0.687
-8.2,-12.494,-1.191
-8.17,-17.267,-1.684
-8.14,-22.672,-2.291
-8.11,-28.638,-2.807
-8.07,-33.867,-2.978
-8.04,-37.341,-3.116
-8.01,-38.64,-3.883
-7.98,-39.798,-4.926
-7.94,-41.798,-5.659
-7.91,-44.676,-5.842
-7.88,-47.308,-5.625
-7.85,-49.66,-5.407
-7.81,-52.397,-5.602
-7.78,-56.152,-6.026
-7.75,-60.399,-6.449
-7.71,-64.4,-6.965
-7.68,-68.05,-7.698
-7.65,-71.489,-8.626
-7.62,-74.823,-9.623
-7.58,-78.122,-10.344
-7.55,-81.14,-10.803
-7.52,-83.983,-11.375
-7.49,-86.79,-11.902
-7.45,-89.844,-12.269
-7.42,-93.143,-12.647
-7.39,-96.477,-13.048
-7.36,-99.881,-13.46
-7.32,-103.391,-14.045
-7.29,-106.9,-14.663
-7.26,-110.304,-15.339
-7.23,-113.673,-16.233
-7.19,-117.148,-16.943
-7.16,-120.552,-17.39
-7.13,-123.57,-18.02
-7.1,-126.694,-18.684
-7.06,-130.028,-19.199
-7.03,-133.678,-19.875
-7.0,-137.257,-20.414
-6.97,-140.451,-20.712
-6.93,-143.118,-21.158
-6.9,-145.786,-21.777
-6.87,-148.909,-22.327
-6.84,-152.138,-22.648
-6.8,-154.98,-22.854
-6.77,-157.507,-23.129
-6.74,-160.175,-23.564
-6.71,-163.017,-23.999
-6.67,-165.86,-24.332
-6.64,-168.633,-24.675
-6.61,-171.265,-25.099
-6.58,-173.897,-25.443
-6.54,-176.494,-25.809
-6.51,-179.196,-26.382
-6.48,-182.074,-26.829
-6.45,-184.811,-27.184
-6.41,-187.338,-27.631
-6.38,-189.655,-28.078
-6.35,-191.936,-28.421
-6.32,-194.252,-28.708
-6.28,-196.498,-28.983
-6.25,-198.849,-29.235
-6.22,-201.131,-29.452
-6.19,-203.166,-29.624
-6.15,-204.956,-29.807
-6.12,-206.746,-30.036
-6.09,-208.606,-30.22
-6.05,-210.536,-30.369
-6.02,-212.221,-30.586
-5.99,-214.011,-30.896
-5.96,-215.941,-31.148
-5.92,-217.941,-31.48
-5.89,-220.012,-31.927
-5.86,-221.977,-32.305
-5.83,-223.872,-32.671
-5.79,-225.978,-33.118
-5.76,-227.943,-33.599
-5.73,-229.874,-34.034
-5.7,-231.839,-34.458
-5.66,-233.699,-34.825
-5.63,-235.699,-35.249
-5.6,-237.489,-35.684
-5.57,-239.174,-36.005
-5.53,-240.929,-36.314
-5.5,-242.683,-36.589
-5.47,-244.157,-36.887
-5.44,-245.667,-37.219
-5.4,-247.351,-37.563
-5.37,-248.825,-37.654
-5.34,-249.773,-37.792
-5.31,-251.212,-38.158
-5.27,-252.966,-38.376
-5.24,-254.335,-38.502
-5.21,-255.634,-38.846
-5.18,-257.318,-39.189
-5.14,-258.792,-39.476
-5.11,-260.056,-39.819
-5.08,-261.319,-40.06
-5.05,-262.477,-40.198
-5.01,-263.6,-40.472
-4.98,-264.793,-40.782
-4.95,-265.952,-41.103
-4.92,-267.285,-41.332
-4.88,-268.549,-41.481
-4.85,-269.496,-41.687
-4.82,-270.584,-41.904
-4.79,-271.497,-42.156
-4.75,-272.514,-42.42
-4.72,-273.637,-42.626
-4.69,-274.796,-42.924
-4.66,-275.954,-43.187
-4.62,-276.866,-43.405
-4.59,-277.533,-43.611
-4.56,-278.27,-43.714
-4.52,-279.007,-43.749
-4.49,-279.639,-43.829
-4.46,-280.376,-43.909
-4.43,-281.007,-44.047
-4.39,-281.464,-43.989
-4.36,-281.885,-44.161
-4.33,-282.622,-44.459
-4.3,-283.183,-44.413
-4.26,-283.324,-44.367
-4.23,-283.324,-44.436
-4.2,-283.534,-44.39
-4.17,-283.675,-44.276
-4.13,-283.675,-44.299
-4.1,-283.604,-44.356
-4.07,-283.675,-44.264
-4.04,-283.359,-44.081
-4.0,-282.867,-43.932
-3.97,-282.552,-43.749
-3.94,-282.095,-43.6
-3.91,-281.744,-43.543
-3.87,-281.534,-43.462
-3.84,-281.007,-43.359
-3.81,-280.341,-43.291
-3.78,-279.779,-43.176
-3.74,-279.182,-43.004
-3.71,-278.516,-42.798
-3.68,-277.673,-42.603
-3.65,-276.901,-42.546
-3.61,-276.305,-42.523
-3.58,-275.638,-42.431
-3.55,-274.831,-42.294
-3.52,-273.953,-42.088
-3.48,-272.865,-41.847
-3.45,-271.532,-41.71
-3.42,-270.374,-41.584
-3.39,-269.426,-41.4
-3.35,-268.478,-41.08
-3.32,-267.039,-40.793
-3.29,-265.285,-40.621
-3.26,-263.705,-40.369
-3.22,-262.407,-39.968
-3.19,-260.722,-39.556
-3.16,-259.108,-39.201
-3.13,-257.388,-38.869
-3.09,-255.739,-38.628
-3.06,-254.195,-38.41
-3.03,-252.615,-38.227
-2.99,-250.826,-37.987
-2.96,-249.141,-37.815
-2.93,-248.018,-37.757
-2.9,-246.404,-37.505
-2.86,-244.403,-37.334
-2.83,-242.789,-37.357
-2.8,-241.736,-37.345
-2.77,-240.262,-37.139
-2.73,-238.261,-36.887
-2.7,-236.226,-36.749
-2.67,-234.576,-36.566
-2.64,-232.787,-36.234
-2.6,-230.751,-35.81
-2.57,-228.821,-35.421
-2.54,-226.715,-35.134
-2.51,-224.75,-34.836
-2.47,-222.749,-34.493
-2.44,-220.679,-34.275
-2.41,-218.713,-34.057
-2.38,-216.608,-33.782
-2.34,-214.642,-33.565
-2.31,-212.782,-33.347
-2.28,-210.677,-33.015
-2.25,-208.606,-32.923
-2.21,-206.886,-32.912
-2.18,-205.061,-32.648
-2.15,-203.096,-32.385
-2.12,-201.131,-32.282
-2.08,-199.13,-32.121
-2.05,-197.025,-31.938
-2.02,-195.059,-31.732
-1.99,-192.883,-31.319
-1.95,-190.321,-30.815
-1.92,-187.549,-30.323
-1.89,-184.636,-29.819
-1.86,-181.898,-29.269
-1.82,-179.442,-28.742
-1.79,-176.88,-28.146
-1.76,-174.072,-27.596
-1.73,-171.089,-27.115
-1.69,-168.352,-26.714
-1.66,-165.72,-26.279
-1.63,-163.052,-25.764
-1.6,-159.894,-25.202
-1.56,-156.911,-24.916
-1.53,-154.173,-24.481
-1.5,-151.366,-23.873
-1.46,-148.207,-23.53
-1.43,-144.873,-22.797
-1.4,-141.82,-22.441
-1.37,-138.872,-21.949
-1.33,-135.854,-21.25
-1.3,-132.695,-20.849
-1.27,-129.747,-20.425
-1.24,-126.764,-20.001
-1.2,-123.57,-19.463
-1.17,-120.061,-18.833
-1.14,-116.481,-18.295
-1.11,-113.007,-17.768
-1.07,-109.673,-17.149
-1.04,-106.339,-16.519
-1.01,-103.145,-15.923
-0.98,-99.916,-15.408
-0.94,-96.793,-15.018
-0.91,-93.669,-14.652
-0.88,-90.616,-14.262
-0.85,-87.492,-13.838
-0.81,-84.229,-13.506
-0.78,-81.14,-13.14
-0.75,-78.052,-12.716
-0.72,-74.753,-12.292
-0.68,-71.629,-11.845
-0.65,-68.471,-11.387
-0.62,-65.347,-10.94
-0.59,-62.119,-10.425
-0.55,-58.89,-9.966
-0.52,-55.591,-9.6
-0.49,-52.573,-9.084
-0.46,-49.133,-8.557
-0.42,-45.94,-8.122
-0.39,-42.184,-7.606
-0.36,-39.447,-7.16
-0.33,-40.254,-5.705
-0.29,-46.045,-1.821
-0.26,-41.237,2.245
-0.23,-26.637,1.18
-0.2,-25.62,-0.057
-0.16,-23.233,0.962
-0.13,-15.231,1.191
-0.1,-7.475,1.031
-0.07,-0.772,0.951
-0.03,3.58,0.47
0.0,3.334,0.092
0.03,4.211,0.619
0.07,8.423,0.756
0.1,11.581,0.504
0.13,14.038,0.653
0.16,18.144,1.329
0.2,23.093,2.314
0.23,28.848,3.07
0.26,34.183,3.208
0.29,37.236,3.299
0.33,38.148,4.009
0.36,39.272,5.052
0.39,41.833,5.739
0.42,45.027,5.762
0.46,47.694,5.453
0.49,50.081,5.453
0.52,53.064,5.945
0.55,57.065,6.518
0.59,61.417,6.999
0.62,65.312,7.618
0.65,68.716,8.466
0.68,71.945,9.405
0.72,75.349,10.241
0.75,78.578,10.848
0.78,81.631,11.307
0.81,84.65,11.73
0.85,87.563,12.063
0.88,90.37,12.361
0.91,93.459,12.727
0.94,96.617,13.105
0.98,99.846,13.426
1.01,102.829,13.884
1.04,105.777,14.331
1.07,108.936,14.904
1.11,112.164,15.465
1.14,115.393,16.015
1.17,118.587,16.542
1.2,121.956,17.252
1.24,125.5,18.031
1.27,129.01,18.741
1.3,132.52,19.463
1.33,136.099,20.299
1.37,139.468,20.975
1.4,142.346,21.433
1.43,145.154,21.937
1.46,148.172,22.476
1.5,151.26,22.842
1.53,154.208,23.152
1.56,157.016,23.507
1.6,159.929,23.988
1.63,163.017,24.515
1.66,166.211,24.927
1.69,169.124,25.271
1.73,171.651,25.695
1.76,174.318,26.142
1.79,177.231,26.577
1.82,180.109,27.001
1.86,182.671,27.321
1.89,185.057,27.7
1.92,187.654,28.112
1.95,190.146,28.341
1.99,192.322,28.513
2.02,194.322,28.742
2.05,196.568,29.051
2.08,199.025,29.235
2.12,201.131,29.349
2.15,202.78,29.498
2.18,204.5,29.739
2.21,206.36,29.91
2.25,208.29,30.014
2.28,210.08,30.197
2.31,211.905,30.506
2.34,214.046,30.815
2.38,216.046,31.148
2.41,217.941,31.571
2.44,220.012,32.041
2.47,221.802,32.35
2.51,223.557,32.683
2.54,225.627,33.164
2.57,227.698,33.404
2.6,229.277,33.622
2.64,230.716,34.0
2.67,232.681,34.458
2.7,234.822,34.871
2.73,236.682,35.157
2.77,238.332,35.501
2.8,240.051,35.97
2.83,241.911,36.383
2.86,243.631,36.749
2.9,245.421,37.105
2.93,247.0,37.494
2.96,248.79,37.838
2.99,250.334,38.078
3.03,251.773,38.365
3.06,253.317,38.697
3.09,254.897,38.983
3.13,256.546,39.293
3.16,258.125,39.556
3.19,259.564,39.808
3.22,260.722,39.991
3.26,261.565,40.198
3.29,262.547,40.381
3.32,263.741,40.415
3.35,265.074,40.61
3.39,266.478,40.839
3.42,267.566,41.022
3.45,268.689,41.251
3.48,269.812,41.549
3.52,270.865,41.813
3.55,271.988,42.053
3.58,273.006,42.225
3.61,273.918,42.466
3.65,274.866,42.718
3.68,275.883,42.947
3.71,276.761,43.05
3.74,277.287,43.165
3.78,277.989,43.348
3.81,278.726,43.336
3.84,279.253,43.325
3.87,279.674,43.405
3.91,280.551,43.669
3.94,281.218,43.852
3.97,281.464,43.714
4.0,282.271,44.127
4.04,282.973,44.23
4.07,283.078,44.138
4.1,283.008,44.31
4.13,283.499,44.322
4.17,283.745,44.299
4.2,283.78,44.264
4.23,283.745,44.218
4.26,283.499,44.138
4.3,283.253,43.989
4.33,282.903,43.795
4.36,282.587,43.6
4.39,282.341,43.428
4.43,282.06,43.394
4.46,282.095,43.394
4.49,281.92,43.462
4.52,281.604,43.565
4.56,281.464,43.669
4.59,281.569,43.863
4.62,281.113,43.646
4.66,279.99,43.451
4.69,279.393,43.52
4.72,279.218,43.405
4.75,278.937,43.394
4.79,279.007,43.669
4.82,279.007,43.932
4.85,278.831,44.127
4.88,278.761,44.333
4.92,278.375,44.425
4.95,277.463,44.402
4.98,276.445,44.173
5.01,275.111,43.669
5.05,273.286,43.016
5.08,271.251,42.282
5.11,269.25,41.503
5.14,266.934,40.702
5.18,264.653,40.003
5.21,262.758,39.419
5.24,260.793,38.857
5.27,258.652,38.353
5.31,256.335,37.918
5.34,254.16,37.586
5.37,252.194,37.231
5.4,250.475,36.761
5.44,248.474,36.314
5.47,246.158,36.028
5.5,243.982,35.936
5.53,242.403,35.867
5.57,240.929,35.673
5.6,239.139,35.535
5.63,237.244,35.443
5.66,235.419,35.409
5.7,233.664,35.443
5.73,231.839,35.26
5.76,229.768,35.02
5.79,227.522,34.768
5.83,225.452,34.447
5.86,223.241,34.046
5.89,220.924,33.737
5.92,218.713,33.507
5.96,216.783,33.267
5.99,214.888,33.003
6.02,212.958,32.855
6.05,210.887,32.74
6.09,208.711,32.568
6.12,206.57,32.396
6.15,204.535,32.259
6.19,202.57,31.961
6.22,200.464,31.72
6.25,198.499,31.571
6.28,196.744,31.411
6.32,194.392,31.125
6.35,191.69,30.804
6.38,189.233,30.529
6.41,187.093,30.151
6.45,184.566,29.613
6.48,181.688,29.12
6.51,179.231,28.799
6.54,176.915,28.433
6.58,174.107,27.837
6.61,170.879,27.264
6.64,168.071,26.886
6.67,165.404,26.325
6.71,162.28,25.626
6.74,158.841,25.065
6.77,155.893,24.664
6.8,153.366,24.228
6.84,150.383,23.576
6.87,146.803,22.9
6.9,143.539,22.648
6.93,141.153,22.419
6.97,138.521,21.743
7.0,135.187,21.113
7.03,131.783,20.746
7.06,128.729,20.414
7.1,125.746,19.852
7.13,122.412,19.291
7.16,118.938,18.741
7.19,115.288,18.249
7.23,110.059,16.645
7.26,103.25,14.686
7.29,96.758,13.54
7.32,92.722,12.601
7.36,89.668,11.238
7.39,86.124,9.76
7.42,82.053,9.439
7.45,79.105,9.783
7.49,77.841,10.39
7.52,77.209,11.043
7.55,75.911,11.673
7.58,73.454,12.349
7.62,70.998,13.254
7.65,69.208,13.918
7.68,67.383,13.941
7.71,64.751,13.529
7.75,61.417,13.14
7.78,58.398,12.761
7.81,55.696,12.2
7.85,52.959,11.478
7.88,49.765,10.745
7.91,46.677,10.23
7.94,43.343,9.646
7.98,41.096,8.878
8.01,42.465,6.954
8.04,47.519,2.967
8.07,45.378,-1.707
8.11,30.147,-1.569
8.14,26.988,0.218
8.17,26.251,-0.745
8.2,18.32,-1.18
8.24,10.213,-0.962
8.27,3.58,-0.848
8.3,-1.79,-0.642
8.33,-3.194,-0.069
8.37,-2.948,-0.321
8.4,-6.142,-0.664
8.43,-9.3,-0.412
8.46,-11.02,-0.378
8.5,-14.108,-0.722
8.53,-18.214,-1.455
8.56,-23.654,-2.474
8.59,-29.901,-3.013
8.63,-35.587,-3.07
8.66,-39.377,-3.253
8.69,-41.518,-3.998
8.72,-43.097,-5.063
8.76,-45.378,-6.049
8.79,-48.256,-6.495
8.82,-50.853,-6.484
8.85,-53.204,-6.553
8.89,-56.152,-6.839
8.92,-59.697,-7.08
8.95,-63.347,-7.366
8.98,-66.962,-7.778
9.02,-70.506,-8.363
9.05,-73.875,-9.119
9.08,-77.104,-9.875
9.11,-80.368,-10.493
9.15,-83.562,-11.032
9.18,-86.58,-11.513
9.21,-89.423,-11.891
9.24,-92.336,-12.292
9.28,-95.389,-12.784
9.31,-98.618,-13.243
9.34,-101.881,-13.724
9.38,-105.215,-14.297
9.41,-108.655,-14.927
9.44,-112.305,-15.637
9.47,-115.744,-16.29
9.51,-118.903,-16.885
9.54,-121.886,-17.584
9.57,-125.15,-18.317
9.6,-128.624,-18.902
9.64,-131.958,-19.394
9.67,-135.292,-20.047
9.7,-138.591,-20.597
9.73,-141.609,-21.021
9.77,-144.557,-21.628
9.8,-147.751,-22.189
9.83,-150.874,-22.522
9.86,-153.682,-22.888
9.9,-156.384,-23.358
9.93,-159.367,-23.782
9.96,-162.386,-24.148
9.99,-165.263,-24.458
10.03,-167.896,-24.79
10.06,-170.493,-25.248
10.09,-173.125,-25.695
10.12,-176.038,-26.016
10.16,-178.951,-26.428
10.19,-181.688,-26.852
10.22,-184.145,-27.241
10.25,-186.531,-27.654
10.29,-188.953,-28.135
10.32,-191.444,-28.501
10.35,-193.936,-28.765
10.38,-196.217,-28.983
10.42,-198.463,-29.28
10.45,-200.639,-29.544
10.48,-202.78,-29.842
10.51,-204.816,-30.071
10.55,-206.711,-30.334
10.58,-208.676,-30.563
10.61,-210.677,-30.689
10.64,-212.431,-30.873
10.68,-214.397,-31.216
10.71,-216.573,-31.537
10.74,-218.573,-31.869
10.77,-220.538,-32.27
10.81,-222.504,-32.694
10.84,-224.469,-33.061
10.87,-226.364,-33.53
10.91,-228.61,-33.954
10.94,-230.505,-34.298
10.97,-232.33,-34.699
11.0,-234.155,-35.134
11.04,-236.05,-35.432
11.07,-237.77,-35.707
11.1,-239.349,-35.902
11.13,-240.894,-36.188
11.17,-242.719,-36.589
11.2,-244.473,-36.852
11.23,-245.877,-37.116
11.26,-247.456,-37.528
11.3,-249.281,-37.929
11.33,-251.071,-38.158
11.36,-252.58,-38.399
11.39,-253.949,-38.72
11.43,-255.353,-39.052
11.46,-256.827,-39.384
11.49,-258.441,-39.671
11.52,-259.88,-39.923
11.56,-261.003,-40.049
11.59,-261.88,-40.094
11.62,-262.758,-40.255
11.65,-264.162,-40.507
11.69,-265.565,-40.518
11.72,-266.373,-40.69
11.75,-267.215,-40.988
11.78,-268.513,-41.274
11.82,-269.707,-41.412
11.85,-270.689,-41.584
11.88,-271.461,-41.778
11.91,-272.409,-42.088
11.95,-273.462,-42.351
11.98,-274.48,-42.672
12.01,-275.533,-42.935
12.04,-276.761,-43.279
12.08,-277.673,-43.439
12.11,-278.27,-43.634
12.14,-278.796,-43.795
12.17,-279.182,-43.68
12.21,-279.498,-43.714
12.24,-280.27,-43.863
12.27,-281.078,-43.898
12.3,-281.323,-43.943
12.34,-281.639,-44.127
12.37,-282.166,-44.115
12.4,-282.236,-44.035
12.44,-282.271,-43.955
12.47,-282.341,-43.886
12.5,-282.516,-43.852
12.53,-282.587,-43.852
12.57,-282.657,-43.749
12.6,-282.411,-43.795
12.63,-282.306,-43.806
12.66,-282.166,-43.68
12.7,-281.674,-43.623
12.73,-281.429,-43.646
12.76,-281.393,-43.634
12.79,-281.358,-43.543
12.83,-280.797,-43.462
12.86,-280.13,-43.485
12.89,-279.779,-43.382
12.92,-279.253,-43.165
12.96,-278.27,-43.027
12.99,-277.708,-42.924
13.02,-277.217,-42.832
13.05,-276.515,-42.775
13.09,-275.778,-42.729
13.12,-275.006,-42.66
13.15,-274.129,-42.523
13.18,-273.146,-42.248
13.22,-271.848,-41.996
13.25,-270.689,-41.824
13.28,-269.707,-41.607
13.31,-268.584,-41.332
13.35,-267.215,-41.137
13.38,-266.197,-40.908
13.41,-265.004,-40.495
13.44,-263.319,-40.22
13.48,-261.81,-40.094
13.51,-260.582,-39.9
13.54,-259.354,-39.648
13.57,-257.845,-39.441
13.61,-256.335,-39.338
13.64,-254.932,-39.189
13.67,-253.282,-38.903
13.7,-251.668,-38.617
13.74,-250.053,-38.376
13.77,-248.439,-38.113
13.8,-246.439,-37.769
13.83,-244.438,-37.505
13.87,-242.824,-37.231
13.9,-241.034,-36.921
13.93,-238.893,-36.566
13.97,-236.893,-36.429
14.0,-235.243,-36.268
14.03,-233.488,-35.902
14.06,-231.172,-35.535
14.1,-229.137,-35.329
14.13,-227.522,-35.237
14.16,-225.838,-34.951
14.19,-223.627,-34.538
14.23,-221.31,-34.298
14.26,-219.345,-34.183
14.29,-217.52,-33.886
14.32,-215.45,-33.611
14.36,-213.589,-33.45
14.39,-211.765,-33.244
14.42,-209.694,-32.923
14.45,-207.237,-32.637
14.49,-204.781,-32.396
14.52,-202.71,-32.121
14.55,-200.604,-31.766
14.58,-198.253,-31.411
14.62,-196.007,-31.09
14.65,-193.901,-30.77
14.68,-191.515,-30.403
14.71,-188.988,-30.082
14.75,-186.707,-29.83
14.78,-184.46,-29.441
14.81,-181.828,-28.983
14.84,-179.126,-28.753
14.88,-176.704,-28.501
14.91,-174.423,-28.02
14.94,-171.686,-27.528
14.97,-168.808,-27.035
15.01,-166.176,-26.634
15.04,-163.193,-26.107
15.07,-159.753,-25.248
15.1,-156.595,-24.973
15.14,-154.068,-24.549
15.17,-151.436,-23.69
15.2,-147.926,-23.129
15.23,-144.452,-22.625
15.27,-141.328,-22.201
15.3,-138.451,-21.697
15.33,-135.573,-21.204
15.36,-132.449,-20.689
15.4,-129.361,-20.208
15.43,-126.273,-19.818
15.46,-123.254,-19.452
15.5,-120.131,-18.959
15.53,-116.937,-18.478
15.56,-113.708,-17.962
15.59,-110.515,-17.447
15.63,-107.286,-17.023
15.66,-104.092,-16.656
15.69,-101.109,-16.198
15.72,-98.232,-15.706
15.76,-95.003,-15.19
15.79,-91.493,-14.72
15.82,-88.159,-14.331
15.85,-85.211,-13.93
15.89,-82.193,-13.346
15.92,-78.859,-12.739
15.95,-75.174,-12.292
15.98,-71.875,-11.914
16.02,-68.787,-11.387
16.05,-65.733,-10.871
16.08,-62.434,-10.31
16.11,-59.03,-9.783
16.15,-55.591,-9.382
16.18,-52.467,-8.981
16.21,-49.203,-8.466
16.24,-46.08,-8.007
16.28,-42.43,-7.435
16.31,-39.236,-6.931
16.34,-39.096,-5.659
16.37,-44.22,-2.234
16.41,-41.342,1.97
16.44,-26.778,1.375
16.47,-24.883,-0.103
16.5,-23.584,0.848
16.54,-16.284,1.157
16.57,-8.563,1.042
16.6,-1.79,0.939
16.63,3.194,0.607
16.67,4.036,0.137
16.7,4.492,0.538
16.73,8.282,0.722
16.76,11.195,0.481
16.8,13.898,0.63
16.83,17.548,1.02
16.86,21.513,1.856
16.89,26.637,2.726
16.93,31.902,2.967
16.96,35.622,2.944
16.99,37.482,3.356
17.03,38.815,4.273
17.06,41.132,5.121
17.09,44.466,5.556
17.12,47.519,5.59
17.16,50.151,5.625
17.19,52.888,6.026
17.22,56.398,6.61
17.25,60.539,7.125
17.29,64.505,7.629
17.32,67.909,8.317
17.35,71.173,9.153
17.38,74.437,9.989
17.42,77.666,10.654
17.45,80.824,11.135
17.48,83.983,11.57
17.51,87.106,12.005
17.55,90.125,12.338
17.58,93.143,12.761
17.61,96.301,13.254
17.64,99.635,13.735
17.68,103.25,14.274
17.71,106.795,14.927
17.74,110.269,15.534
17.77,113.673,16.221
17.81,116.972,16.92
17.84,120.096,17.561
17.87,123.325,18.123
17.9,126.764,18.833
17.94,129.993,19.337
17.97,133.186,19.807
18.0,136.485,20.437
18.03,139.679,20.906
18.07,142.732,21.33
18.1,145.786,21.88
18.13,148.944,22.315
18.16,151.927,22.636
18.2,154.735,23.094
18.23,157.613,23.518
18.26,160.526,23.873
18.29,163.333,24.309
18.33,166.0,24.664
18.36,168.633,24.962
18.39,171.159,25.317
18.42,173.721,25.592
18.46,176.248,25.855
18.49,178.88,26.268
18.52,181.583,26.703
18.56,184.215,27.081
18.59,186.707,27.539
18.62,189.268,27.906
18.65,191.585,28.226
18.69,193.761,28.513
18.72,196.007,28.868
18.75,198.253,29.131
18.78,200.569,29.326
18.82,202.675,29.532
18.85,204.535,29.784
18.88,206.43,29.979
18.91,208.325,30.208
18.95,210.291,30.449
18.98,212.256,30.758
19.01,214.291,31.113
19.04,216.257,31.48
19.08,218.327,31.892
19.11,220.538,32.328
19.14,222.293,32.557
19.17,223.802,32.843
19.21,225.732,33.324
19.24,227.943,33.656
19.27,229.803,33.874
19.3,231.453,34.229
19.34,233.208,34.653
19.37,235.243,35.008
19.4,237.068,35.249
19.43,238.577,35.535
19.47,240.157,35.948
19.5,242.017,36.337
19.53,243.912,36.669
19.56,245.667,37.024
19.6,247.281,37.437
19.63,249.001,37.826
19.66,250.72,38.067
19.69,252.089,38.319
19.73,253.458,38.651
19.76,254.967,38.914
19.79,256.441,39.167
19.82,257.88,39.453
19.86,259.389,39.705
19.89,260.757,39.911
19.92,261.635,40.026
19.95,262.653,40.22
19.99,263.951,40.45
20.02,265.285,40.61
20.05,266.373,40.793
20.08,267.531,41.068
20.12,268.689,41.274
20.15,269.672,41.526
20.18,270.724,41.778
20.22,271.812,41.996
20.25,272.725,42.237
20.28,273.778,42.512
20.31,274.936,42.729
20.35,276.094,42.97
20.38,277.147,43.142
20.41,277.919,43.325
20.44,278.691,43.508
20.48,279.323,43.577
20.51,279.814,43.588
20.54,280.27,43.6
20.57,281.078,43.68
20.61,281.815,43.886
20.64,281.779,43.772
20.67,282.06,43.829
20.7,282.376,43.898
20.74,282.692,43.76
20.77,282.587,43.68
20.8,282.446,43.669
20.83,282.867,43.806
20.87,283.218,43.772
20.9,283.289,43.795
20.93,283.289,43.932
20.96,283.218,43.989
21.0,283.078,44.001
21.03,283.008,43.966
21.06,282.797,43.966
21.09,282.762,44.024
21.13,282.797,43.978
21.16,282.657,43.943
21.19,282.236,43.909
21.22,281.779,43.852
21.26,281.429,43.909
21.29,280.867,43.703
21.32,280.341,43.577
21.35,280.551,43.943
21.39,281.078,44.092
21.42,280.656,43.909
21.45,279.428,43.875
21.48,278.41,43.817
21.52,277.428,43.313
21.55,275.497,42.592
21.58,273.322,41.95
21.61,271.356,41.206
21.65,269.18,40.369
21.68,266.969,39.659
21.71,265.004,39.109
21.75,263.354,38.651
21.78,261.88,38.319
21.81,260.336,38.17
21.84,258.827,38.113
21.88,257.318,38.032
21.91,255.809,37.975
21.94,254.335,37.883
21.97,252.756,37.7
22.01,250.861,37.437
22.04,248.965,37.288
22.07,247.456,37.139
22.1,245.982,37.001
22.14,243.877,36.749
22.17,242.227,36.543
22.2,240.648,36.452
22.23,238.928,36.245
22.27,236.647,35.925
22.3,234.541,35.821
22.33,232.997,35.776
22.36,231.488,35.363
22.4,229.312,34.951
22.43,227.312,34.882
22.46,225.803,34.871
22.49,224.153,34.722
22.53,222.293,34.584
22.56,220.468,34.481
22.59,218.678,34.367
22.62,216.888,34.138
22.66,214.958,33.828
22.69,212.572,33.588
22.72,210.606,33.45
22.75,208.817,33.152
22.79,206.711,32.809
22.82,204.465,32.58
22.85,202.359,32.362
22.88,200.534,32.064
22.92,198.463,31.755
22.95,196.288,31.514
22.98,194.112,31.331
23.01,192.006,31.102
23.05,189.655,30.758
23.08,187.268,30.437
23.11,184.917,30.025
23.14,182.179,29.487
23.18,179.337,29.074
23.21,176.88,28.685
23.24,174.388,28.112
23.28,171.545,27.528
23.31,168.668,27.115
23.34,166.035,26.657
23.37,163.158,26.038
23.41,160.034,25.443
23.44,156.735,24.927
23.47,154.138,24.515
23.5,151.787,24.263
23.54,148.628,23.495
23.57,145.224,23.071
23.6,141.995,22.831
23.63,139.363,22.224
23.67,136.38,21.559
23.7,133.011,20.952
23.73,129.607,20.494
23.76,126.413,20.013
23.8,123.289,19.486
23.83,120.131,18.867
23.86,116.586,18.26
23.89,113.147,17.779
23.93,109.988,17.321
23.96,107.111,16.771
23.99,103.987,16.267
24.02,100.653,15.82
24.06,97.249,15.408
24.09,94.02,15.053
24.12,91.002,14.64
24.15,87.878,14.148
24.19,84.755,13.678
24.22,81.702,13.403
24.25,78.929,13.128
24.28,76.262,12.819
24.32,73.489,12.509
24.35,70.296,12.235
24.38,67.348,11.948
24.41,64.189,11.616
24.45,61.066,11.1
24.48,57.521,10.562
24.51,54.117,9.978
24.54,50.467,9.336
24.58,47.168,8.637
24.61,43.307,8.053
24.64,41.167,7.251
24.67,42.465,5.327
24.71,47.729,1.146
24.74,40.43,-2.188
24.77,27.901,-0.676
24.81,28.532,0.103
24.84,25.339,-0.962
24.87,17.618,-1.02
24.9,10.178,-0.962
24.94,3.229,-0.928
24.97,-2.457,-0.63
25.0,-3.896,-0.103
25.03,-4.492,-0.458
25.07,-8.528,-0.63
25.1,-9.546,-0.894
25.13,-12.424,-1.833
25.16,-18.425,-2.188
25.2,-24.146,-2.337
25.23,-29.55,-2.509
25.26,-33.867,-2.795
25.29,-36.92,-3.265
25.33,-38.64,-4.067
25.36,-40.149,-4.972
25.39,-41.904,-5.567
25.42,-44.15,-5.682
25.46,-46.677,-5.659
25.49,-49.625,-5.579
25.52,-52.713,-5.59
25.55,-56.258,-5.888
25.59,-60.013,-6.484
25.62,-64.084,-7.251
25.65,-68.19,-7.973
25.68,-71.805,-8.637
25.72,-74.788,-9.382
25.75,-77.701,-10.184
25.78,-80.614,-10.825
25.81,-83.772,-11.249
25.85,-87.036,-11.639
25.88,-90.054,-11.983
25.91,-93.037,-12.418
25.94,-96.126,-12.991
25.98,-99.776,-13.586
26.01,-103.426,-14.148
26.04,-106.97,-14.743
26.07,-110.374,-15.362
26.11,-113.779,-16.061
26.14,-117.148,-16.737
26.17,-120.306,-17.355
26.2,-123.289,-17.951
26.24,-126.483,-18.592
26.27,-129.993,-19.119
26.3,-133.537,-19.612
26.34,-136.836,-20.219
26.37,-140.135,-20.78
26.4,-143.048,-21.158
26.43,-145.856,-21.594
26.47,-148.769,-22.224
26.5,-151.506,-22.545
26.53,-154.349,-22.842
26.56,-157.297,-23.312
26.6,-160.245,-23.69
26.63,-163.158,-24.034
26.66,-165.86,-24.435
26.69,-168.562,-24.881
26.73,-171.545,-25.317
26.76,-174.388,-25.695
26.79,-176.985,-26.004
26.82,-179.477,-26.474
26.86,-182.109,-27.001
26.89,-184.917,-27.356
26.92,-187.479,-27.608
26.95,-189.795,-27.952
26.99,-192.076,-28.307
27.02,-194.322,-28.605
27.05,-196.744,-28.845
27.08,-198.99,-29.086
27.12,-200.85,-29.349
27.15,-202.78,-29.658
27.18,-204.991,-29.876
27.21,-206.956,-30.002
27.25,-208.606,-30.197
27.28,-210.255,-30.403
27.31,-212.115,-30.632
27.34,-214.186,-30.884
27.38,-216.222,-31.159
27.41,-218.047,-31.457
27.44,-219.696,-31.835
27.47,-221.591,-32.213
27.51,-223.486,-32.568
27.54,-225.522,-32.935
27.57,-227.487,-33.359
27.6,-229.277,-33.714
27.64,-231.172,-34.183
27.67,-233.138,-34.538
27.7,-235.068,-34.905
27.73,-236.647,-35.329
27.77,-238.367,-35.661
27.8,-240.227,-36.039
27.83,-241.911,-36.337
27.87,-243.35,-36.646
27.9,-244.824,-36.933
27.93,-246.474,-37.265
27.96,-248.228,-37.563
28.0,-249.702,-37.815
28.03,-251.071,-38.181
28.06,-252.756,-38.559
28.09,-254.546,-38.834
28.13,-256.09,-39.144
28.16,-257.458,-39.522
28.19,-258.932,-39.945
28.22,-260.266,-40.243
28.26,-261.6,-40.255
28.29,-262.582,-40.324
28.32,-263.6,-40.644
28.35,-265.039,-40.839
28.39,-266.338,-40.988
28.42,-267.461,-41.24
28.45,-268.478,-41.584
28.48,-269.566,-41.87
28.52,-270.865,-42.007
28.55,-271.953,-42.191
28.58,-272.9,-42.466
28.61,-273.848,-42.695
28.65,-274.796,-43.004
28.68,-275.989,-43.199
28.71,-276.761,-43.302
28.74,-277.393,-43.508
28.78,-278.27,-43.588
28.81,-279.042,-43.588
28.84,-279.428,-43.726
28.87,-279.955,-43.863
28.91,-280.692,-43.966
28.94,-281.078,-43.943
28.97,-281.815,-44.264
29.0,-282.692,-44.402
29.04,-283.113,-44.402
29.07,-283.218,-44.516
29.1,-283.253,-44.356
29.13,-283.429,-44.413
29.17,-283.815,-44.47
29.2,-283.955,-44.39
29.23,-283.78,-44.31
29.26,-283.604,-44.241
29.3,-283.289,-44.115
29.33,-282.727,-43.966
29.36,-282.481,-43.749
29.4,-282.306,-43.543
29.43,-281.99,-43.417
29.46,-281.534,-43.371
29.49,-281.078,-43.336
29.53,-280.692,-43.291
29.56,-280.095,-43.176
29.59,-279.323,-43.027
29.62,-278.551,-42.844
29.66,-277.954,-42.672
29.69,-277.357,-42.569
29.72,-276.691,-42.489
29.75,-275.708,-42.408
29.79,-274.936,-42.328
29.82,-273.953,-42.134
29.85,-272.655,-41.973
29.88,-271.602,-41.71
29.92,-270.479,-41.423
29.95,-269.356,-41.206
29.98,-268.233,-40.988
30.01,-266.934,-40.793
30.05,-265.636,-40.702
30.08,-264.302,-40.484
30.11,-263.004,-40.186
30.14,-261.494,-39.877
30.18,-259.74,-39.636
30.21,-258.16,-39.373
30.24,-256.511,-39.063
30.27,-254.897,-38.766
30.31,-253.247,-38.502
30.34,-251.527,-38.239
30.37,-249.878,-37.975
30.4,-248.509,-37.815
30.44,-247.07,-37.586
30.47,-245.386,-37.391
30.5,-243.385,-37.253
30.53,-241.631,-37.15
30.57,-240.262,-36.956
30.6,-238.367,-36.578
30.63,-236.121,-36.291
30.66,-234.366,-36.165
30.7,-232.997,-36.005
30.73,-231.277,-35.707
30.76,-229.137,-35.489
30.79,-227.382,-35.524
30.83,-226.013,-35.386
30.86,-224.013,-34.985
30.89,-221.626,-34.71
30.93,-219.521,-34.584
30.96,-217.766,-34.275
30.99,-215.8,-33.805
31.02,-213.414,-33.485
31.06,-211.063,-33.313
31.09,-209.273,-33.038
31.12,-207.307,-32.591
31.15,-204.851,-32.202
31.19,-202.254,-31.915
31.22,-200.113,-31.675
31.25,-198.148,-31.4
31.28,-195.972,-31.113
31.32,-193.62,-30.907
31.35,-191.515,-30.655
31.38,-189.233,-30.288
31.41,-186.882,-29.991
31.45,-184.46,-29.647
31.48,-181.863,-29.189
31.51,-179.442,-28.845
31.54,-177.09,-28.49
31.58,-174.493,-27.929
31.61,-171.616,-27.459
31.64,-168.843,-27.058
31.67,-166.0,-26.588
31.71,-163.158,-26.084
31.74,-160.175,-25.5
31.77,-157.297,-25.03
31.8,-154.243,-24.572
31.84,-151.225,-23.85
31.87,-147.891,-23.312
31.9,-144.698,-22.751
31.93,-141.679,-22.281
31.97,-138.802,-21.674
32.0,-135.608,-21.044
32.03,-132.309,-20.666
32.06,-129.326,-20.322
32.1,-126.553,-19.887
32.13,-123.676,-19.463
32.16,-120.517,-18.97
32.19,-117.148,-18.432
32.23,-113.708,-18.031
32.26,-110.55,-17.63
32.29,-107.567,-17.08
32.32,-104.338,-16.496
32.36,-100.829,-15.946
32.39,-97.354,-15.488
32.42,-94.231,-15.087
32.46,-91.283,-14.583
32.49,-88.159,-13.987
32.52,-84.79,-13.552
32.55,-81.526,-13.151
32.59,-78.438,-12.693
32.62,-75.139,-12.28
32.65,-72.121,-11.891
32.68,-68.962,-11.364
32.72,-65.733,-10.952
32.75,-62.505,-10.528
32.78,-59.346,-10.001
32.81,-55.942,-9.52
32.85,-52.643,-9.107
32.88,-49.239,-8.615
32.91,-46.326,-8.122
32.94,-42.676,-7.538
32.98,-39.587,-6.976
33.01,-39.587,-5.59
33.04,-44.746,-2.073
33.07,-41.307,2.039
33.11,-26.567,1.363
33.14,-24.812,-0.103
33.17,-23.303,0.871
33.2,-15.688,1.18
33.24,-8.142,0.974
33.27,-1.93,0.916
33.3,2.983,0.619
33.33,3.685,0.126
33.37,4.247,0.561
33.4,8.282,0.768
33.43,11.687,0.561
33.46,14.635,0.619
33.5,17.899,1.088
33.53,21.97,1.982
33.56,27.339,2.852
33.59,32.568,3.047
33.63,35.973,2.99
33.66,37.411,3.505
33.69,38.745,4.571
33.72,41.202,5.373
33.76,44.571,5.613
33.79,47.589,5.556
33.82,50.116,5.59
33.85,52.748,5.945
33.89,56.433,6.553
33.92,60.609,7.125
33.95,64.716,7.629
33.98,68.295,8.363
34.02,71.419,9.176
34.05,74.648,9.989
34.08,78.087,10.757
34.12,81.351,11.249
34.15,84.193,11.524
34.18,87.036,12.017
34.21,90.054,12.464
34.25,93.353,12.727
34.28,96.512,13.094
34.31,99.706,13.586
34.34,103.04,14.159
34.38,106.619,14.835
34.41,110.129,15.419
34.44,113.428,16.038
34.47,116.586,16.782
34.51,119.815,17.424
34.54,122.939,17.905
34.57,126.237,18.627
34.6,129.607,19.188
34.64,133.046,19.555
34.67,136.415,20.196
34.7,139.679,20.803
34.73,142.732,21.307
34.77,145.75,21.903
34.8,148.804,22.476
34.83,151.787,22.831
34.86,154.665,23.22
34.9,157.613,23.633
34.93,160.455,23.965
34.96,163.333,24.354
34.99,166.246,24.755
35.03,169.054,25.065
35.06,171.51,25.408
35.09,173.967,25.809
35.12,176.704,26.164
35.16,179.477,26.497
35.19,182.109,26.863
35.22,184.531,27.195
35.25,186.987,27.619
35.29,189.549,28.032
35.32,191.901,28.284
35.35,194.006,28.524
35.38,196.112,28.845
35.42,198.428,29.097
35.45,200.745,29.257
35.48,202.745,29.475
35.51,204.605,29.784
35.55,206.43,30.002
35.58,208.29,30.197
35.61,210.115,30.426
35.65,212.045,30.689
35.68,214.081,30.999
35.71,216.116,31.262
35.74,217.941,31.606
35.78,219.907,32.053
35.81,221.802,32.35
35.84,223.592,32.625
35.87,225.943,33.267
35.91,228.154,33.611
35.94,229.698,33.84
35.97,231.137,34.332
36.0,233.348,34.836
36.04,235.559,35.111
36.07,237.314,35.363
36.1,238.472,35.718
36.13,240.016,36.028
36.17,242.087,36.417
36.2,244.122,36.726
36.23,245.667,36.956
36.26,247.07,37.299
36.3,248.79,37.746
36.33,250.475,37.975
36.36,251.703,38.216
36.39,253.072,38.559
36.43,254.686,38.869
36.46,256.335,39.052
36.49,257.88,39.258
36.52,259.178,39.567
36.56,260.477,39.877
36.59,261.635,40.003
36.62,262.723,40.163
36.65,263.881,40.472
36.69,265.25,40.702
36.72,266.478,40.885
36.75,267.671,41.103
36.78,268.829,41.332
36.82,269.847,41.595
36.85,270.83,41.847
36.88,271.918,42.065
36.91,272.935,42.282
36.95,274.023,42.523
36.98,275.076,42.775
37.01,276.199,43.05
37.04,277.147,43.279
37.08,277.954,43.394
37.11,278.481,43.52
37.14,279.112,43.646
37.18,279.674,43.634
37.21,280.095,43.588
37.24,280.902,43.634
37.27,281.744,43.898
37.31,281.92,43.795
37.34,281.92,43.909
37.37,282.516,44.058
37.4,283.008,43.829
37.44,282.938,43.817
37.47,282.973,43.817
37.5,283.253,43.875
37.53,283.64,43.886
37.57,283.675,43.909
37.6,283.534,44.058
37.63,283.604,44.081
37.66,283.499,43.943
37.7,283.078,43.863
37.73,282.832,43.829
37.76,282.797,43.829
37.79,282.727,43.726
37.83,282.481,43.68
37.86,282.06,43.657
37.89,281.429,43.6
37.92,280.832,43.439
37.96,280.13,43.21
37.99,279.288,43.05
38.02,278.796,43.038
38.05,278.516,42.981
38.09,277.744,42.844
38.12,276.726,42.729
38.15,275.813,42.523
38.18,274.55,42.191
38.22,272.935,41.79
38.25,271.356,41.355
38.28,269.777,40.896
38.31,268.233,40.438
38.35,266.548,39.98
38.38,265.004,39.625
38.41,263.495,39.304
38.44,261.951,39.018
38.48,260.547,38.846
38.51,259.178,38.708
38.54,257.739,38.548
38.57,256.055,38.41
38.61,254.616,38.319
38.64,253.247,38.216
38.67,251.808,38.032
38.71,250.229,37.952
38.74,248.685,37.838
38.77,247.211,37.689
38.8,245.491,37.483
38.84,243.771,37.265
38.87,241.911,37.127
38.9,240.157,36.91
38.93,237.981,36.474
38.97,235.805,36.119
39.0,234.12,36.016
39.03,232.646,35.741
39.06,230.716,35.363
39.1,228.716,35.237
39.13,227.242,35.26
39.16,225.697,35.1
39.19,223.697,34.859
39.23,221.521,34.71
39.26,219.521,34.607
39.29,217.766,34.286
39.32,215.59,33.897
39.36,213.274,33.633
39.39,211.273,33.381
39.42,209.378,33.003
39.45,207.097,32.602
39.49,204.745,32.316
39.52,202.57,32.076
39.55,200.499,31.778
39.58,198.323,31.514
39.62,196.393,31.239
39.65,194.287,30.93
39.68,191.795,30.632
39.71,189.233,30.369
39.75,186.882,30.071
39.78,184.425,29.658
39.81,181.828,29.166
39.84,179.126,28.765
39.88,176.775,28.433
39.91,174.178,27.986
39.94,171.37,27.425
39.97,168.597,27.001
40.01,165.93,26.646
40.04,163.158,26.061
40.07,160.21,25.477
40.1,156.911,24.973
40.14,153.928,24.469
40.17,151.225,24.137
40.2,148.207,23.404
40.24,145.049,22.911
40.27,141.925,22.567
40.3,138.872,21.892
40.33,135.713,21.388
40.37,132.66,20.883
40.4,129.677,20.414
40.43,126.588,19.944
40.46,123.465,19.509
40.5,120.271,19.039
40.53,117.113,18.535
40.56,113.849,18.065
40.59,110.76,17.664
40.63,107.707,17.241
40.66,104.619,16.759
40.69,101.46,16.29
40.72,98.232,15.854
40.76,95.038,15.396
40.79,91.809,14.904
40.82,88.545,14.411
40.85,85.316,13.896
40.89,82.123,13.472
40.92,79.034,13.025
40.95,75.841,12.578
40.98,72.717,12.143
41.02,69.453,11.685
41.05,66.225,11.215
41.08,62.926,10.825
41.11,59.802,10.39
41.15,56.679,9.966
41.18,53.661,9.508
41.21,50.186,9.05
41.24,46.852,8.523
41.28,43.167,8.111
41.31,41.377,7.389
41.34,43.167,5.327
41.37,48.326,0.985
41.41,40.219,-2.245
41.44,27.725,-0.63
41.47,28.392,0.069
41.5,24.953,-0.985
41.54,16.881,-1.1
41.57,9.055,-0.962
41.6,2.351,-0.882
41.63,-2.843,-0.561
41.67,-3.615,-0.069
41.7,-4.492,-0.504
41.73,-8.528,-0.607
41.77,-9.967,-0.825
41.8,-12.95,-1.581
41.83,-18.495,-2.005
41.86,-23.935,-2.291
41.9,-29.129,-2.451
41.93,-33.34,-2.681
41.96,-36.253,-3.127
41.99,-37.798,-3.975
42.03,-39.447,-4.869
42.06,-41.728,-5.43
42.09,-44.36,-5.567
42.12,-47.063,-5.476
42.16,-49.8,-5.487
42.19,-52.959,-5.716
42.22,-56.784,-6.129
42.25,-60.75,-6.656
42.29,-64.716,-7.297
42.32,-68.576,-8.053
42.35,-72.05,-8.855
42.38,-75.209,-9.611
42.42,-78.122,-10.356
42.45,-80.894,-10.986
42.48,-83.842,-11.421
42.51,-86.896,-11.788
42.55,-90.019,-12.189
42.58,-93.318,-12.544
42.61,-96.687,-12.991
42.64,-100.197,-13.506
42.68,-103.741,-14.09
42.71,-107.076,-14.755
42.74,-110.374,-15.465
42.77,-113.744,-16.175
42.81,-117.043,-16.771
42.84,-120.201,-17.298
42.87,-123.114,-17.768
42.9,-126.097,-18.306
42.94,-129.361,-18.867
42.97,-132.906,-19.406
43.0,-136.45,-19.956
43.03,-139.714,-20.483
43.07,-142.557,-20.906
43.1,-145.294,-21.445
43.13,-148.453,-22.155
43.16,-151.752,-22.476
43.2,-154.454,-22.682
43.23,-156.911,-23.117
43.26,-159.789,-23.644
43.3,-162.947,-24.022
43.33,-165.825,-24.354
43.36,-168.457,-24.744
43.39,-171.054,-25.214
43.43,-173.792,-25.638
43.46,-176.634,-25.981
43.49,-179.407,-26.416
43.52,-182.074,-26.875
43.56,-184.671,-27.276
43.59,-187.233,-27.619
43.62,-189.619,-28.032
43.65,-191.971,-28.352
43.69,-194.077,-28.605
43.72,-196.112,-28.891
43.75,-198.499,-29.189
43.78,-200.815,-29.395
43.82,-202.85,-29.555
43.85,-204.5,-29.762
43.88,-206.395,-30.002
43.91,-208.501,-30.151
43.95,-210.185,-30.277
43.98,-211.94,-30.529
44.01,-213.905,-30.85
44.04,-215.941,-31.148
44.08,-217.941,-31.48
44.11,-219.942,-31.869
44.14,-221.802,-32.408
44.17,-223.978,-32.832
44.21,-226.083,-33.198
44.24,-228.049,-33.633
44.27,-229.768,-34.012
44.3,-231.488,-34.435
44.34,-233.278,-34.836
44.37,-235.313,-35.169
44.4,-236.998,-35.443
44.43,-238.226,-35.661
44.47,-239.981,-36.051
44.5,-242.052,-36.394
44.53,-243.842,-36.543
44.56,-245.245,-36.841
44.6,-246.79,-37.276
44.63,-248.65,-37.723
44.66,-250.404,-38.044
44.69,-251.703,-38.33
44.73,-253.072,-38.685
44.76,-254.686,-39.018
44.79,-256.3,-39.258
44.83,-257.809,-39.453
44.86,-259.143,-39.728
44.89,-260.336,-39.991
44.92,-261.354,-40.152
44.96,-262.442,-40.266
44.99,-263.741,-40.472
45.02,-264.934,-40.69
45.05,-266.057,-41.011
45.09,-267.355,-41.274
45.12,-268.584,-41.492
45.15,-269.637,-41.755
45.18,-270.724,-42.03
45.22,-271.848,-42.271
45.25,-272.971,-42.466
45.28,-273.813,-42.672
45.31,-274.866,-43.016
45.35,-275.989,-43.222
45.38,-276.761,-43.394
45.41,-277.568,-43.531
45.44,-278.34,-43.554
45.48,-278.972,-43.588
45.51,-279.428,-43.68
45.54,-279.99,-43.749
45.57,-280.656,-43.863
45.61,-281.183,-43.737
45.64,-281.639,-44.047
45.67,-282.341,-44.276
45.7,-282.973,-44.276
45.74,-283.183,-44.448
45.77,-283.359,-44.367
45.8,-283.569,-44.356
45.83,-283.78,-44.47
45.87,-283.885,-44.528
45.9,-283.815,-44.379
45.93,-283.429,-44.264
45.96,-283.183,-44.161
46.0,-282.938,-43.863
46.03,-282.236,-43.554
46.06,-281.639,-43.428
46.09,-281.464,-43.359
46.13,-281.288,-43.302
46.16,-280.832,-43.256
46.19,-280.27,-43.245
46.22,-279.779,-43.21
46.26,-279.323,-43.107
46.29,-278.551,-42.901
46.32,-277.638,-42.809
46.35,-277.112,-42.741
46.39,-276.62,-42.58
46.42,-275.778,-42.42
46.45,-274.831,-42.305
46.49,-273.883,-42.099
46.52,-272.795,-41.904
46.55,-271.602,-41.733
46.58,-270.584,-41.503
46.62,-269.496,-41.274
46.65,-268.198,-41.057
46.68,-266.969,-40.896
46.71,-265.811,-40.713
46.75,-264.442,-40.438
46.78,-262.793,-40.129
46.81,-261.319,-39.865
46.84,-259.915,-39.533
46.88,-258.195,-39.235
46.91,-256.511,-39.063
46.94,-255.037,-38.892
46.97,-253.668,-38.662
47.01,-252.089,-38.376
47.04,-250.404,-38.113
47.07,-248.755,-38.044
47.1,-247.386,-37.826
47.14,-245.561,-37.574
47.17,-243.666,-37.391
47.2,-242.017,-37.208
47.23,-240.262,-36.99
47.27,-238.367,-36.715
47.3,-236.542,-36.44
47.33,-234.717,-36.257
47.36,-232.927,-35.993
47.4,-231.032,-35.673
47.43,-229.031,-35.375
47.46,-227.136,-35.169
47.49,-225.066,-34.859
47.53,-222.96,-34.573
47.56,-220.573,-34.275
47.59,-218.503,-33.863
47.62,-216.643,-33.656
47.66,-214.818,-33.485
47.69,-212.782,-33.198
47.72,-210.957,-33.061
47.75,-209.097,-32.992
47.79,-207.132,-32.74
47.82,-204.851,-32.522
47.85,-202.534,-32.35
47.88,-200.534,-32.064
47.92,-198.463,-31.72
47.95,-196.252,-31.377
47.98,-193.971,-30.987
48.02,-191.655,-30.689
48.05,-189.268,-30.369
48.08,-186.952,-29.979
48.11,-184.39,-29.59
48.15,-181.653,-29.131
48.18,-179.337,-28.788
48.21,-176.985,-28.398
48.24,-174.107,-27.906
48.28,-171.159,-27.425
48.31,-168.457,-27.035
48.34,-165.86,-26.52
48.37,-162.947,-25.89
48.41,-159.789,-25.294
48.44,-156.981,-24.95
48.47,-154.243,-24.469
48.5,-151.225,-23.782
48.54,-147.821,-23.415
48.57,-144.768,-22.945
48.6,-142.065,-22.464
48.63,-139.223,-21.892
48.67,-135.818,-21.296
48.7,-132.344,-20.952
48.73,-129.501,-20.654
48.76,-126.869,-20.07
48.8,-123.851,-19.452
48.83,-120.306,-18.97
48.86,-116.727,-18.535
48.89,-113.463,-18.1
48.93,-110.725,-17.607
48.96,-107.848,-16.966
48.99,-104.584,-16.393
49.02,-101.074,-16.003
49.06,-97.74,-15.614
49.09,-94.652,-15.133
49.12,-91.563,-14.652
49.15,-88.264,-14.09
49.19,-84.79,-13.575
49.22,-81.386,-13.151
49.25,-78.192,-12.67
49.28,-74.963,-12.143
49.32,-71.875,-11.708
49.35,-68.752,-11.215
49.38,-65.593,-10.722
49.41,-62.294,-10.31
49.45,-59.1,-9.932
49.48,-55.801,-9.508
49.51,-52.853,-9.05
49.55,-49.414,-8.546
49.58,-46.045,-8.088
49.61,-42.36,-7.561
49.64,-39.622,-6.942
49.68,-40.009,-5.361
49.71,-45.132,-1.684
49.74,-40.395,2.119
49.77,-26.743,1.123
49.81,-26.076,-0.103
49.84,-24.286,0.916
49.87,-16.389,1.226
49.9,-8.282,1.065
49.94,-1.72,0.916
49.97,3.123,0.596
50.0,3.755,0.137
50.03,4.387,0.561
50.07,8.247,0.733
50.1,11.476,0.538
50.13,14.284,0.619
50.16,17.758,1.146
50.2,22.11,2.131
50.23,27.62,2.921
50.26,33.025,3.127
50.29,36.604,3.208
50.33,38.148,3.746
50.36,39.307,4.731
50.39,41.588,5.59
50.42,44.606,5.842
50.46,47.449,5.693
50.49,49.976,5.625
50.52,52.713,5.831
50.55,56.258,6.232
50.59,60.223,6.724
50.62,64.119,7.297
50.65,67.664,8.042
50.68,70.857,8.867
50.72,74.051,9.691
50.75,77.56,10.505
50.78,80.965,11.123
50.81,83.913,11.375
50.85,86.58,11.765
50.88,89.563,12.338
50.91,93.037,12.807
50.94,96.652,13.254
50.98,100.021,13.747
51.01,103.355,14.331
51.04,106.83,15.121
51.08,110.48,15.797
51.11,113.884,16.324
51.14,116.867,16.92
51.17,119.78,17.584
51.21,122.833,18.02
51.24,126.132,18.524
51.27,129.466,19.085
51.3,132.8,19.452
51.34,136.029,20.036
51.37,139.223,20.631
51.4,142.346,21.113
51.43,145.329,21.64
51.47,148.418,22.258
51.5,151.436,22.682
51.53,154.314,23.049
51.56,157.332,23.541
51.6,160.315,23.954
51.63,163.193,24.297
51.66,165.93,24.744
51.69,168.668,25.191
51.73,171.51,25.512
51.76,174.037,25.832
51.79,176.634,26.21
51.82,179.372,26.554
51.86,182.004,26.943
51.89,184.601,27.299
51.92,186.987,27.631
51.95,189.374,27.997
51.99,191.585,28.318
52.02,193.901,28.57
52.05,196.147,28.834
52.08,198.323,29.109
52.12,200.499,29.292
52.15,202.57,29.487
52.18,204.675,29.762
52.21,206.606,29.899
52.25,208.29,30.071
52.28,209.869,30.414
52.31,211.905,30.747
52.34,214.186,30.987
52.38,216.116,31.262
52.41,218.047,31.629
52.44,219.977,32.053
52.47,221.556,32.339
52.51,223.346,32.602
52.54,225.627,33.301
52.57,227.943,33.656
52.61,229.803,33.771
52.64,231.207,34.138
52.67,233.032,34.71
52.7,235.208,35.169
52.74,237.103,35.455
52.77,238.823,35.821
52.8,240.367,36.051
52.83,242.017,36.406
52.87,243.771,36.852
52.9,245.421,37.116
52.93,246.93,37.391
52.96,248.65,37.757
53.0,250.299,37.952
53.03,251.668,38.055
53.06,253.036,38.399
53.09,254.51,38.811
53.13,256.23,39.086
53.16,257.774,39.373
53.19,259.354,39.716
53.22,260.687,40.037
53.26,261.81,40.163
53.29,262.898,40.335
53.32,264.056,40.633
53.35,265.39,40.816
53.39,266.724,40.919
53.42,267.812,41.091
53.45,268.9,41.332
53.48,270.023,41.572
53.52,270.935,41.824
53.55,272.023,42.099
53.58,273.146,42.248
53.61,274.094,42.477
53.65,275.146,42.729
53.68,276.199,42.981
53.71,277.042,43.187
53.74,277.744,43.359
53.78,278.445,43.439
53.81,279.007,43.508
53.84,279.604,43.497
53.87,280.025,43.462
53.91,280.692,43.611
53.94,281.534,43.909
53.97,281.815,43.817
54.0,282.025,43.886
54.04,282.552,43.966
54.07,282.867,43.898
54.1,282.938,43.989
54.14,283.113,43.955
54.17,283.429,44.001
54.2,283.745,44.092
54.23,283.78,44.15
54.27,283.815,44.207
54.3,283.815,44.195
54.33,283.534,44.115
54.36,283.218,44.024
54.4,283.043,43.852
54.43,282.938,43.795
54.46,282.867,43.726
54.49,282.516,43.611
54.53,281.955,43.554
54.56,281.288,43.439
54.59,280.586,43.233
54.62,279.814,43.004
54.66,279.112,42.741
54.69,278.375,42.592
54.72,277.673,42.546
54.75,276.831,42.466
54.79,275.919,42.328
54.82,274.831,42.099
54.85,273.602,41.755
54.88,272.093,41.4
54.92,270.619,41.068
54.95,269.321,40.77
54.98,268.057,40.438
55.01,266.583,40.152
55.05,265.215,39.945
55.08,263.846,39.716
55.11,262.302,39.545
55.14,260.898,39.419
55.18,259.81,39.235
55.21,258.476,39.006
55.24,256.757,38.857
55.27,255.107,38.766
55.31,253.668,38.628
55.34,252.194,38.399
55.37,250.615,38.113
55.4,249.001,37.849
55.44,247.421,37.654
55.47,245.737,37.357
55.5,243.736,37.082
55.53,241.911,37.001
55.57,240.262,36.749
55.6,238.297,36.394
55.63,236.156,36.119
55.67,234.331,35.925
55.7,232.541,35.592
55.73,230.611,35.329
55.76,228.575,35.111
55.8,226.785,34.962
55.83,225.136,34.894
55.86,223.381,34.71
55.89,221.346,34.493
55.93,219.415,34.367
55.96,217.661,34.172
55.99,215.73,33.851
56.02,213.519,33.588
56.06,211.414,33.45
56.09,209.378,33.221
56.12,207.202,32.832
56.15,204.956,32.465
56.19,202.71,32.076
56.22,200.323,31.72
56.25,198.148,31.457
56.28,196.042,31.193
56.32,193.901,30.907
56.35,191.585,30.609
56.38,189.163,30.288
56.41,186.847,29.991
56.45,184.355,29.635
56.48,181.828,29.189
56.51,179.337,28.834
56.54,176.985,28.49
56.58,174.283,27.974
56.61,171.23,27.482
56.64,168.422,27.127
56.67,166.071,26.691
56.71,163.228,25.981
56.74,160.104,25.466
56.77,156.911,25.019
56.8,154.138,24.526
56.84,151.26,24.034
56.87,148.277,23.369
56.9,144.873,22.888
56.93,141.714,22.453
56.97,138.907,21.914
57.0,135.783,21.353
57.03,132.59,20.872
57.06,129.642,20.437
57.1,126.729,19.99
57.13,123.781,19.566
57.16,120.587,19.131
57.2,117.358,18.718
57.23,114.059,18.295
57.26,111.111,17.848
57.29,108.093,17.367
57.33,105.005,16.885
57.36,101.846,16.416
57.39,98.582,15.946
57.42,95.389,15.476
57.46,92.055,15.041
57.49,88.756,14.526
57.52,85.527,13.987
57.55,82.333,13.495
57.59,79.105,12.979
57.62,75.771,12.487
57.65,72.472,12.074
57.68,69.243,11.627
57.72,66.19,11.158
57.75,63.136,10.654
57.78,59.943,10.207
57.81,56.644,9.817
57.85,53.59,9.497
57.88,50.888,9.348
57.91,48.782,9.313
57.94,46.22,9.061
57.98,44.711,8.523
58.01,46.992,6.644
58.04,52.187,2.726
58.07,49.835,-1.661
58.11,35.095,-1.558
58.14,30.708,0.0
58.17,28.322,-0.894
58.2,18.916,-1.352
58.24,9.581,-1.1
58.27,1.123,-1.123
58.3,-5.124,-0.527
58.33,-4.703,0.137
58.37,-5.089,-0.607
58.4,-11.09,-0.871
58.43,-12.529,-1.707
58.46,-16.354,-3.494
58.5,-25.093,-3.872
58.53,-32.568,-3.425
58.56,-36.955,-3.723
58.59,-38.219,-4.903
58.63,-39.131,-6.289
58.66,-40.816,-7.458
58.69,-43.413,-7.859
58.72,-45.483,-7.148
58.76,-46.501,-6.209
58.79,-47.835,-5.923
58.82,-50.923,-5.888
58.86,-55.029,-5.625
58.89,-58.855,-5.487
58.92,-62.364,-5.98
58.95,-66.119,-6.873
58.99,-69.98,-7.778
59.02,-73.489,-8.603
59.05,-76.648,-9.451
59.08,-79.596,-10.31
59.12,-82.614,-10.952
59.15,-85.703,-11.352
59.18,-88.756,-11.799
59.21,-92.055,-12.269
59.25,-95.248,-12.601
59.28,-98.302,-12.991
59.31,-101.636,-13.621
59.34,-105.145,-14.285
59.38,-108.69,-14.904
59.41,-111.989,-15.534
59.44,-115.393,-16.221
59.47,-118.552,-16.84
59.51,-121.535,-17.412
59.54,-124.342,-17.916
59.57,-127.676,-18.547
59.6,-131.291,-19.085
59.64,-134.59,-19.394
59.67,-137.468,-19.83
59.7,-140.381,-20.574
59.73,-143.575,-21.078
59.77,-146.803,-21.41
59.8,-149.821,-21.857
59.83,-152.664,-22.315
59.86,-155.577,-22.877
59.9,-158.595,-23.415
59.93,-161.719,-23.873
59.96,-164.702,-24.332
59.99,-167.509,-24.801
60.03,-170.177,-25.191
60.06,-172.739,-25.523
60.09,-175.336,-25.981
60.12,-178.284,-26.416
60.16,-181.161,-26.737
60.19,-183.864,-27.058
60.22,-186.391,-27.447
60.25,-188.777,-27.86
60.29,-191.093,-28.261
60.32,-193.445,-28.57
60.35,-195.972,-28.857
60.39,-198.218,-29.177
60.42,-200.429,-29.429
60.45,-202.499,-29.647
60.48,-204.605,-29.888
60.52,-206.606,-30.151
60.55,-208.536,-30.334
60.58,-210.08,-30.563
60.61,-209.378,-29.59
60.65,-206.079,-27.585
60.68,-203.763,-26.772
60.71,-203.622,-25.97
60.74,-203.587,-24.171
60.78,-202.043,-23.232
60.81,-201.447,-23.587
60.84,-203.482,-24.607
60.87,-206.746,-26.199
60.91,-210.852,-28.238
60.94,-216.046,-30.495
60.97,-222.188,-32.499
61.0,-227.171,-34.149
61.04,-230.26,-35.925
61.07,-232.716,-37.735
61.1,-235.84,-39.018
61.13,-238.858,-39.625
61.17,-241.034,-39.854
61.2,-242.473,-39.945
61.23,-244.087,-40.037
61.26,-246.439,-40.106
61.3,-248.685,-40.186
61.33,-250.475,-40.346
61.36,-252.299,-40.621
61.39,-254.23,-40.954
61.43,-256.125,-41.217
61.46,-257.669,-41.412
61.49,-259.073,-41.503
61.52,-260.266,-41.492
61.56,-261.214,-41.366
61.59,-262.021,-41.263
61.62,-263.144,-41.171
61.65,-264.267,-41.103
61.69,-265.215,-41.251
61.72,-266.478,-41.492
61.75,-267.917,-41.618
61.78,-269.075,-41.824
61.82,-270.163,-42.191
61.85,-271.251,-42.454
61.88,-272.304,-42.615
61.92,-273.392,-42.775
61.95,-274.409,-42.867
61.98,-275.217,-43.073
62.01,-275.989,-43.336
62.05,-276.936,-43.417
62.08,-277.533,-43.439
62.11,-278.059,-43.474
62.14,-278.551,-43.485
62.18,-279.147,-43.359
62.21,-279.428,-43.313
62.24,-279.955,-43.462
62.27,-280.586,-43.588
62.31,-280.902,-43.68
62.34,-281.358,-43.783
62.37,-281.815,-43.863
62.4,-282.06,-43.909
62.44,-282.06,-43.886
62.47,-282.06,-43.806
62.5,-282.095,-43.795
62.53,-282.201,-43.806
62.57,-282.376,-43.691
62.6,-282.201,-43.691
62.63,-281.955,-43.726
62.66,-281.779,-43.646
62.7,-281.534,-43.565
62.73,-281.429,-43.588
62.76,-281.464,-43.623
62.79,-281.429,-43.634
62.83,-281.183,-43.623
62.86,-280.902,-43.669
62.89,-280.481,-43.6
62.92,-279.639,-43.52
62.96,-279.042,-43.382
62.99,-278.445,-43.165
63.02,-277.708,-43.027
63.05,-276.901,-42.89
63.09,-276.094,-42.764
63.12,-275.427,-42.615
63.15,-274.269,-42.408
63.18,-273.251,-42.191
63.22,-272.163,-41.904
63.25,-270.97,-41.687
63.28,-269.777,-41.492
63.31,-268.689,-41.286
63.35,-267.601,-41.068
63.38,-266.618,-40.816
63.41,-265.179,-40.472
63.45,-263.354,-40.22
63.48,-261.986,-40.049
63.51,-260.722,-39.819
63.54,-259.143,-39.522
63.58,-257.564,-39.327
63.61,-256.265,-39.109
63.64,-254.756,-38.857
63.67,-252.791,-38.605
63.71,-251.071,-38.388
63.74,-249.597,-38.158
63.77,-247.983,-37.883
63.8,-246.123,-37.62
63.84,-244.298,-37.368
63.87,-242.754,-37.231
63.9,-241.245,-37.047
63.93,-239.349,-36.807
63.97,-237.489,-36.623
64.0,-235.84,-36.497
64.03,-234.261,-36.234
64.06,-232.155,-35.902
64.1,-229.944,-35.65
64.13,-227.979,-35.421
64.16,-226.118,-35.1
64.19,-223.872,-34.63
64.23,-221.521,-34.275
64.26,-219.31,-33.92
64.29,-217.239,-33.553
64.32,-214.993,-33.152
64.36,-212.642,-32.935
64.39,-210.817,-32.774
64.42,-209.062,-32.58
64.45,-206.886,-32.202
64.49,-204.57,-32.076
64.52,-202.359,-31.927
64.55,-200.218,-31.549
64.58,-198.183,-31.354
64.62,-196.147,-31.193
64.65,-193.761,-30.747
64.68,-191.374,-30.437
64.71,-189.163,-30.277
64.75,-187.233,-30.014
64.78,-184.671,-29.555
64.81,-181.969,-29.12
64.84,-179.512,-28.971
64.88,-177.336,-28.673
64.91,-175.02,-28.192
64.94,-172.142,-27.665
64.98,-169.229,-27.264
65.01,-166.562,-26.852
65.04,-163.789,-26.245
65.07,-160.631,-25.626
65.11,-157.648,-25.214
65.14,-154.84,-24.675
65.17,-151.962,-23.999
65.2,-148.698,-23.507
65.24,-145.505,-22.923
65.27,-142.206,-22.327
65.3,-139.117,-21.869
65.33,-136.24,-21.376
65.37,-133.257,-20.803
65.4,-130.133,-20.345
65.43,-127.08,-19.978
65.46,-124.062,-19.566
65.5,-120.868,-19.142
65.53,-117.534,-18.615
65.56,-114.059,-18.077
65.59,-110.936,-17.607
65.63,-107.988,-17.092
65.66,-104.794,-16.519
65.69,-101.601,-16.061
65.72,-98.512,-15.683
65.76,-95.319,-15.202
65.79,-92.16,-14.743
65.82,-88.826,-14.308
65.85,-85.632,-13.827
65.89,-82.439,-13.334
65.92,-79.21,-12.807
65.95,-75.876,-12.303
65.98,-72.752,-11.856
66.02,-69.524,-11.387
66.05,-66.4,-10.906
66.08,-63.171,-10.493
66.11,-60.083,-10.092
66.15,-56.714,-9.588
66.18,-53.31,-9.05
66.21,-49.519,-8.626
66.24,-46.326,-8.191
66.28,-42.921,-7.572
66.31,-40.5,-6.919
66.34,-41.483,-5.224
66.37,-46.782,-1.375
66.41,-40.956,2.188
66.44,-27.69,0.997
66.47,-26.953,0.011
66.51,-24.11,0.985
66.54,-15.793,1.26
66.57,-7.581,1.065
66.6,-0.772,0.974
66.64,3.966,0.47
66.67,3.474,0.057
66.7,4.492,0.676
66.73,8.563,0.642
66.77,10.634,0.424
66.8,13.477,0.687
66.83,17.407,1.146
66.86,21.619,1.982
66.9,26.813,2.646
66.93,31.796,2.795
66.96,35.481,2.841
66.99,37.482,3.334
67.03,39.201,4.296
67.06,41.833,5.235
67.09,45.062,5.682
67.12,48.08,5.785
67.16,50.677,6.014
67.19,53.59,6.415
67.22,57.17,6.954
67.25,61.171,7.503
67.29,64.996,8.03
67.32,68.33,8.615
67.35,71.454,9.325
67.38,74.683,10.035
67.42,77.876,10.619
67.45,80.859,10.986
67.48,83.737,11.307
67.51,86.58,11.627
67.55,89.493,11.948
67.58,92.511,12.315
67.61,95.74,12.704
67.64,98.969,13.197
67.68,102.232,13.655
67.71,105.602,14.365
67.74,109.216,15.133
67.77,112.901,15.786
67.81,116.095,16.462
67.84,119.254,17.229
67.87,122.552,17.939
67.9,125.816,18.478
67.94,129.045,19.096
67.97,132.344,19.646
68.0,135.643,20.127
68.04,138.942,20.769
68.07,142.241,21.273
68.1,145.329,21.628
68.13,148.242,22.224
68.17,151.155,22.785
68.2,154.279,23.243
68.23,157.507,23.736
68.26,160.596,24.125
68.3,163.333,24.435
68.33,165.93,24.836
68.36,168.562,25.225
68.39,171.265,25.569
68.43,173.967,25.867
68.46,176.74,26.199
68.49,179.266,26.52
68.52,181.898,26.863
68.56,184.425,27.253
68.59,186.847,27.574
68.62,189.093,27.906
68.65,191.409,28.295
68.69,193.69,28.582
68.72,196.042,28.822
68.75,198.393,29.051
68.78,200.534,29.257
68.82,202.464,29.521
68.85,204.535,29.853
68.88,206.57,30.048
68.91,208.395,30.174
68.95,210.115,30.426
68.98,212.045,30.724
69.01,214.116,30.953
69.04,216.011,31.274
69.08,218.117,31.675
69.11,220.047,32.064
69.14,221.837,32.362
69.17,223.627,32.717
69.21,225.557,33.129
69.24,227.698,33.507
69.27,229.523,33.782
69.3,231.067,34.126
69.34,232.787,34.47
69.37,234.647,34.768
69.4,236.331,35.008
69.43,237.946,35.352
69.47,239.876,35.844
69.5,241.595,36.051
69.53,243.14,36.348
69.57,244.719,36.841
69.6,246.684,37.299
69.63,248.615,37.7
69.66,250.159,38.032
69.7,251.668,38.388
69.73,253.387,38.777
69.76,255.177,39.052
69.79,256.757,39.304
69.83,258.125,39.636
69.86,259.564,40.003
69.89,260.863,40.152
69.92,261.705,40.186
69.96,262.617,40.392
69.99,263.986,40.518
70.02,265.32,40.576
70.05,266.408,40.873
70.09,267.636,41.091
70.12,268.689,41.309
70.15,269.637,41.549
70.18,270.76,41.755
70.22,271.602,41.847
70.25,272.585,42.019
70.28,273.672,42.317
70.31,274.796,42.592
70.35,275.708,42.775
70.38,276.691,43.016
70.41,277.568,43.279
70.44,278.34,43.382
70.48,279.077,43.497
70.51,279.744,43.588
70.54,280.411,43.714
70.57,281.183,43.909
70.61,281.885,44.081
70.64,282.446,44.161
70.67,282.727,44.207
70.7,283.043,44.287
70.74,283.359,44.195
70.77,283.218,43.978
70.8,282.973,43.863
70.83,283.113,43.875
70.87,283.289,43.783
70.9,283.113,43.691
70.93,282.867,43.669
70.96,282.832,43.588
71.0,282.692,43.451
71.03,282.411,43.371
71.06,282.201,43.382
71.1,282.06,43.508
71.13,282.025,43.623
71.16,281.92,43.68
71.19,281.604,43.634
71.23,281.078,43.52
71.26,280.411,43.417
71.29,279.744,43.336
71.32,279.253,43.165
71.36,278.726,43.038
71.39,278.235,42.878
71.42,277.393,42.672
71.45,276.199,42.489
71.49,275.041,42.282
71.52,273.953,41.962
71.55,272.585,41.515
71.58,270.97,41.068
71.62,269.531,40.759
71.65,268.163,40.461
71.68,266.618,40.152
71.71,265.179,39.9
71.75,263.741,39.613
71.78,262.196,39.35
71.81,260.722,39.109
71.84,259.248,38.937
71.88,257.88,38.777
71.91,256.371,38.582
71.94,254.861,38.433
71.97,253.317,38.284
72.01,251.703,38.044
72.04,249.913,37.826
72.07,248.123,37.7
72.1,246.474,37.54
72.14,244.93,37.299
72.17,243.666,37.185
72.2,242.332,37.105
72.23,240.472,36.91
72.27,238.367,36.795
72.3,236.682,36.749
72.33,235.278,36.406
72.36,233.278,35.97
72.4,231.067,35.695
72.43,228.961,35.432
72.46,227.171,35.123
72.49,225.276,34.813
72.53,223.03,34.504
72.56,220.995,34.206
72.59,219.029,34.0
72.62,217.029,33.782
72.66,214.993,33.542
72.69,212.958,33.347
72.72,210.957,33.164
72.76,208.992,32.877
72.79,206.746,32.522
72.82,204.289,32.247
72.85,202.148,31.972
72.89,200.113,31.663
72.92,197.832,31.308
72.95,195.621,31.056
72.98,193.69,30.861
73.02,191.515,30.586
73.05,189.093,30.231
73.08,186.636,29.968
73.11,184.18,29.67
73.15,181.863,29.28
73.18,179.372,28.914
73.21,176.915,28.639
73.24,174.423,28.226
73.28,171.756,27.722
73.31,169.089,27.287
73.34,166.492,26.978
73.37,163.614,26.313
73.41,160.561,25.775
73.44,157.578,25.374
73.47,154.7,24.755
73.5,151.892,24.286
73.54,149.26,23.931
73.57,146.242,23.369
73.6,142.802,22.739
73.63,139.363,22.189
73.67,136.169,21.594
73.7,133.151,20.998
73.73,129.958,20.391
73.76,126.588,19.83
73.8,123.36,19.348
73.83,120.201,18.844
73.86,117.043,18.295
73.89,113.779,17.825
73.93,110.725,17.458
73.96,107.742,17.069
73.99,104.689,16.668
74.02,101.671,16.255
74.06,98.442,15.797
74.09,95.143,15.305
74.12,91.809,14.835
74.15,88.405,14.388
74.19,85.211,13.896
74.22,82.053,13.38
74.25,78.929,12.899
74.29,75.665,12.441
74.32,72.577,12.04
74.35,69.524,11.639
74.38,66.505,11.181
74.42,63.242,10.734
74.45,60.048,10.413
74.48,56.995,10.104
74.51,54.187,9.806
74.55,50.993,9.371
74.58,47.729,8.844
74.61,43.939,8.385
74.64,41.167,7.973
74.68,41.553,6.438
74.71,46.747,2.726
74.74,44.325,-1.879
74.77,28.532,-1.535
74.81,25.374,0.172
74.84,24.146,-0.768
74.87,15.968,-1.249
74.9,6.984,-1.054
74.94,0.0,-0.848
74.97,-4.141,-0.367
75.0,-3.86,-0.023
75.03,-5.299,-0.642
75.07,-9.756,-0.596
75.1,-10.88,-0.722
75.13,-13.617,-1.627
75.16,-19.267,-2.268
75.2,-25.163,-2.532
75.23,-30.357,-2.474
75.26,-34.007,-2.52
75.29,-36.253,-3.047
75.33,-37.938,-3.929
75.36,-39.868,-4.8
75.39,-42.36,-5.327
75.42,-45.097,-5.418
75.46,-47.624,-5.384
75.49,-50.256,-5.613
75.52,-53.661,-5.968
75.55,-57.697,-6.266
75.59,-61.311,-6.667
75.62,-64.856,-7.354
75.65,-68.506,-8.191
75.68,-71.98,-8.912
75.72,-75.139,-9.474
75.75,-77.911,-10.058
75.78,-80.719,-10.688
75.82,-83.632,-11.123
75.85,-86.685,-11.375
75.88,-89.809,-11.696
75.91,-92.792,-12.063
75.95,-95.95,-12.487
75.98,-99.39,-13.002
76.01,-102.724,-13.552
76.04,-105.777,-14.125
76.08,-108.865,-14.812
76.11,-112.199,-15.602
76.14,-115.814,-16.198
76.17,-119.569,-16.885
76.21,-122.763,-17.47
76.24,-125.641,-17.951
76.27,-128.905,-18.821
76.3,-132.52,-19.566
76.34,-136.169,-20.013
76.37,-139.153,-20.551
76.4,-141.855,-21.101
76.43,-144.768,-21.64
76.47,-148.172,-22.189
76.5,-151.471,-22.51
76.53,-154.138,-22.739
76.56,-156.665,-23.266
76.6,-159.683,-23.908
76.63,-163.052,-24.217
76.66,-166.0,-24.503
76.69,-168.668,-25.053
76.73,-171.405,-25.557
76.76,-174.283,-25.97
76.79,-176.985,-26.29
76.82,-179.652,-26.726
76.86,-182.249,-27.127
76.89,-184.776,-27.402
76.92,-187.163,-27.688
76.95,-189.549,-28.043
76.99,-191.936,-28.318
77.02,-194.077,-28.536
77.05,-196.252,-28.776
77.08,-198.428,-29.051
77.12,-200.604,-29.246
77.15,-202.394,-29.418
77.18,-203.833,-29.429
77.21,-204.956,-29.303
77.25,-205.974,-29.166
77.28,-207.062,-29.051
77.31,-208.255,-28.914
77.35,-209.869,-28.879
77.38,-211.835,-29.154
77.41,-214.256,-29.647
77.44,-216.467,-30.288
77.48,-218.959,-31.216
77.51,-221.907,-32.259
77.54,-225.031,-33.278
77.57,-227.838,-34.298
77.61,-230.505,-35.272
77.64,-233.032,-36.074
77.67,-235.384,-36.692
77.7,-237.279,-36.979
77.74,-238.647,-37.219
77.77,-240.192,-37.357
77.8,-242.087,-37.391
77.83,-243.771,-37.334
77.87,-244.789,-37.391
77.9,-246.158,-37.597
77.93,-248.158,-37.769
77.96,-249.843,-37.918
78.0,-250.931,-38.113
78.03,-252.194,-38.445
78.06,-253.809,-38.72
78.09,-255.318,-38.834
78.13,-256.3,-38.983
78.16,-257.353,-39.258
78.19,-258.862,-39.51
78.22,-260.266,-39.636
78.26,-261.073,-39.705
78.29,-262.021,-39.911
78.32,-263.249,-40.129
78.35,-264.583,-40.369
78.39,-265.987,-40.633
78.42,-267.39,-40.839
78.45,-268.198,-41.274
78.48,-269.25,-41.698
78.52,-270.338,-41.87
78.55,-271.461,-42.088
78.58,-272.514,-42.317
78.61,-273.567,-42.512
78.65,-274.76,-42.764
78.68,-275.743,-43.027
78.71,-276.515,-43.245
78.74,-277.217,-43.302
78.78,-277.989,-43.417
78.81,-278.586,-43.531
78.84,-278.972,-43.462
78.88,-279.744,-43.703
78.91,-280.656,-43.909
78.94,-281.148,-44.035
78.97,-281.604,-44.218
79.01,-282.376,-44.333
79.04,-282.797,-44.448
79.07,-282.903,-44.448
79.1,-283.394,-44.596
79.14,-283.955,-44.688
79.17,-284.201,-44.528
79.2,-283.955,-44.585
79.23,-283.99,-44.642
79.27,-284.026,-44.459
79.3,-283.499,-44.207
79.33,-282.762,-44.069
79.36,-282.376,-43.898
79.4,-282.341,-43.6
79.43,-282.06,-43.348
79.46,-281.534,-43.279
79.49,-281.078,-43.291
79.53,-280.656,-43.256
79.56,-280.095,-43.142
79.59,-279.604,-42.993
79.62,-278.867,-42.832
79.66,-277.954,-42.695
79.69,-277.042,-42.626
79.72,-276.55,-42.534
79.75,-275.883,-42.351
79.79,-274.901,-42.156
79.82,-273.708,-41.927
79.85,-272.444,-41.733
79.88,-271.356,-41.492
79.92,-270.093,-41.251
79.95,-268.935,-41.08
79.98,-267.671,-40.908
80.01,-266.689,-40.702
80.05,-265.601,-40.415
80.08,-263.705,-40.175
80.11,-262.126,-39.991
80.14,-260.863,-39.648
80.18,-259.178,-39.315
80.21,-257.318,-39.086
80.24,-255.809,-38.846
80.27,-254.51,-38.594
80.31,-252.931,-38.422
80.34,-251.001,-38.124
80.37,-249.352,-37.906
80.41,-248.123,-37.826
80.44,-246.439,-37.471
80.47,-244.403,-37.15
80.5,-242.648,-37.082
80.54,-241.525,-37.093
80.57,-240.121,-36.967
80.6,-238.332,-36.726
80.63,-236.436,-36.532
80.67,-234.471,-36.44
80.7,-232.681,-36.234
80.73,-230.751,-35.867
80.76,-228.68,-35.455
80.8,-226.364,-35.031
80.83,-224.083,-34.596
80.86,-222.012,-34.183
80.89,-219.801,-33.908
80.93,-217.52,-33.576
80.96,-215.45,-33.221
80.99,-213.554,-33.038
81.02,-212.08,-33.003
81.06,-210.536,-32.969
81.09,-208.536,-32.786
81.12,-206.36,-32.648
81.15,-204.254,-32.602
81.19,-202.289,-32.442
81.22,-200.288,-32.11
81.25,-198.253,-31.881
81.28,-196.182,-31.617
81.32,-193.971,-31.319
81.35,-191.83,-31.056
81.38,-189.795,-30.758
81.41,-187.408,-30.357
81.45,-184.846,-29.933
81.48,-182.285,-29.567
81.51,-179.828,-29.235
81.54,-177.441,-28.765
81.58,-174.809,-28.272
81.61,-171.896,-27.734
81.64,-169.054,-27.241
81.67,-166.176,-26.68
81.71,-163.474,-26.199
81.74,-160.701,-25.683
81.77,-157.928,-25.122
81.8,-155.051,-24.71
81.84,-152.032,-24.274
81.87,-149.014,-23.828
81.9,-146.136,-23.358
81.94,-143.188,-22.716
81.97,-139.96,-22.201
82.0,-136.626,-21.628
82.03,-133.467,-21.021
82.07,-130.238,-20.517
82.1,-127.185,-20.001
82.13,-124.132,-19.394
82.16,-120.833,-18.856
82.2,-117.464,-18.306
82.23,-114.024,-17.768
82.26,-110.936,-17.412
82.29,-108.058,-17.023
82.33,-105.005,-16.485
82.36,-101.636,-15.946
82.39,-98.126,-15.534
82.42,-94.617,-15.053
82.46,-91.283,-14.48
82.49,-88.124,-13.941
82.52,-84.79,-13.346
82.55,-81.351,-12.773
82.59,-78.052,-12.349
82.62,-74.963,-11.937
82.65,-71.875,-11.49
82.68,-68.681,-11.055
82.72,-65.523,-10.654
82.75,-62.013,-10.195
82.78,-58.644,-9.772
82.81,-55.099,-9.313
82.85,-52.046,-8.786
82.88,-48.607,-8.214
82.91,-45.308,-7.664
82.94,-41.623,-7.091
82.98,-38.535,-6.644
83.01,-38.64,-5.418
83.04,-44.325,-1.867
83.07,-40.465,2.085
83.11,-26.462,1.18
83.14,-25.444,-0.103
83.17,-23.795,0.871
83.2,-16.425,1.168
83.24,-8.774,1.008
83.27,-2.597,0.905
83.3,2.351,0.63
83.33,3.194,0.149
83.37,3.51,0.458
83.4,6.528,0.664
83.43,9.546,0.584
83.47,12.775,0.664
83.5,17.021,0.928
83.53,21.338,1.753
83.56,26.813,2.921
83.6,33.13,3.551
83.63,37.903,3.723
83.66,39.903,4.135
83.69,40.535,5.155
83.73,42.22,6.289
83.76,45.448,6.69
83.79,48.502,6.301
83.82,50.677,5.945
83.86,52.853,6.117
83.89,56.082,6.507
83.92,60.258,6.862
83.95,64.365,7.217
83.99,67.839,7.79
84.02,70.963,8.649
84.05,74.156,9.508
84.08,77.455,10.253
84.12,81.0,10.952
84.15,84.193,11.387
84.18,86.931,11.719
84.21,89.633,12.235
84.25,92.827,12.75
84.28,96.231,13.117
84.31,99.46,13.495
84.34,102.513,13.999
84.38,105.777,14.583
84.41,109.251,15.213
84.44,112.621,15.763
84.47,115.604,16.301
84.51,118.552,16.897
84.54,122.096,17.756
84.57,125.676,18.249
84.6,128.94,18.718
84.64,131.853,19.371
84.67,134.976,19.956
84.7,138.345,20.586
84.73,141.75,21.135
84.77,144.592,21.479
84.8,147.365,21.949
84.83,150.664,22.693
84.86,154.138,23.129
84.9,157.297,23.472
84.93,160.034,23.999
84.96,162.772,24.561
84.99,165.72,24.939
85.03,168.668,25.305
85.06,171.405,25.638
85.09,174.002,25.958
85.13,176.389,26.325
85.16,178.986,26.737
85.19,181.793,27.069
85.22,184.531,27.356
85.26,186.987,27.654
85.29,189.268,28.032
85.32,191.585,28.41
85.35,194.006,28.673
85.39,196.147,28.891
85.42,198.218,29.177
85.45,200.359,29.441
85.48,202.464,29.613
85.52,204.43,29.762
85.55,206.219,29.933
85.58,208.044,30.094
85.61,209.764,30.357
85.65,211.765,30.667
85.68,213.87,30.873
85.71,215.8,31.159
85.74,217.52,31.526
85.78,219.45,31.904
85.81,221.205,32.121
85.84,222.89,32.431
85.87,224.75,32.923
85.91,226.961,33.313
85.94,228.926,33.553
85.97,230.786,33.92
86.0,232.962,34.596
86.04,235.243,35.226
86.07,237.244,35.615
86.1,238.963,36.074
86.13,240.753,36.646
86.17,242.719,36.944
86.2,244.298,37.093
86.23,245.772,37.357
86.26,247.421,37.654
86.3,248.86,37.735
86.33,249.983,37.861
86.36,251.527,38.17
86.39,253.177,38.376
86.43,254.616,38.548
86.46,256.02,38.914
86.49,257.845,39.373
86.52,259.705,39.739
86.56,260.722,39.877
86.59,261.424,40.014
86.62,262.512,40.289
86.66,263.951,40.427
86.69,265.179,40.484
86.72,266.232,40.77
86.75,267.285,41.091
86.79,268.408,41.263
86.82,269.461,41.423
86.85,270.514,41.652
86.88,271.637,41.893
86.92,272.655,42.111
86.95,273.602,42.386
86.98,274.76,42.741
87.01,275.919,43.004
87.05,276.796,43.165
87.08,277.428,43.302
87.11,278.059,43.348
87.14,278.586,43.371
87.18,279.042,43.313
87.21,279.674,43.336
87.24,280.235,43.394
87.27,280.797,43.646
87.31,281.499,43.84
87.34,281.92,43.829
87.37,282.341,43.978
87.4,283.043,44.287
87.44,283.218,44.138
87.47,283.008,44.001
87.5,283.289,44.241
87.53,283.955,44.218
87.57,283.85,44.058
87.6,283.534,44.069
87.63,283.394,44.081
87.66,283.324,43.909
87.7,282.938,43.76
87.73,282.797,43.68
87.76,282.727,43.669
87.79,282.446,43.646
87.83,282.166,43.646
87.86,281.674,43.646
87.89,281.393,43.554
87.92,280.797,43.417
87.96,279.919,43.21
87.99,279.288,43.016
88.02,278.691,42.878
88.05,277.708,42.729
88.09,276.726,42.466
88.12,275.603,42.191
88.15,274.339,41.95
88.19,273.041,41.664
88.22,271.812,41.286
88.25,270.374,40.908
88.28,269.075,40.69
88.32,267.776,40.438
88.35,266.548,40.175
88.38,265.706,40.232
88.41,264.899,40.083
88.45,263.53,39.957
88.48,261.951,39.819
88.51,260.512,39.59
88.54,259.073,39.396
88.58,257.599,39.144
88.61,256.09,38.96
88.64,254.616,38.834
88.67,252.721,38.502
88.71,250.896,38.227
88.74,249.352,37.883
88.77,247.421,37.471
88.8,245.351,37.173
88.84,243.28,36.807
88.87,241.315,36.486
88.9,239.49,36.291
88.93,237.7,36.016
88.97,235.735,35.753
89.0,233.91,35.65
89.03,232.471,35.558
89.06,230.962,35.466
89.1,229.242,35.432
89.13,227.663,35.478
89.16,225.978,35.352
89.19,223.943,35.008
89.23,221.767,34.745
89.26,219.556,34.493
89.29,217.555,34.138
89.32,215.485,33.759
89.36,213.309,33.439
89.39,211.238,33.164
89.42,209.203,32.843
89.45,206.992,32.511
89.49,204.745,32.247
89.52,202.499,31.995
89.55,200.359,31.732
89.58,198.218,31.434
89.62,196.112,31.136
89.65,193.936,30.804
89.68,191.55,30.518
89.72,189.198,30.334
89.75,186.952,30.048
89.78,184.706,29.693
89.81,182.32,29.326
89.85,179.863,28.994
89.88,177.336,28.685
89.91,174.809,28.318
89.94,172.107,27.848
89.98,169.299,27.39
90.01,166.632,26.943
90.04,163.789,26.279
90.07,160.806,25.729
90.11,157.648,25.179
90.14,154.594,24.595
90.17,151.225,23.954
90.2,148.032,23.381
90.24,144.978,22.831
90.27,141.82,22.166
90.3,138.907,21.731
90.33,136.099,21.376
90.37,133.292,20.964
90.4,130.554,20.689
90.43,127.852,20.494
90.46,125.079,20.116
90.5,121.921,19.692
90.53,118.587,19.326
90.56,115.323,18.81
90.59,112.059,18.111
90.63,108.585,17.447
90.66,105.04,16.817
90.69,101.741,16.233
90.72,98.512,15.66
90.76,95.143,14.995
90.79,91.914,14.526
90.82,88.826,14.182
90.85,85.667,13.621
90.89,82.263,13.151
90.92,78.964,12.887
90.95,76.122,12.624
90.98,73.349,12.212
91.02,70.261,11.708
91.05,66.927,11.318
91.08,63.277,10.883
91.11,59.978,10.413
91.15,56.819,10.024
91.18,53.801,9.474
91.21,50.502,8.912
91.25,46.992,8.294
91.28,43.062,7.79
91.31,40.395,7.286
91.34,40.851,5.556
91.38,45.975,1.65
91.41,40.71,-2.028
91.44,27.269,-0.974
91.47,26.006,0.023
91.51,23.409,-0.825
91.54,16.179,-1.031
91.57,8.247,-1.031
91.6,1.053,-0.905
91.64,-3.439,-0.378
91.67,-2.948,0.011
91.7,-3.966,-0.573
91.73,-7.967,-0.596
91.77,-9.862,-0.447
91.8,-12.108,-0.813
91.83,-16.179,-1.272
91.86,-21.233,-2.073
91.9,-26.988,-2.704
91.93,-32.463,-2.784
91.96,-36.569,-2.875
91.99,-38.815,-3.46
92.03,-40.324,-4.353
92.06,-42.395,-5.212
92.09,-45.027,-5.693
92.12,-47.8,-5.797
92.16,-50.572,-5.819
92.19,-53.415,-5.991
92.22,-56.714,-6.289
92.25,-60.364,-6.667
92.29,-64.084,-7.206
92.32,-67.804,-7.87
92.35,-71.208,-8.592
92.38,-74.086,-9.313
92.42,-77.104,-10.047
92.45,-80.333,-10.677
92.48,-83.632,-11.146
92.51,-86.755,-11.478
92.55,-89.738,-11.914
92.58,-92.862,-12.418
92.61,-96.231,-12.853
92.64,-99.741,-13.357
92.68,-103.004,-13.953
92.71,-106.233,-14.594
92.74,-109.708,-15.328
92.78,-113.358,-16.026
92.81,-116.762,-16.507
92.84,-119.92,-17.103
92.87,-122.798,-17.813
92.91,-125.957,-18.443
92.94,-129.396,-19.039
92.97,-133.116,-19.692
93.0,-136.31,-20.07
93.04,-139.153,-20.402
93.07,-141.855,-21.147
93.1,-144.838,-21.456
93.13,-148.102,-21.949
93.17,-151.225,-22.315
93.2,-153.857,-22.453
93.23,-156.244,-22.854
93.26,-159.157,-23.438
93.3,-162.28,-23.782
93.33,-165.298,-24.24
93.36,-168.282,-24.79
93.39,-171.335,-25.34
93.43,-174.002,-25.615
93.46,-176.213,-26.016
93.49,-178.775,-26.669
93.52,-182.039,-27.264
93.56,-184.987,-27.436
93.59,-187.163,-27.619
93.62,-189.163,-28.135
93.65,-191.69,-28.65
93.69,-194.357,-28.857
93.72,-196.638,-28.971
93.75,-198.639,-29.326
93.78,-200.885,-29.567
93.82,-202.921,-29.67
93.85,-204.605,-29.796
93.88,-206.184,-29.773
93.91,-207.518,-29.762
93.95,-209.062,-29.945
93.98,-211.098,-30.185
94.01,-213.274,-30.346
94.04,-215.344,-30.678
94.08,-217.52,-31.297
94.11,-219.872,-31.984
94.14,-222.223,-32.614
94.17,-224.609,-33.198
94.21,-226.785,-33.771
94.24,-228.856,-34.344
94.27,-231.067,-34.813
94.31,-232.892,-35.088
94.34,-234.541,-35.386
94.37,-236.366,-35.695
94.4,-237.946,-35.879
94.44,-239.349,-36.005
94.47,-240.788,-36.154
94.5,-242.227,-36.28
94.53,-243.561,-36.44
94.57,-245.035,-36.669
94.6,-246.649,-36.91
94.63,-248.053,-37.139
94.66,-249.387,-37.505
94.7,-250.896,-37.872
94.73,-252.58,-38.181
94.76,-254.265,-38.525
94.79,-255.844,-38.88
94.83,-257.423,-39.247
94.86,-258.897,-39.613
94.89,-260.056,-39.957
94.92,-261.214,-40.22
94.96,-262.442,-40.346
94.99,-263.705,-40.495
95.02,-264.969,-40.736
95.05,-266.267,-41.045
95.09,-267.461,-41.263
95.12,-268.513,-41.538
95.15,-269.672,-41.836
95.18,-270.724,-42.065
95.22,-271.883,-42.282
95.25,-273.006,-42.477
95.28,-273.953,-42.718
95.31,-274.866,-43.107
95.35,-276.129,-43.325
95.38,-277.182,-43.359
95.41,-277.779,-43.485
95.44,-278.41,-43.669
95.48,-279.147,-43.703
95.51,-279.674,-43.726
95.54,-280.341,-43.852
95.57,-281.288,-44.058
95.61,-281.955,-44.173
95.64,-282.516,-44.367
95.67,-283.148,-44.516
95.7,-283.604,-44.757
95.74,-283.815,-44.688
95.77,-283.955,-44.516
95.8,-284.306,-44.745
95.84,-284.622,-44.654
95.87,-284.201,-44.413
95.9,-283.885,-44.367
95.93,-283.815,-44.184
95.97,-283.253,-43.978
96.0,-282.516,-43.623
96.03,-282.271,-43.451
96.06,-282.095,-43.336
96.1,-281.885,-43.325
96.13,-281.429,-43.359
96.16,-281.007,-43.199
96.19,-280.586,-43.176
96.23,-279.919,-43.038
96.26,-278.972,-42.798
96.29,-277.673,-42.569
96.32,-276.866,-42.42
96.36,-276.41,-42.202
96.39,-275.848,-41.904
96.42,-275.006,-42.042
96.45,-274.409,-42.111
96.49,-273.532,-41.893
96.52,-272.479,-41.824
96.55,-271.497,-41.755
96.58,-270.549,-41.526
96.62,-269.426,-41.251
96.65,-268.092,-41.103
96.68,-267.145,-41.103
96.71,-266.022,-40.885
96.75,-264.442,-40.553
96.78,-262.968,-40.346
96.81,-261.74,-40.14
96.84,-260.406,-39.854
96.88,-258.897,-39.579
96.91,-257.318,-39.373
96.94,-255.774,-39.167
96.97,-254.124,-38.846
97.01,-252.405,-38.559
97.04,-250.65,-38.239
97.07,-248.509,-37.757
97.1,-246.614,-37.528
97.14,-244.93,-37.334
97.17,-243.21,-36.967
97.2,-241.455,-36.818
97.23,-239.911,-36.726
97.27,-238.051,-36.474
97.3,-236.086,-36.337
97.33,-234.366,-36.234
97.37,-232.822,-35.936
97.4,-231.137,-35.592
97.43,-229.172,-35.409
97.46,-227.347,-35.34
97.5,-225.557,-35.18
97.53,-223.486,-34.894
97.56,-221.556,-34.687
97.59,-219.766,-34.516
97.63,-217.976,-34.275
97.66,-216.046,-34.012
97.69,-214.151,-33.782
97.72,-212.115,-33.553
97.76,-209.94,-33.324
97.79,-207.799,-33.026
97.82,-205.588,-32.717
97.85,-203.377,-32.396
97.89,-201.166,-32.064
97.92,-199.025,-31.755
97.95,-196.954,-31.48
97.98,-194.708,-31.182
98.02,-192.392,-30.815
98.05,-189.9,-30.437
98.08,-187.303,-30.117
98.11,-184.776,-29.658
98.15,-182.074,-29.12
98.18,-179.547,-28.673
98.21,-176.985,-28.226
98.24,-174.283,-27.642
98.28,-171.335,-27.115
98.31,-168.352,-26.691
98.34,-165.509,-26.256
98.37,-162.666,-25.718
98.41,-159.718,-25.122
98.44,-156.841,-24.641
98.47,-153.963,-24.171
98.5,-150.874,-23.61
98.54,-147.821,-23.209
98.57,-144.908,-22.774
98.6,-142.065,-22.441
98.63,-139.153,-22.018
98.67,-136.205,-21.41
98.7,-133.327,-21.227
98.73,-130.379,-20.757
98.76,-127.115,-20.001
98.8,-123.289,-19.44
98.83,-119.604,-18.993
98.86,-116.341,-18.421
98.89,-113.112,-17.642
98.93,-109.743,-16.954
98.96,-106.444,-16.439
98.99,-103.285,-15.969
99.03,-100.478,-15.602
99.06,-97.67,-15.316
99.09,-94.617,-14.927
99.12,-91.248,-14.549
99.16,-87.984,-14.297
99.19,-85.036,-14.022
99.22,-82.123,-13.575
99.25,-78.789,-12.991
99.29,-75.385,-12.544
99.32,-72.156,-12.143
99.35,-68.927,-11.582
99.38,-65.733,-11.032
99.42,-62.575,-10.505
99.45,-59.276,-10.047
99.48,-56.082,-9.634
99.51,-52.959,-9.119
99.55,-49.835,-8.637
99.58,-46.677,-8.237
99.61,-43.272,-7.629
99.64,-39.868,-7.171
99.68,-39.166,-6.037
99.71,-43.448,-2.956
99.74,-43.307,1.478
99.77,-29.164,1.718
99.81,-25.198,-0.092
99.84,-24.918,0.722
99.87,-17.407,1.237
99.9,-9.616,1.02
99.94,-3.053,0.951
99.97,2.843,0.813
100.0,4.703,0.149
100.03,4.948,0.515
100.07,9.055,0.779
100.1,12.318,0.504
100.13,14.775,0.871
100.16,18.565,1.684
100.2,23.444,2.383
100.23,28.778,2.784
100.26,33.13,2.864
100.29,35.446,3.059
100.33,36.464,3.746
100.36,37.973,4.605
100.39,40.64,5.166
100.42,43.799,5.201
100.46,46.571,5.04
100.49,49.063,5.132
100.52,52.257,5.613
100.56,56.328,6.186
100.59,60.574,6.747
100.62,64.33,7.48
100.65,67.769,8.374
100.69,71.243,9.348
100.72,74.648,10.161
100.75,77.876,10.757
100.78,80.93,11.238
100.82,83.913,11.708
100.85,87.071,12.109
100.88,90.125,12.406
100.91,93.143,12.75
100.95,96.336,13.243
100.98,99.846,13.747
101.01,103.426,14.285
101.04,106.9,14.927
101.08,110.164,15.591
101.11,113.533,16.324
101.14,116.832,16.954
101.17,119.991,17.447
101.21,123.184,18.077
101.24,126.553,18.753
101.27,130.133,19.303
101.3,133.537,19.795
101.34,136.626,20.334
101.37,139.679,21.009
101.4,142.697,21.41
101.43,145.435,21.777
101.47,147.856,21.983
101.5,150.804,22.373
101.53,153.893,22.739
101.56,156.876,22.98
101.6,159.473,23.346
101.63,162.315,23.931
101.66,165.298,24.389
101.69,168.036,24.687
101.73,170.422,25.088
101.76,172.879,25.477
101.79,175.546,25.798
101.82,178.319,26.13
101.86,180.916,26.474
101.89,183.372,26.863
101.92,185.899,27.299
101.95,188.531,27.642
101.99,190.883,28.009
102.02,193.164,28.421
102.05,195.586,28.822
102.09,198.007,29.154
102.12,200.288,29.406
102.15,202.289,29.658
102.18,204.219,29.945
102.22,206.219,30.185
102.25,208.185,30.323
102.28,209.869,30.552
102.31,211.835,30.896
102.35,214.046,31.205
102.38,216.222,31.468
102.41,218.257,31.904
102.44,220.293,32.373
102.48,222.433,32.855
102.51,224.574,33.313
102.54,226.68,33.759
102.57,228.891,34.229
102.61,230.891,34.607
102.64,232.506,34.813
102.67,234.12,35.123
102.7,235.875,35.478
102.74,237.384,35.547
102.77,238.577,35.592
102.8,240.121,35.856
102.83,242.052,36.108
102.87,243.736,36.257
102.9,245.21,36.692
102.93,247.176,37.242
102.96,249.106,37.712
103.0,250.685,37.952
103.03,251.984,38.33
103.06,253.598,38.697
103.09,255.388,38.983
103.13,256.862,39.224
103.16,258.09,39.499
103.19,259.529,39.785
103.22,260.863,39.968
103.26,261.81,40.003
103.29,262.688,40.175
103.32,263.986,40.312
103.35,265.32,40.404
103.39,266.373,40.553
103.42,267.426,40.828
103.45,268.408,41.091
103.48,269.426,41.332
103.52,270.409,41.538
103.55,271.532,41.744
103.58,272.549,41.996
103.62,273.602,42.26
103.65,274.725,42.523
103.68,275.778,42.855
103.71,276.761,43.13
103.75,277.673,43.245
103.78,278.27,43.394
103.81,278.867,43.588
103.84,279.463,43.565
103.88,279.884,43.543
103.91,280.481,43.68
103.94,281.218,43.726
103.97,281.744,43.817
104.01,282.271,43.989
104.04,282.938,44.127
104.07,283.324,44.241
104.1,283.64,44.344
104.14,283.815,44.459
104.17,284.482,44.7
104.2,285.149,44.917
104.23,285.008,44.677
104.27,284.587,44.642
104.3,284.622,44.631
104.33,284.833,44.528
104.36,283.78,43.978
104.4,282.692,43.588
104.43,282.446,43.508
104.46,282.516,43.382
104.49,282.411,43.348
104.53,281.815,43.268
104.56,281.113,43.165
104.59,280.656,43.165
104.62,280.305,43.073
104.66,279.498,42.89
104.69,278.551,42.798
104.72,277.919,42.706
104.75,277.147,42.443
104.79,275.954,42.214
104.82,274.796,41.95
104.85,273.532,41.595
104.88,272.163,41.274
104.92,270.76,41.022
104.95,269.531,40.885
104.98,268.478,40.667
105.01,267.25,40.346
105.05,265.671,40.037
105.08,263.951,39.785
105.11,262.407,39.556
105.15,261.038,39.293
105.18,259.634,39.041
105.21,258.055,38.834
105.24,256.441,38.662
105.28,254.967,38.594
105.31,253.844,38.536
105.34,252.089,38.239
105.37,250.299,37.895
105.41,249.001,37.883
105.44,247.632,37.723
105.47,245.631,37.379
105.5,243.35,37.116
105.54,241.771,37.001
105.57,240.578,36.898
105.6,238.893,36.566
105.63,236.717,36.303
105.67,234.927,36.222
105.7,233.278,36.062
105.73,231.523,35.776
105.76,229.628,35.524
105.8,227.768,35.375
105.83,225.768,35.111
105.86,223.627,34.768
105.89,221.591,34.538
105.93,219.626,34.218
105.96,217.555,33.84
105.99,215.239,33.622
106.02,213.203,33.439
106.06,211.343,33.175
106.09,209.308,32.9
106.12,206.992,32.637
106.15,204.745,32.316
106.19,202.675,32.018
106.22,200.534,31.72
106.25,198.218,31.468
106.28,196.147,31.274
106.32,194.182,31.045
106.35,192.076,30.758
106.38,189.69,30.506
106.41,187.444,30.254
106.45,185.057,29.853
106.48,182.39,29.475
106.51,180.003,29.177
106.54,177.652,28.696
106.58,175.02,28.146
106.61,171.931,27.619
106.64,168.913,27.184
106.68,166.211,26.714
106.71,163.438,26.05
106.74,160.455,25.42
106.77,157.156,24.95
106.81,153.998,24.309
106.84,150.98,23.839
106.87,147.997,23.266
106.9,145.189,22.762
106.94,141.96,22.189
106.97,138.591,21.64
107.0,135.643,21.479
107.03,133.011,21.044
107.07,130.273,20.563
107.1,127.255,20.139
107.13,124.097,19.738
107.16,120.728,19.314
107.2,117.604,18.89
107.23,114.551,18.398
107.26,111.392,17.825
107.29,108.269,17.344
107.33,105.04,16.84
107.36,102.022,16.473
107.39,99.144,16.141
107.42,96.021,15.557
107.46,92.476,15.007
107.49,88.966,14.606
107.52,85.703,14.09
107.55,82.474,13.426
107.59,78.964,12.853
107.62,75.455,12.338
107.65,72.121,11.753
107.68,68.857,11.261
107.72,65.804,10.825
107.75,62.68,10.379
107.78,59.627,9.989
107.81,56.398,9.68
107.85,53.38,9.29
107.88,50.046,8.844
107.91,46.712,8.42
107.94,42.816,7.962
107.98,40.43,7.412
108.01,41.623,5.831
108.04,47.203,1.856
108.07,42.149,-2.108
108.11,27.901,-1.054
108.14,27.058,0.149
108.17,24.812,-0.871
108.21,17.091,-1.088
108.24,9.441,-0.962
108.27,2.527,-0.928
108.3,-3.088,-0.619
108.34,-3.896,0.011
108.37,-3.755,-0.401
108.4,-7.791,-0.687
108.43,-9.511,-0.699
108.47,-11.687,-1.26
108.5,-16.705,-1.695
108.53,-22.145,-2.199
108.56,-27.76,-2.623
108.6,-32.779,-2.772
108.63,-36.674,-3.013
108.66,-38.78,-3.643
108.69,-40.149,-4.468
108.73,-41.974,-5.27
108.76,-44.431,-5.739
108.79,-46.992,-5.705
108.82,-49.554,-5.59
108.86,-52.538,-5.739
108.89,-56.328,-6.037
108.92,-60.399,-6.392
108.95,-64.119,-6.988
108.99,-67.769,-7.813
109.02,-71.524,-8.718
109.05,-74.893,-9.531
109.08,-77.876,-10.23
109.12,-80.824,-10.906
109.15,-83.842,-11.501
109.18,-86.896,-11.811
109.21,-89.844,-12.074
109.25,-92.862,-12.498
109.28,-96.126,-12.853
109.31,-99.495,-13.266
109.34,-102.969,-13.804
109.38,-106.233,-14.388
109.41,-109.567,-15.087
109.44,-113.182,-15.877
109.47,-116.516,-16.507
109.51,-119.64,-17.092
109.54,-122.833,-17.768
109.57,-125.992,-18.283
109.6,-128.835,-18.753
109.64,-132.204,-19.452
109.67,-135.959,-20.208
109.7,-139.539,-20.505
109.74,-142.416,-20.987
109.77,-145.189,-21.571
109.8,-148.488,-22.304
109.83,-151.682,-22.728
109.87,-154.454,-22.9
109.9,-156.805,-23.163
109.93,-159.648,-23.816
109.96,-162.737,-24.16
110.0,-165.614,-24.263
110.03,-168.071,-24.629
110.06,-170.879,-25.237
110.09,-173.581,-25.546
110.13,-176.178,-25.764
110.16,-178.951,-26.302
110.19,-182.074,-26.875
110.22,-184.706,-27.173
110.26,-186.847,-27.528
110.29,-189.268,-28.146
110.32,-192.041,-28.547
110.35,-194.463,-28.708
110.39,-196.498,-28.925
110.42,-198.569,-29.303
110.45,-200.885,-29.613
110.48,-203.166,-29.807
110.52,-205.096,-29.979
110.55,-206.746,-30.174
110.58,-208.466,-30.277
110.61,-210.255,-30.437
110.65,-212.151,-30.735
110.68,-214.362,-30.987
110.71,-216.432,-31.228
110.74,-218.327,-31.675
110.78,-220.609,-32.179
110.81,-222.644,-32.522
110.84,-224.294,-32.969
110.87,-226.259,-33.462
110.91,-228.435,-33.874
110.94,-230.505,-34.195
110.97,-232.05,-34.447
111.0,-233.488,-34.722
111.04,-235.313,-35.146
111.07,-237.419,-35.432
111.1,-238.963,-35.558
111.13,-240.157,-35.902
111.17,-241.841,-36.291
111.2,-243.701,-36.509
111.23,-245.14,-36.761
111.26,-246.544,-37.013
111.3,-248.228,-37.368
111.33,-250.053,-37.849
111.36,-251.913,-38.284
111.4,-253.633,-38.731
111.43,-255.598,-39.315
111.46,-257.704,-39.888
111.49,-259.634,-40.358
111.53,-261.319,-40.736
111.56,-262.793,-41.194
111.59,-264.478,-41.687
111.62,-266.408,-42.03
111.66,-268.478,-42.454
111.69,-270.374,-42.981
111.72,-271.918,-43.543
111.75,-273.743,-44.012
111.79,-275.778,-44.367
111.82,-277.428,-44.722
111.85,-278.867,-45.112
111.88,-280.13,-45.295
111.92,-281.218,-45.456
111.95,-282.411,-45.41
111.98,-283.218,-45.146
112.01,-283.464,-45.055
112.05,-283.85,-44.917
112.08,-283.885,-44.505
112.11,-283.675,-44.104
112.14,-283.604,-43.737
112.18,-283.534,-43.394
112.21,-283.604,-43.245
112.24,-283.955,-43.199
112.27,-284.341,-43.256
112.31,-284.482,-43.313
112.34,-284.622,-43.382
112.37,-284.938,-43.439
112.4,-285.324,-43.382
112.44,-285.324,-43.382
112.47,-285.254,-43.485
112.5,-285.5,-43.691
112.53,-285.78,-43.817
112.57,-285.71,-43.795
112.6,-285.324,-43.749
112.63,-285.008,-43.6
112.66,-284.377,-43.439
112.7,-283.71,-43.279
112.73,-283.183,-43.176
112.76,-283.008,-43.073
112.79,-282.587,-42.935
112.83,-281.744,-42.844
112.86,-281.042,-42.741
112.89,-280.376,-42.569
112.93,-279.463,-42.431
112.96,-278.726,-42.328
112.99,-278.305,-42.248
113.02,-277.884,-42.237
113.06,-277.007,-42.294
113.09,-276.059,-42.317
113.12,-275.252,-42.191
113.15,-274.164,-41.973
113.19,-272.865,-41.767
113.22,-271.672,-41.526
113.25,-270.689,-41.274
113.28,-269.637,-41.045
113.32,-268.268,-40.873
113.35,-266.934,-40.679
113.38,-265.495,-40.404
113.41,-264.056,-40.049
113.45,-262.582,-39.693
113.48,-260.863,-39.419
113.51,-259.248,-39.201
113.54,-257.669,-39.018
113.58,-256.406,-38.823
113.61,-254.967,-38.594
113.64,-253.352,-38.342
113.67,-251.457,-38.124
113.71,-249.667,-38.021
113.74,-248.123,-37.883
113.77,-246.895,-37.666
113.8,-245.245,-37.46
113.84,-243.42,-37.345
113.87,-241.841,-37.276
113.9,-240.332,-37.116
113.93,-238.472,-36.818
113.97,-236.577,-36.578
114.0,-234.787,-36.452
114.03,-233.032,-36.211
114.06,-231.277,-35.925
114.1,-228.856,-35.592
114.13,-223.662,-33.748
114.16,-215.871,-31.045
114.19,-209.273,-29.59
114.23,-205.553,-28.158
114.26,-201.938,-25.947
114.29,-197.551,-24.721
114.32,-194.568,-24.95
114.36,-194.252,-25.855
114.39,-195.2,-27.287
114.42,-196.498,-28.891
114.46,-197.832,-30.346
114.49,-198.042,-31.732
114.52,-197.305,-33.244
114.55,-196.498,-34.332
114.59,-195.621,-34.745
114.62,-194.252,-34.63
114.65,-192.357,-34.229
114.68,-190.216,-33.645
114.72,-187.9,-33.026
114.75,-185.829,-32.476
114.78,-183.899,-31.984
114.81,-182.039,-31.526
114.85,-180.109,-31.09
114.88,-177.652,-30.667
114.91,-175.055,-30.151
114.94,-172.177,-29.498
114.98,-169.124,-28.696
115.01,-165.86,-27.791
115.04,-162.491,-26.783
115.07,-158.911,-25.912
115.11,-155.612,-25.214
115.14,-152.699,-24.469
115.17,-149.927,-23.736
115.2,-146.909,-23.22
115.24,-143.996,-22.751
115.27,-140.977,-22.258
115.3,-137.784,-21.788
115.33,-134.66,-21.388
115.37,-131.712,-20.906
115.4,-128.589,-20.379
115.43,-125.641,-19.944
115.46,-122.658,-19.555
115.5,-119.675,-19.131
115.53,-116.692,-18.776
115.56,-113.884,-18.443
115.59,-111.322,-18.088
115.63,-108.549,-17.722
115.66,-105.391,-17.321
115.69,-102.232,-17.011
115.72,-99.319,-16.702
115.76,-96.407,-16.175
115.79,-93.213,-15.511
115.82,-89.879,-14.949
115.85,-86.58,-14.491
115.89,-83.386,-13.999
115.92,-80.263,-13.426
115.95,-76.929,-12.876
115.99,-73.805,-12.383
116.02,-70.576,-11.788
116.05,-67.207,-11.238
116.08,-63.873,-10.745
116.12,-60.68,-10.264
116.15,-57.381,-9.714
116.18,-54.117,-9.142
116.21,-50.713,-8.557
116.25,-47.273,-8.042
116.28,-43.588,-7.469
116.31,-40.43,-6.965
116.34,-40.219,-5.751
116.38,-45.097,-2.474
116.41,-43.272,1.753
116.44,-29.305,1.466
116.47,-26.953,-0.149
116.51,-26.637,0.722
116.54,-19.829,1.134
116.57,-12.283,1.031
116.6,-5.65,0.928
116.64,0.316,0.894
