Trigger_Date,2023/08/25
Trigger_Time,T 09:47:31.752 PDT
Samples_Per_Cycle,512
Microseconds_Per_Sample,32.506
Time (ms),Voltage (V),Current (A)
-16.64,-76.999,-9.829
-16.61,-79.596,-10.402
-16.58,-82.404,-10.803
-16.55,-85.316,-11.1
-16.51,-88.44,-11.444
-16.48,-91.739,-11.788
-16.45,-95.038,-12.177
-16.42,-98.302,-12.727
-16.38,-101.741,-13.414
-16.35,-105.251,-14.136
-16.32,-108.69,-14.835
-16.29,-111.989,-15.431
-16.25,-115.147,-16.003
-16.22,-118.271,-16.633
-16.19,-121.465,-17.298
-16.16,-124.693,-17.951
-16.12,-128.062,-18.478
-16.09,-131.537,-19.085
-16.06,-135.117,-19.623
-16.03,-138.591,-20.345
-15.99,-141.82,-20.952
-15.96,-144.873,-21.502
-15.93,-147.997,-22.166
-15.9,-151.12,-22.602
-15.86,-154.033,-22.854
-15.83,-156.805,-23.312
-15.8,-159.859,-23.805
-15.77,-163.087,-24.183
-15.73,-166.211,-24.584
-15.7,-168.983,-25.122
-15.67,-171.896,-25.66
-15.64,-174.879,-26.107
-15.6,-177.757,-26.474
-15.57,-180.389,-26.772
-15.54,-183.162,-27.218
-15.51,-185.864,-27.7
-15.47,-188.391,-27.917
-15.44,-190.813,-28.169
-15.41,-193.199,-28.547
-15.38,-195.515,-28.857
-15.34,-197.411,-28.822
-15.31,-199.13,-29.04
-15.28,-201.411,-29.383
-15.25,-203.693,-29.441
-15.21,-205.447,-29.361
-15.18,-207.237,-29.704
-15.15,-209.694,-30.117
-15.12,-212.186,-30.357
-15.08,-214.291,-30.678
-15.05,-216.222,-31.239
-15.02,-218.257,-31.812
-14.99,-220.503,-32.293
-14.95,-222.784,-32.66
-14.92,-224.855,-32.981
-14.89,-226.575,-33.313
-14.86,-228.54,-33.725
-14.82,-230.856,-34.126
-14.79,-233.067,-34.424
-14.76,-234.857,-34.813
-14.73,-236.717,-35.329
-14.69,-238.823,-35.833
-14.66,-241.104,-36.222
-14.63,-243.105,-36.543
-14.6,-244.789,-36.933
-14.56,-246.579,-37.334
-14.53,-248.509,-37.712
-14.5,-250.299,-38.067
-14.47,-252.194,-38.399
-14.43,-254.124,-38.708
-14.4,-255.949,-39.052
-14.37,-257.669,-39.43
-14.34,-259.354,-39.819
-14.3,-261.003,-40.22
-14.27,-262.547,-40.381
-14.24,-263.53,-40.324
-14.2,-264.442,-40.404
-14.17,-265.495,-40.427
-14.14,-266.583,-40.346
-14.11,-267.39,-40.301
-14.07,-268.198,-40.404
-14.04,-269.25,-40.576
-14.01,-270.409,-40.816
-13.98,-271.672,-41.045
-13.94,-272.9,-41.309
-13.91,-274.129,-41.607
-13.88,-275.041,-41.904
-13.85,-275.954,-42.191
-13.81,-277.112,-42.317
-13.78,-278.059,-42.5
-13.75,-278.902,-42.775
-13.72,-279.814,-43.027
-13.68,-280.621,-43.199
-13.65,-281.288,-43.187
-13.62,-281.604,-43.153
-13.59,-281.815,-43.21
-13.55,-282.271,-43.165
-13.52,-282.657,-43.05
-13.49,-283.008,-43.187
-13.46,-283.675,-43.394
-13.42,-284.377,-43.428
-13.39,-284.587,-43.531
-13.36,-285.043,-43.772
-13.33,-285.535,-43.852
-13.29,-285.886,-43.84
-13.26,-286.166,-43.921
-13.23,-286.412,-44.058
-13.2,-286.482,-44.195
-13.16,-286.412,-44.276
-13.13,-286.412,-44.138
-13.1,-285.886,-43.966
-13.07,-285.429,-43.806
-13.03,-285.043,-43.531
-13.0,-284.692,-43.313
-12.97,-284.341,-43.256
-12.94,-284.096,-43.325
-12.9,-283.85,-43.405
-12.87,-283.499,-43.394
-12.84,-282.938,-43.268
-12.81,-282.376,-43.165
-12.77,-279.568,-42.214
-12.74,-272.69,-39.144
-12.71,-265.109,-36.429
-12.68,-260.828,-34.836
-12.64,-257.388,-32.522
-12.61,-251.141,-30.403
-12.58,-245.982,-30.506
-12.55,-245.351,-31.801
-12.51,-245.982,-33.278
-12.48,-246.825,-35.558
-12.45,-250.685,-38.25
-12.42,-256.371,-40.026
-12.38,-260.512,-41.16
-12.35,-261.845,-42.431
-12.32,-261.775,-43.943
-12.29,-262.126,-44.963
-12.25,-262.126,-45.089
-12.22,-261.108,-44.608
-12.19,-259.459,-43.921
-12.16,-257.985,-43.13
-12.12,-256.616,-42.42
-12.09,-255.458,-42.007
-12.06,-254.581,-41.744
-12.03,-253.633,-41.481
-11.99,-252.615,-41.355
-11.96,-251.738,-41.24
-11.93,-250.58,-40.931
-11.9,-248.825,-40.484
-11.86,-246.895,-40.049
-11.83,-245.105,-39.636
-11.8,-243.21,-39.132
-11.77,-241.315,-38.548
-11.73,-239.595,-38.113
-11.7,-238.086,-37.723
-11.67,-236.191,-37.357
-11.64,-234.331,-37.059
-11.6,-232.822,-36.818
-11.57,-230.856,-36.509
-11.54,-228.751,-36.051
-11.51,-226.259,-35.604
-11.47,-224.048,-35.18
-11.44,-221.942,-34.733
-11.41,-219.661,-34.286
-11.38,-217.345,-33.84
-11.34,-215.414,-33.462
-11.31,-213.449,-33.107
-11.28,-211.168,-32.74
-11.25,-208.711,-32.511
-11.21,-206.606,-32.35
-11.18,-204.465,-32.087
-11.15,-202.359,-31.778
-11.12,-200.148,-31.526
-11.08,-198.042,-31.228
-11.05,-195.866,-30.941
-11.02,-193.515,-30.609
-10.99,-191.164,-30.323
-10.95,-188.953,-30.036
-10.92,-186.671,-29.658
-10.89,-184.18,-29.292
-10.86,-181.583,-29.04
-10.82,-179.021,-28.696
-10.79,-176.353,-28.192
-10.76,-173.581,-27.631
-10.73,-170.633,-27.092
-10.69,-167.509,-26.508
-10.66,-164.456,-25.878
-10.63,-161.403,-25.317
-10.6,-158.49,-24.744
-10.56,-155.402,-24.102
-10.53,-152.173,-23.507
-10.5,-148.769,-22.945
-10.47,-145.329,-22.373
-10.43,-141.96,-21.811
-10.4,-138.591,-21.124
-10.37,-135.362,-20.46
-10.34,-132.098,-19.944
-10.3,-128.94,-19.497
-10.27,-126.027,-19.085
-10.24,-123.009,-18.764
-10.21,-119.991,-18.375
-10.17,-116.902,-17.871
-10.14,-113.673,-17.504
-10.11,-110.41,-17.241
-10.08,-107.286,-16.84
-10.04,-104.233,-16.427
-10.01,-101.285,-16.049
-9.98,-98.267,-15.568
-9.95,-94.897,-15.075
-9.91,-91.599,-14.663
-9.88,-88.44,-14.285
-9.85,-85.492,-13.838
-9.82,-82.544,-13.357
-9.78,-79.385,-12.819
-9.75,-76.051,-12.498
-9.72,-73.103,-12.246
-9.69,-70.155,-11.799
-9.65,-66.962,-11.284
-9.62,-63.487,-10.871
-9.59,-60.153,-10.39
-9.56,-56.784,-9.886
-9.52,-53.696,-9.359
-9.49,-50.397,-8.844
-9.46,-47.203,-8.225
-9.43,-43.378,-7.687
-9.39,-41.728,-6.828
-9.36,-43.974,-4.513
-9.33,-47.905,-0.057
-9.3,-37.201,2.303
-9.26,-27.199,0.332
-9.23,-28.603,0.137
-9.2,-23.759,1.203
-9.17,-14.845,1.203
-9.13,-7.581,0.882
-9.1,-2.281,0.825
-9.07,2.808,0.71
-9.04,4.562,0.195
-9.0,4.562,0.378
-8.97,7.896,0.722
-8.94,10.915,0.871
-8.91,14.178,1.409
-8.87,18.987,1.89
-8.84,23.97,2.303
-8.81,29.129,2.646
-8.78,33.376,2.91
-8.74,36.218,3.322
-8.71,38.008,4.158
-8.68,40.114,5.144
-8.65,42.816,5.785
-8.61,45.764,5.923
-8.58,48.502,5.968
-8.55,51.379,6.197
-8.52,54.713,6.541
-8.48,58.609,7.011
-8.45,62.505,7.469
-8.42,66.049,7.985
-8.39,69.243,8.706
-8.35,72.331,9.382
-8.32,75.314,9.932
-8.29,78.403,10.436
-8.26,81.386,10.768
-8.22,84.053,10.94
-8.19,86.755,11.341
-8.16,89.879,11.845
-8.13,93.494,12.28
-8.09,97.249,12.773
-8.06,100.653,13.38
-8.03,103.952,14.09
-8.0,107.391,14.949
-7.96,110.936,15.694
-7.93,114.2,16.187
-7.9,117.218,16.805
-7.87,120.306,17.458
-7.83,123.325,17.859
-7.8,126.343,18.26
-7.77,129.431,18.776
-7.74,132.87,19.245
-7.7,136.38,19.807
-7.67,139.854,20.483
-7.64,143.153,21.044
-7.61,146.382,21.743
-7.57,149.681,22.51
-7.54,152.84,22.968
-7.51,155.753,23.404
-7.48,158.701,23.999
-7.44,161.789,24.332
-7.41,164.561,24.572
-7.38,167.123,24.95
-7.35,169.966,25.34
-7.31,172.879,25.626
-7.28,175.652,25.958
-7.25,178.354,26.313
-7.22,180.916,26.714
-7.18,183.548,27.218
-7.15,186.215,27.596
-7.12,188.707,27.883
-7.09,191.023,28.204
-7.05,193.304,28.433
-7.02,195.41,28.605
-6.99,197.621,28.868
-6.96,200.113,29.097
-6.92,202.359,29.257
-6.89,204.324,29.567
-6.86,206.325,29.933
-6.83,208.29,30.105
-6.79,210.01,30.266
-6.76,211.835,30.472
-6.73,213.8,30.735
-6.7,215.765,30.987
-6.66,217.801,31.308
-6.63,219.731,31.686
-6.6,221.696,32.087
-6.57,223.662,32.419
-6.53,225.662,32.774
-6.5,227.557,33.221
-6.47,229.488,33.611
-6.44,231.383,33.92
-6.4,233.313,34.229
-6.37,235.278,34.699
-6.34,237.173,35.054
-6.31,238.788,35.317
-6.27,240.472,35.73
-6.24,242.403,36.177
-6.21,244.403,36.486
-6.18,246.053,36.795
-6.14,247.702,37.208
-6.11,249.667,37.62
-6.08,251.422,37.987
-6.05,253.036,38.33
-6.01,254.475,38.559
-5.98,255.809,38.834
-5.95,257.423,39.167
-5.92,259.108,39.35
-5.88,260.406,39.464
-5.85,261.494,39.693
-5.82,262.582,39.98
-5.79,263.916,40.072
-5.75,265.144,40.083
-5.72,266.338,40.312
-5.69,267.671,40.679
-5.66,268.97,40.954
-5.62,270.268,41.171
-5.59,271.286,41.435
-5.56,272.374,41.71
-5.53,273.357,41.87
-5.49,274.304,42.076
-5.46,275.392,42.225
-5.43,276.234,42.42
-5.4,277.322,42.706
-5.36,278.551,42.901
-5.33,279.568,43.05
-5.3,280.27,43.291
-5.27,281.113,43.382
-5.23,281.779,43.543
-5.2,281.955,43.474
-5.17,282.306,43.462
-5.14,283.218,43.634
-5.1,283.99,43.611
-5.07,284.236,43.68
-5.04,284.517,43.909
-5.01,285.008,44.024
-4.97,285.324,43.921
-4.94,285.254,43.886
-4.91,285.359,43.943
-4.88,285.675,43.966
-4.84,285.675,43.909
-4.81,285.605,43.921
-4.78,285.535,43.886
-4.75,285.359,43.737
-4.71,285.008,43.577
-4.68,284.587,43.451
-4.65,284.341,43.371
-4.62,284.201,43.313
-4.58,283.885,43.279
-4.55,283.429,43.291
-4.52,283.008,43.199
-4.49,282.376,43.027
-4.45,281.604,42.89
-4.42,280.832,42.729
-4.39,280.2,42.58
-4.36,279.744,42.523
-4.32,279.182,42.408
-4.29,278.305,42.305
-4.26,277.393,42.191
-4.23,276.41,41.962
-4.19,275.182,41.721
-4.16,273.953,41.469
-4.13,272.725,41.194
-4.1,271.637,40.919
-4.06,270.374,40.656
-4.03,268.935,40.507
-4.0,267.671,40.369
-3.97,266.373,40.163
-3.93,265.004,39.911
-3.9,263.53,39.613
-3.87,261.986,39.338
-3.84,260.301,39.121
-3.8,258.792,38.926
-3.77,257.388,38.72
-3.74,255.809,38.502
-3.71,254.089,38.25
-3.67,252.405,38.055
-3.64,250.931,37.895
-3.61,249.352,37.7
-3.58,247.351,37.402
-3.54,245.631,37.311
-3.51,244.017,37.105
-3.48,242.087,36.692
-3.45,239.7,36.268
-3.41,237.63,36.085
-3.38,236.156,35.913
-3.35,234.471,35.432
-3.32,232.085,35.054
-3.28,229.979,35.02
-3.25,228.54,35.031
-3.22,227.031,34.756
-3.19,224.925,34.47
-3.15,222.749,34.332
-3.12,220.784,34.149
-3.09,218.643,33.886
-3.06,216.573,33.633
-3.02,214.677,33.393
-2.99,212.782,33.141
-2.96,210.641,32.866
-2.93,208.395,32.637
-2.89,206.184,32.419
-2.86,204.219,32.156
-2.83,202.078,31.869
-2.8,199.902,31.675
-2.76,197.902,31.48
-2.73,195.901,31.274
-2.7,193.726,30.987
-2.67,191.374,30.712
-2.63,189.058,30.46
-2.6,186.707,30.082
-2.57,184.285,29.601
-2.54,181.618,29.212
-2.5,179.056,28.799
-2.47,176.318,28.272
-2.44,173.335,27.768
-2.41,170.422,27.333
-2.37,167.79,26.795
-2.34,164.877,26.016
-2.31,161.649,25.42
-2.28,158.385,24.927
-2.24,155.507,24.423
-2.21,152.84,23.942
-2.18,149.751,23.335
-2.15,146.382,22.819
-2.11,143.118,22.35
-2.08,139.89,21.788
-2.05,136.661,21.181
-2.02,133.432,20.631
-1.98,130.203,20.059
-1.95,127.08,19.589
-1.92,123.956,19.154
-1.89,120.868,18.661
-1.85,117.744,18.191
-1.82,114.551,17.756
-1.79,111.462,17.367
-1.76,108.444,17.011
-1.72,105.251,16.633
-1.69,102.022,16.21
-1.66,98.828,15.751
-1.63,95.634,15.305
-1.59,92.371,14.789
-1.56,89.001,14.285
-1.53,85.667,13.815
-1.5,82.509,13.403
-1.46,79.491,12.899
-1.43,76.332,12.452
-1.4,73.138,12.051
-1.37,69.769,11.65
-1.33,66.435,11.181
-1.3,63.031,10.768
-1.27,59.908,10.287
-1.24,56.573,9.783
-1.2,53.415,9.325
-1.17,50.046,8.878
-1.14,46.992,8.42
-1.11,43.518,8.03
-1.07,41.307,7.492
-1.04,42.57,5.819
-1.01,48.361,1.776
-0.98,43.448,-2.165
-0.94,29.585,-0.985
-0.91,29.726,0.252
-0.88,27.831,-0.951
-0.85,19.373,-1.18
-0.81,11.652,-0.939
-0.78,5.545,-0.813
-0.75,0.0,-0.848
-0.72,-4.422,-0.447
-0.68,-4.247,-0.069
-0.65,-5.861,-0.584
-0.62,-9.651,-0.836
-0.59,-11.02,-1.844
-0.55,-17.197,-2.623
-0.52,-23.724,-2.612
-0.49,-29.655,-2.681
-0.46,-34.218,-2.956
-0.42,-37.306,-3.505
-0.39,-39.026,-4.387
-0.36,-40.535,-5.476
-0.33,-42.43,-6.129
-0.29,-44.711,-6.163
-0.26,-47.098,-5.934
-0.23,-49.73,-5.831
-0.2,-52.959,-5.831
-0.16,-56.749,-6.037
-0.13,-60.75,-6.507
-0.1,-64.821,-7.16
-0.07,-68.646,-7.893
-0.03,-72.015,-8.672
0.0,-74.963,-9.394
0.03,-77.806,-10.035
0.07,-80.684,-10.516
0.1,-83.527,-10.837
0.13,-86.44,-11.1
0.16,-89.493,-11.547
0.2,-92.897,-11.983
0.23,-96.266,-12.418
0.26,-99.635,-13.025
0.29,-103.11,-13.758
0.33,-106.619,-14.457
0.36,-110.129,-15.167
0.39,-113.463,-15.763
0.42,-116.586,-16.324
0.46,-119.64,-16.943
0.49,-122.974,-17.63
0.52,-126.413,-18.146
0.55,-129.993,-18.73
0.59,-133.327,-19.383
0.62,-136.871,-20.024
0.65,-140.346,-20.769
0.68,-143.715,-21.25
0.72,-146.663,-21.708
0.75,-149.4,-22.292
0.78,-152.208,-22.762
0.81,-155.191,-23.049
0.85,-158.279,-23.381
0.88,-161.263,-23.713
0.91,-164.105,-24.114
0.94,-167.159,-24.549
0.98,-170.177,-25.053
1.01,-173.09,-25.489
1.04,-175.967,-25.901
1.07,-178.529,-26.279
1.11,-181.056,-26.737
1.14,-183.723,-27.207
1.17,-186.531,-27.528
1.2,-189.058,-27.7
1.24,-191.339,-27.963
1.27,-193.55,-28.238
1.3,-195.831,-28.547
1.33,-198.428,-28.891
1.37,-201.517,-29.464
1.4,-204.5,-29.956
1.43,-207.027,-30.46
1.46,-209.343,-31.01
1.5,-211.694,-31.342
1.53,-213.344,-31.491
1.56,-214.607,-31.686
1.59,-216.222,-31.743
1.63,-217.941,-31.594
1.66,-219.521,-31.434
1.69,-220.714,-31.411
1.72,-222.188,-31.457
1.76,-223.943,-31.652
1.79,-225.768,-31.938
1.82,-227.698,-32.247
1.85,-229.558,-32.66
1.89,-231.348,-33.084
1.92,-232.892,-33.427
1.95,-234.682,-33.966
1.98,-236.682,-34.424
2.02,-238.297,-34.63
2.05,-239.735,-34.848
2.08,-241.174,-35.157
2.11,-242.754,-35.409
2.15,-244.157,-35.615
2.18,-245.561,-35.821
2.21,-246.825,-36.085
2.24,-248.018,-36.394
2.28,-249.211,-36.646
2.31,-250.439,-36.841
2.34,-251.808,-36.979
2.37,-253.036,-37.093
2.41,-254.335,-37.368
2.44,-255.809,-37.78
2.47,-257.458,-38.284
2.5,-259.248,-38.777
2.54,-260.933,-39.361
2.57,-262.547,-40.003
2.6,-264.091,-40.404
2.63,-265.565,-40.747
2.67,-267.25,-41.206
2.7,-268.794,-41.549
2.73,-270.058,-41.824
2.76,-271.111,-42.122
2.8,-272.269,-42.34
2.83,-273.532,-42.431
2.86,-274.62,-42.592
2.89,-275.603,-42.764
2.93,-276.62,-42.958
2.96,-277.533,-43.256
2.99,-278.516,-43.462
3.02,-279.358,-43.623
3.06,-280.27,-43.714
3.09,-281.042,-43.749
3.12,-281.429,-43.806
3.15,-281.955,-43.852
3.19,-282.552,-43.909
3.22,-283.078,-43.898
3.25,-283.71,-44.081
3.28,-284.236,-44.138
3.32,-284.657,-44.161
3.35,-284.868,-44.23
3.38,-285.149,-44.207
3.41,-285.184,-44.035
3.45,-285.043,-43.978
3.48,-285.043,-43.966
3.51,-285.114,-43.829
3.54,-285.008,-43.749
3.58,-284.798,-43.783
3.61,-284.727,-43.714
3.64,-284.657,-43.565
3.67,-284.377,-43.451
3.71,-284.061,-43.439
3.74,-283.85,-43.417
3.77,-283.394,-43.336
3.8,-282.516,-43.119
3.84,-281.288,-42.626
3.87,-279.498,-42.007
3.9,-277.814,-41.469
3.93,-276.445,-40.931
3.97,-275.217,-40.564
4.0,-274.445,-40.392
4.03,-273.813,-40.369
4.06,-273.357,-40.553
4.1,-273.322,-40.885
4.13,-273.251,-41.206
4.16,-272.865,-41.503
4.19,-272.304,-41.881
4.23,-272.128,-42.282
4.26,-271.883,-42.466
4.29,-271.286,-42.431
4.32,-270.374,-42.374
4.36,-269.18,-42.271
4.39,-268.022,-42.065
4.42,-266.548,-41.744
4.45,-265.179,-41.343
4.49,-263.881,-40.805
4.52,-261.845,-40.324
4.55,-259.81,-39.968
4.58,-258.301,-39.567
4.62,-256.511,-38.995
4.65,-254.581,-38.433
4.68,-252.721,-38.078
4.71,-250.79,-37.712
4.75,-248.755,-37.357
4.78,-246.86,-37.013
4.81,-244.754,-36.6
4.84,-242.648,-36.291
4.88,-240.578,-36.039
4.91,-238.718,-35.753
4.94,-236.893,-35.466
4.97,-234.998,-35.295
5.01,-232.997,-35.146
5.04,-231.277,-34.939
5.07,-229.593,-34.813
5.1,-227.698,-34.653
5.14,-225.592,-34.424
5.17,-223.311,-34.195
5.2,-221.17,-33.863
5.23,-219.099,-33.599
5.27,-217.064,-33.336
5.3,-215.028,-33.038
5.33,-213.063,-32.763
5.36,-210.957,-32.648
5.4,-209.062,-32.534
5.43,-207.132,-32.236
5.46,-204.745,-31.961
5.49,-202.219,-31.766
5.53,-200.008,-31.526
5.56,-198.148,-31.182
5.59,-196.077,-30.781
5.62,-193.585,-30.472
5.66,-191.093,-30.231
5.69,-188.953,-30.059
5.72,-186.882,-29.739
5.75,-184.46,-29.28
5.79,-181.828,-28.96
5.82,-179.337,-28.696
5.85,-176.704,-28.215
5.88,-173.862,-27.711
5.92,-171.054,-27.218
5.95,-168.211,-26.691
5.98,-165.158,-26.107
6.01,-162.105,-25.534
6.05,-159.332,-25.03
6.08,-156.805,-24.664
6.11,-153.647,-23.931
6.14,-150.278,-23.404
6.18,-147.189,-23.106
6.21,-144.522,-22.602
6.24,-141.504,-22.109
6.27,-138.135,-21.479
6.31,-134.941,-21.067
6.34,-131.783,-20.643
6.37,-128.94,-20.15
6.4,-125.887,-19.6
6.44,-122.588,-19.108
6.47,-119.148,-18.65
6.5,-115.884,-18.203
6.53,-112.761,-17.642
6.57,-109.497,-17.011
6.6,-105.917,-16.45
6.63,-102.408,-15.935
6.66,-99.179,-15.431
6.7,-96.126,-14.892
6.73,-92.932,-14.331
6.76,-89.458,-13.85
6.79,-86.194,-13.518
6.83,-83.105,-13.128
6.86,-80.087,-12.647
6.89,-76.823,-12.257
6.92,-73.595,-11.948
6.96,-70.682,-11.547
6.99,-67.699,-11.135
7.02,-64.47,-10.677
7.05,-61.171,-10.276
7.09,-57.872,-9.909
7.12,-54.749,-9.577
7.15,-51.66,-9.096
7.18,-48.466,-8.615
7.22,-44.817,-8.03
7.25,-41.307,-7.526
7.28,-40.851,-6.346
7.31,-45.238,-3.196
7.35,-45.378,1.386
7.38,-31.235,1.799
7.41,-26.813,-0.137
7.44,-27.269,0.63
7.48,-19.724,1.294
7.51,-11.195,1.088
7.54,-4.562,0.871
7.57,1.158,0.871
7.61,4.984,0.424
7.64,4.984,0.183
7.67,6.703,0.619
7.7,10.283,0.733
7.74,12.775,1.191
7.77,17.197,1.821
7.8,22.461,2.325
7.83,27.901,2.749
7.87,32.674,2.933
7.9,35.867,3.242
7.93,37.552,4.032
7.96,38.991,4.914
8.0,41.026,5.544
8.03,43.658,5.751
8.06,46.396,5.59
8.09,49.028,5.407
8.13,51.906,5.636
8.16,55.696,6.117
8.19,60.013,6.633
8.22,64.189,7.206
8.26,67.769,7.985
8.29,70.963,8.89
8.32,74.086,9.726
8.35,77.209,10.367
8.39,80.193,10.791
8.42,83.035,11.123
8.45,85.878,11.444
8.48,89.037,11.788
8.52,92.371,12.143
8.55,95.74,12.567
8.58,99.144,13.128
8.61,102.548,13.804
8.65,105.952,14.537
8.68,109.392,15.224
8.71,112.656,15.866
8.74,116.025,16.519
8.78,119.429,17.149
8.81,122.658,17.676
8.84,125.851,18.249
8.87,128.905,18.821
8.91,132.204,19.417
8.94,135.854,19.967
8.97,139.293,20.494
9.0,142.487,21.032
9.04,145.575,21.617
9.07,148.698,22.235
9.1,151.857,22.739
9.13,154.91,23.163
9.17,157.999,23.61
9.2,161.087,24.102
9.23,164.175,24.526
9.26,167.018,24.836
9.3,169.58,25.179
9.33,172.247,25.592
9.36,174.985,25.901
9.39,177.652,26.153
9.43,180.144,26.451
9.46,182.776,26.817
9.49,185.478,27.15
9.52,188.075,27.447
9.56,190.462,27.768
9.59,192.708,28.089
9.62,194.814,28.341
9.65,196.919,28.559
9.69,199.06,28.696
9.72,200.99,28.845
9.75,202.815,29.017
9.78,204.886,29.28
9.82,206.992,29.464
9.85,208.817,29.59
9.88,210.536,29.796
9.91,212.326,30.105
9.95,214.256,30.46
9.98,216.362,30.758
10.01,218.327,31.067
10.04,220.398,31.468
10.08,222.223,31.892
10.11,224.048,32.259
10.14,226.013,32.717
10.17,228.084,33.107
10.21,230.049,33.427
10.24,231.664,33.759
10.27,233.383,34.206
10.3,235.454,34.584
10.34,237.314,34.79
10.37,238.683,35.008
10.4,240.157,35.421
10.43,242.157,35.787
10.47,244.157,36.085
10.5,245.912,36.417
10.53,247.351,36.83
10.56,249.071,37.276
10.6,250.931,37.62
10.63,252.545,37.952
10.66,254.124,38.319
10.69,255.879,38.72
10.73,257.599,39.052
10.76,259.143,39.361
10.79,260.757,39.728
10.82,262.337,40.083
10.86,263.67,40.198
10.89,264.653,40.312
10.92,265.776,40.61
10.95,267.039,40.816
10.99,268.373,40.976
11.02,269.742,41.137
11.05,270.865,41.332
11.08,271.883,41.607
11.12,272.865,41.847
11.15,273.988,41.985
11.18,274.971,42.122
11.21,276.024,42.294
11.25,276.971,42.477
11.28,277.919,42.706
11.31,279.007,42.867
11.34,279.779,42.981
11.38,280.305,43.119
11.41,280.937,43.348
11.44,281.674,43.359
11.47,282.201,43.371
11.51,282.867,43.52
11.54,283.99,43.783
11.57,284.377,43.795
11.6,284.622,43.737
11.64,284.973,43.921
11.67,285.254,43.795
11.7,285.324,43.772
11.73,285.324,43.657
11.77,285.429,43.634
11.8,285.535,43.669
11.83,285.64,43.691
11.86,285.78,43.634
11.9,285.78,43.611
11.93,285.535,43.577
11.96,285.184,43.52
11.99,284.833,43.439
12.03,284.622,43.428
12.06,284.552,43.394
12.09,284.271,43.313
12.12,283.78,43.268
12.16,283.183,43.142
12.19,282.552,42.981
12.22,281.744,42.809
12.25,281.007,42.626
12.29,280.341,42.489
12.32,279.639,42.386
12.35,278.902,42.237
12.38,277.954,42.099
12.42,276.936,41.927
12.45,275.813,41.687
12.48,274.55,41.332
12.51,273.076,41.022
12.55,271.848,40.816
12.58,270.795,40.576
12.61,269.601,40.335
12.64,268.338,40.14
12.68,267.004,39.9
12.71,265.53,39.682
12.74,264.091,39.476
12.77,262.582,39.247
12.81,261.038,39.029
12.84,259.564,38.777
12.87,257.985,38.525
12.9,256.406,38.307
12.94,254.791,38.113
12.97,253.282,37.987
13.0,251.808,37.803
13.03,250.089,37.517
13.07,248.018,37.299
13.1,245.982,37.024
13.13,244.263,36.761
13.16,242.438,36.474
13.2,240.367,36.142
13.23,238.332,35.913
13.26,236.647,35.787
13.29,235.033,35.547
13.33,233.208,35.34
13.36,231.242,35.214
13.39,229.453,35.031
13.42,227.803,34.928
13.46,225.908,34.813
13.49,223.943,34.55
13.52,221.872,34.321
13.55,219.977,34.138
13.59,218.117,33.863
13.62,216.151,33.599
13.65,214.291,33.427
13.68,212.326,33.255
13.72,210.22,32.981
13.75,207.869,32.66
13.78,205.482,32.362
13.81,203.201,32.03
13.85,201.025,31.64
13.88,198.885,31.251
13.91,196.674,30.964
13.94,194.392,30.758
13.98,192.287,30.449
14.01,190.111,30.162
14.04,187.724,29.922
14.07,185.197,29.578
14.11,182.53,29.223
14.14,180.109,28.914
14.17,177.687,28.387
14.2,174.809,27.78
14.24,171.651,27.333
14.27,168.948,26.943
14.3,166.351,26.313
14.34,163.228,25.683
14.37,159.999,25.259
14.4,156.911,24.687
14.43,154.173,24.228
14.47,151.401,23.839
14.5,148.558,23.22
14.53,145.54,22.934
14.56,142.171,22.315
14.6,138.837,21.697
14.63,135.468,21.284
14.66,132.555,20.746
14.69,129.466,20.07
14.73,126.062,19.474
14.76,122.623,19.028
14.79,119.464,18.501
14.82,116.376,18.008
14.86,113.182,17.573
14.89,109.918,17.16
14.92,106.83,16.714
14.95,103.706,16.244
14.99,100.372,15.763
15.02,97.108,15.35
15.05,93.845,14.904
15.08,90.651,14.411
15.12,87.352,13.918
15.15,84.158,13.54
15.18,81.035,13.128
15.21,78.017,12.727
15.25,74.858,12.326
15.28,71.735,11.96
15.31,68.436,11.57
15.34,65.453,11.215
15.38,62.329,10.78
15.41,59.346,10.344
15.44,56.117,9.989
15.47,53.099,9.554
15.51,49.59,9.119
15.54,46.466,8.706
15.57,42.781,8.248
15.6,40.886,7.492
15.64,42.465,5.464
15.67,47.484,1.134
15.7,39.973,-2.245
15.73,27.409,-0.687
15.77,28.006,0.08
15.8,24.461,-1.054
15.83,16.249,-1.088
15.86,8.844,-0.951
15.9,2.457,-0.882
15.93,-3.264,-0.722
15.96,-5.089,-0.115
15.99,-5.37,-0.424
16.03,-9.265,-0.687
16.06,-10.844,-1.226
16.09,-14.459,-2.463
16.12,-21.408,-2.852
16.16,-27.62,-2.738
16.19,-32.428,-2.6
16.22,-35.095,-2.978
16.25,-36.639,-4.044
16.29,-38.535,-5.327
16.32,-41.447,-6.026
16.35,-44.255,-5.98
16.38,-46.642,-5.819
16.42,-48.747,-5.797
16.45,-51.414,-5.945
16.48,-55.205,-6.22
16.51,-59.276,-6.484
16.55,-63.031,-6.839
16.58,-66.435,-7.412
16.61,-69.559,-8.065
16.64,-72.542,-8.775
16.68,-75.63,-9.428
16.71,-78.613,-9.909
16.74,-81.561,-10.241
16.77,-84.509,-10.654
16.81,-87.563,-11.135
16.84,-91.002,-11.616
16.87,-94.652,-12.166
16.9,-98.056,-12.784
16.94,-101.46,-13.414
16.97,-104.829,-14.193
17.0,-108.234,-14.927
17.03,-111.708,-15.534
17.07,-115.112,-16.175
17.1,-118.306,-16.725
17.13,-121.429,-17.229
17.16,-124.553,-17.859
17.2,-127.887,-18.386
17.23,-131.291,-18.959
17.26,-134.731,-19.566
17.29,-138.38,-20.242
17.33,-141.679,-20.746
17.36,-144.662,-21.25
17.39,-147.505,-21.949
17.42,-150.558,-22.464
17.46,-153.612,-22.797
17.49,-156.665,-23.163
17.52,-159.648,-23.518
17.55,-162.631,-23.942
17.59,-165.755,-24.435
17.62,-168.843,-24.893
17.65,-171.721,-25.34
17.68,-174.353,-25.855
17.72,-176.915,-26.29
17.75,-179.652,-26.669
17.78,-182.53,-27.024
17.81,-185.197,-27.264
17.85,-187.444,-27.516
17.88,-189.795,-27.906
17.91,-192.111,-28.272
17.94,-194.673,-28.478
17.98,-196.954,-28.65
18.01,-199.13,-28.983
18.04,-201.657,-29.475
18.07,-204.254,-29.819
18.11,-206.43,-30.059
18.14,-208.185,-30.231
18.17,-209.975,-30.46
18.2,-211.589,-30.621
18.24,-213.239,-30.724
18.27,-214.923,-30.77
18.3,-216.537,-30.861
18.33,-218.187,-31.022
18.37,-219.942,-31.274
18.4,-221.802,-31.549
18.43,-223.697,-31.846
18.46,-225.522,-32.133
18.5,-227.382,-32.522
18.53,-229.277,-33.015
18.56,-230.962,-33.439
18.59,-233.067,-33.977
18.63,-235.208,-34.493
18.66,-237.173,-34.836
18.69,-238.437,-35.02
18.72,-239.876,-35.432
18.76,-241.631,-35.856
18.79,-243.42,-36.062
18.82,-244.754,-36.303
18.85,-246.228,-36.669
18.89,-247.913,-37.059
18.92,-249.597,-37.334
18.95,-251.036,-37.631
18.98,-252.65,-37.987
19.02,-254.265,-38.296
19.05,-255.809,-38.605
19.08,-257.423,-38.96
19.11,-258.968,-39.35
19.15,-260.477,-39.774
19.18,-262.161,-40.163
19.21,-263.495,-40.381
19.24,-264.618,-40.656
19.28,-266.022,-40.999
19.31,-267.601,-41.229
19.34,-268.97,-41.458
19.37,-270.128,-41.733
19.41,-271.181,-42.03
19.44,-272.234,-42.225
19.47,-273.392,-42.328
19.5,-274.409,-42.489
19.54,-275.462,-42.638
19.57,-276.34,-42.844
19.6,-277.357,-43.073
19.63,-278.34,-43.199
19.67,-279.007,-43.359
19.7,-279.744,-43.543
19.73,-280.586,-43.588
19.76,-281.253,-43.6
19.8,-281.429,-43.611
19.83,-281.885,-43.829
19.86,-282.622,-43.714
19.89,-283.148,-43.749
19.93,-283.604,-43.966
19.96,-284.096,-44.012
19.99,-284.517,-44.115
20.02,-284.763,-44.218
20.06,-284.903,-44.161
20.09,-285.078,-44.069
20.12,-285.254,-44.161
20.15,-285.464,-44.104
20.19,-285.394,-44.069
20.22,-285.219,-44.138
20.25,-285.219,-44.104
20.28,-285.008,-43.909
20.32,-284.412,-43.749
20.35,-284.096,-43.669
20.38,-283.85,-43.6
20.41,-283.394,-43.531
20.45,-282.973,-43.439
20.48,-282.341,-43.302
20.51,-281.604,-42.993
20.54,-280.586,-42.683
20.58,-279.428,-42.5
20.61,-278.796,-42.317
20.64,-278.41,-42.191
20.67,-277.919,-42.088
20.71,-277.112,-42.122
20.74,-276.585,-42.214
20.77,-276.059,-42.156
20.8,-274.936,-42.145
20.84,-274.094,-42.099
20.87,-273.357,-41.973
20.9,-272.339,-41.824
20.93,-271.181,-41.675
20.97,-269.952,-41.526
21.0,-268.724,-41.286
21.03,-267.25,-40.942
21.06,-265.601,-40.587
21.1,-264.021,-40.209
21.13,-262.372,-39.785
21.16,-260.512,-39.373
21.19,-258.441,-39.041
21.23,-256.897,-38.72
21.26,-255.528,-38.342
21.29,-253.493,-37.906
21.32,-251.527,-37.757
21.36,-249.983,-37.609
21.39,-248.264,-37.322
21.42,-246.193,-37.07
21.45,-244.368,-37.001
21.49,-242.929,-36.83
21.52,-241.209,-36.543
21.55,-239.174,-36.326
21.58,-237.489,-36.177
21.62,-235.91,-35.97
21.65,-234.12,-35.787
21.68,-232.26,-35.524
21.71,-230.4,-35.363
21.75,-228.751,-35.295
21.78,-226.891,-35.065
21.81,-224.644,-34.687
21.84,-222.469,-34.47
21.88,-220.538,-34.229
21.91,-218.433,-33.794
21.94,-216.081,-33.462
21.97,-213.94,-33.301
22.01,-212.08,-33.038
22.04,-210.08,-32.706
22.07,-207.729,-32.339
22.1,-205.272,-32.087
22.14,-203.061,-31.835
22.17,-201.06,-31.571
22.2,-199.06,-31.308
22.23,-196.849,-31.113
22.27,-194.778,-30.941
22.3,-192.813,-30.701
22.33,-190.567,-30.449
22.36,-188.216,-30.208
22.4,-185.654,-29.865
22.43,-183.022,-29.429
22.46,-180.319,-29.074
22.49,-177.933,-28.605
22.53,-175.23,-27.929
22.56,-172.177,-27.367
22.59,-169.194,-26.943
22.62,-166.386,-26.451
22.66,-163.719,-25.867
22.69,-160.876,-25.294
22.72,-158.174,-24.939
22.75,-155.156,-24.584
22.79,-152.103,-23.896
22.82,-148.909,-23.553
22.85,-145.821,-23.026
22.88,-143.048,-22.476
22.92,-139.749,-21.857
22.95,-136.31,-21.25
22.98,-132.976,-20.895
23.01,-130.168,-20.425
23.05,-127.501,-19.933
23.08,-124.553,-19.406
23.11,-121.078,-18.913
23.14,-117.534,-18.478
23.18,-114.27,-18.065
23.21,-111.287,-17.481
23.24,-108.023,-16.782
23.27,-104.373,-16.221
23.31,-100.688,-15.763
23.34,-97.424,-15.282
23.37,-94.441,-14.789
23.4,-91.318,-14.216
23.44,-87.984,-13.666
23.47,-84.755,-13.3
23.5,-81.596,-12.956
23.53,-78.473,-12.521
23.57,-75.244,-12.166
23.6,-72.156,-11.834
23.63,-69.067,-11.433
23.66,-66.014,-10.974
23.7,-62.645,-10.482
23.73,-59.451,-10.104
23.76,-56.152,-9.772
23.79,-53.31,-9.313
23.83,-49.905,-8.775
23.86,-46.642,-8.317
23.89,-42.886,-7.824
23.92,-40.395,-7.183
23.96,-41.342,-5.384
23.99,-46.15,-1.375
24.02,-39.693,2.268
24.05,-26.286,0.928
24.09,-26.181,-0.08
24.12,-23.338,1.031
24.15,-15.091,1.191
24.18,-7.651,0.939
24.22,-2.071,0.802
24.25,2.457,0.653
24.28,3.966,0.195
24.31,3.966,0.332
24.35,6.984,0.802
24.38,11.511,0.676
24.41,14.459,0.699
24.44,17.899,1.363
24.48,22.742,2.36
24.51,28.603,3.093
24.54,33.902,3.173
24.57,37.131,3.276
24.61,38.499,4.09
24.64,39.938,5.224
24.67,42.641,6.071
24.7,45.905,6.209
24.74,48.677,6.014
24.77,51.064,6.037
24.8,53.976,6.381
24.83,57.767,6.839
24.87,61.873,7.251
24.9,65.628,7.732
24.93,68.927,8.363
24.96,71.98,9.107
25.0,75.139,9.875
25.03,78.473,10.47
25.06,81.456,10.768
25.09,84.123,11.078
25.13,86.896,11.536
25.16,90.054,11.925
25.19,93.423,12.269
25.22,96.863,12.739
25.26,100.302,13.357
25.29,103.706,14.067
25.32,107.321,14.801
25.35,110.796,15.488
25.39,114.059,16.129
25.42,117.358,16.885
25.45,120.587,17.447
25.48,123.851,17.951
25.52,127.01,18.581
25.55,130.238,19.085
25.58,133.572,19.589
25.61,137.047,20.242
25.65,140.416,20.746
25.68,143.434,21.147
25.71,146.312,21.857
25.74,149.471,22.476
25.78,152.734,22.808
25.81,155.858,23.289
25.84,158.841,23.759
25.87,161.649,24.16
25.91,164.667,24.664
25.94,167.755,25.099
25.97,170.563,25.397
26.0,173.125,25.832
26.04,175.687,26.199
26.07,178.459,26.474
26.1,181.302,26.795
26.13,183.934,27.15
26.17,186.32,27.39
26.2,188.567,27.768
26.23,191.023,28.123
26.26,193.269,28.261
26.3,195.305,28.352
26.33,197.375,28.605
26.36,199.586,28.845
26.39,201.797,29.097
26.43,203.938,29.361
26.46,205.869,29.613
26.49,207.658,29.819
26.52,209.448,30.025
26.56,211.378,30.208
26.59,213.344,30.437
26.62,215.344,30.724
26.65,217.099,31.033
26.69,218.994,31.48
26.72,221.275,31.984
26.75,223.346,32.247
26.78,225.066,32.591
26.82,226.855,33.118
26.85,229.031,33.496
26.88,230.962,33.759
26.91,232.611,34.046
26.95,234.436,34.573
26.98,236.401,34.974
27.01,238.261,35.283
27.04,239.665,35.524
27.08,241.209,35.787
27.11,243.105,36.245
27.14,245.07,36.52
27.17,246.649,36.749
27.21,248.228,37.253
27.24,250.159,37.792
27.27,252.124,38.055
27.3,253.598,38.342
27.34,255.212,38.766
27.37,256.967,39.098
27.4,258.582,39.396
27.43,260.056,39.716
27.47,261.565,40.037
27.5,262.968,40.266
27.53,264.021,40.335
27.56,265.039,40.484
27.6,266.302,40.724
27.63,267.776,40.862
27.66,268.9,41.034
27.69,270.023,41.332
27.73,271.216,41.584
27.76,272.374,41.733
27.79,273.286,41.859
27.82,274.094,42.122
27.86,275.111,42.34
27.89,276.164,42.489
27.92,277.182,42.706
27.95,278.305,42.924
27.99,279.253,43.073
28.02,279.849,43.256
28.05,280.551,43.417
28.08,281.218,43.497
28.12,281.85,43.462
28.15,282.236,43.52
28.18,282.973,43.726
28.21,283.71,43.989
28.25,283.955,43.863
28.28,284.201,44.035
28.31,284.692,44.092
28.34,285.043,43.932
28.38,285.114,43.955
28.41,285.219,43.966
28.44,285.57,44.047
28.48,285.78,44.092
28.51,285.815,44.161
28.54,285.815,44.138
28.57,285.78,44.069
28.61,285.429,43.921
28.64,285.043,43.714
28.67,284.552,43.554
28.7,284.236,43.52
28.74,284.131,43.417
28.77,283.675,43.325
28.8,283.183,43.291
28.83,282.657,43.187
28.87,282.13,43.004
28.9,281.323,42.775
28.93,280.341,42.615
28.96,279.639,42.58
29.0,279.182,42.477
29.03,278.481,42.271
29.06,277.393,42.076
29.09,276.164,41.927
29.13,274.971,41.721
29.16,273.918,41.423
29.19,272.69,41.103
29.22,271.251,40.919
29.26,270.058,40.747
29.29,268.935,40.507
29.32,267.636,40.255
29.35,266.267,40.049
29.39,264.793,39.854
29.42,263.284,39.659
29.45,261.81,39.453
29.48,260.371,39.224
29.52,258.862,38.983
29.55,257.178,38.8
29.58,255.493,38.628
29.61,253.984,38.365
29.65,252.44,38.067
29.68,250.826,37.792
29.71,249.001,37.563
29.74,247.141,37.276
29.78,245.316,37.001
29.81,243.456,36.841
29.84,241.525,36.612
29.87,239.595,36.291
29.91,237.63,35.993
29.94,235.805,35.821
29.97,234.085,35.65
30.0,232.401,35.478
30.04,230.47,35.295
30.07,228.716,35.134
30.1,227.101,35.02
30.13,225.241,34.825
30.17,223.03,34.573
30.2,220.889,34.412
30.23,219.029,34.195
30.26,217.169,33.851
30.3,214.993,33.53
30.33,212.888,33.336
30.36,210.817,33.118
30.39,208.711,32.763
30.43,206.465,32.431
30.46,204.149,32.179
30.49,201.833,31.904
30.52,199.797,31.629
30.56,197.832,31.365
30.59,195.726,31.125
30.62,193.445,30.861
30.65,191.164,30.598
30.69,188.812,30.334
30.72,186.356,29.991
30.75,183.934,29.544
30.78,181.372,29.143
30.82,178.81,28.811
30.85,176.248,28.307
30.88,173.3,27.768
30.91,170.422,27.356
30.95,167.896,26.898
30.98,165.018,26.199
31.01,161.754,25.603
31.04,158.56,25.214
31.08,155.682,24.664
31.11,153.085,24.297
31.14,150.208,23.69
31.17,147.154,23.209
31.21,143.925,22.819
31.24,140.591,22.224
31.27,137.433,21.72
31.3,134.45,21.158
31.34,131.326,20.609
31.37,128.062,20.047
31.4,124.763,19.543
31.43,121.57,19.016
31.47,118.271,18.489
31.5,115.007,17.997
31.53,111.813,17.504
31.56,108.585,17.115
31.6,105.602,16.714
31.63,102.478,16.187
31.66,99.109,15.717
31.69,95.95,15.362
31.73,92.967,14.915
31.76,89.668,14.354
31.79,86.194,13.861
31.82,82.895,13.54
31.86,79.947,13.128
31.89,76.753,12.67
31.92,73.489,12.212
31.95,70.331,11.799
31.99,67.278,11.364
32.02,64.049,10.917
32.05,60.855,10.436
32.08,57.486,10.069
32.12,54.538,9.691
32.15,51.239,9.268
32.18,48.08,8.741
32.21,44.29,8.305
32.25,41.869,7.732
32.28,42.746,6.037
32.31,48.291,2.005
32.34,43.799,-2.062
32.38,29.866,-1.088
32.41,29.445,0.229
32.44,27.515,-0.951
32.47,18.881,-1.214
32.51,10.88,-0.962
32.54,4.457,-0.859
32.57,-1.544,-0.848
32.6,-4.913,-0.252
32.64,-4.387,-0.16
32.67,-6.844,-0.596
32.7,-8.774,-1.008
32.73,-11.16,-2.142
32.77,-17.723,-2.532
32.8,-23.759,-2.394
32.83,-28.954,-2.371
32.86,-32.954,-2.681
32.9,-36.043,-3.379
32.93,-38.289,-4.376
32.96,-40.57,-5.27
32.99,-42.676,-5.693
33.03,-44.746,-5.819
33.06,-47.028,-5.934
33.09,-49.695,-5.923
33.12,-52.994,-5.957
33.16,-56.924,-6.197
33.19,-60.82,-6.553
33.22,-64.575,-7.102
33.25,-68.12,-7.881
33.29,-71.349,-8.672
33.32,-74.542,-9.348
33.35,-77.49,-9.955
33.38,-80.193,-10.39
33.42,-83.0,-10.745
33.45,-86.018,-11.135
33.48,-89.282,-11.501
33.51,-92.616,-11.834
33.55,-95.95,-12.326
33.58,-99.39,-12.968
33.61,-102.934,-13.666
33.64,-106.374,-14.319
33.68,-109.497,-14.972
33.71,-112.55,-15.648
33.74,-115.849,-16.393
33.77,-119.218,-17.0
33.81,-122.623,-17.538
33.84,-125.816,-18.077
33.87,-129.115,-18.673
33.9,-132.52,-19.303
33.94,-136.099,-19.921
33.97,-139.574,-20.62
34.0,-142.838,-21.009
34.03,-145.891,-21.536
34.07,-148.909,-22.235
34.1,-151.927,-22.739
34.13,-154.91,-23.232
34.16,-158.139,-23.782
34.2,-161.403,-24.137
34.23,-164.386,-24.446
34.26,-167.018,-24.881
34.29,-169.791,-25.317
34.33,-172.774,-25.683
34.36,-175.476,-26.084
34.39,-178.143,-26.405
34.42,-180.811,-26.737
34.46,-183.618,-27.104
34.49,-186.25,-27.436
34.52,-188.567,-27.78
34.55,-191.058,-28.192
34.59,-193.445,-28.49
34.62,-195.761,-28.65
34.65,-197.937,-28.845
34.68,-200.008,-29.097
34.72,-202.043,-29.361
34.75,-204.114,-29.613
34.78,-206.114,-29.819
34.81,-208.08,-30.014
34.85,-209.94,-30.243
34.88,-211.835,-30.403
34.91,-213.554,-30.552
34.94,-215.274,-30.85
34.98,-217.134,-31.136
35.01,-219.205,-31.342
35.04,-221.03,-31.56
35.07,-222.609,-31.846
35.11,-224.294,-32.179
35.14,-226.189,-32.534
35.17,-228.119,-32.935
35.2,-229.874,-33.278
35.24,-231.804,-33.759
35.27,-234.225,-34.332
35.3,-236.366,-34.63
35.33,-237.524,-34.974
35.37,-238.788,-35.443
35.4,-240.929,-35.97
35.43,-243.034,-36.177
35.46,-244.543,-36.314
35.5,-245.807,-36.646
35.53,-247.456,-37.15
35.56,-249.387,-37.574
35.59,-251.212,-37.826
35.63,-252.65,-38.136
35.66,-254.265,-38.514
35.69,-255.809,-38.788
35.72,-257.178,-39.109
35.76,-258.617,-39.499
35.79,-260.266,-39.865
35.82,-261.88,-40.094
35.85,-262.968,-40.278
35.89,-264.127,-40.415
35.92,-265.39,-40.53
35.95,-266.618,-40.793
35.98,-268.022,-41.16
36.02,-269.391,-41.355
36.05,-270.338,-41.675
36.08,-271.461,-41.939
36.11,-272.549,-42.088
36.15,-273.427,-42.34
36.18,-274.48,-42.603
36.21,-275.497,-42.695
36.24,-276.585,-42.855
36.28,-277.603,-43.05
36.31,-278.445,-43.245
36.34,-279.147,-43.405
36.37,-279.99,-43.439
36.41,-280.621,-43.474
36.44,-281.042,-43.543
36.47,-281.464,-43.588
36.5,-281.779,-43.669
36.54,-282.376,-43.726
36.57,-283.043,-43.829
36.6,-283.394,-43.921
36.63,-283.885,-44.001
36.67,-284.447,-44.035
36.7,-284.657,-44.058
36.73,-284.692,-44.138
36.76,-285.114,-44.195
36.8,-285.5,-44.173
36.83,-285.464,-44.218
36.86,-285.359,-44.31
36.89,-285.254,-44.276
36.93,-285.008,-44.15
36.96,-284.657,-43.932
36.99,-284.271,-43.749
37.02,-283.99,-43.669
37.06,-283.815,-43.646
37.09,-283.499,-43.6
37.12,-282.973,-43.554
37.15,-282.306,-43.428
37.19,-281.744,-43.21
37.22,-281.042,-42.958
37.25,-279.955,-42.764
37.28,-279.288,-42.695
37.32,-278.937,-42.557
37.35,-278.867,-42.638
37.38,-279.253,-43.245
37.41,-279.709,-43.795
37.45,-279.744,-44.241
37.48,-280.06,-44.757
37.51,-280.341,-45.055
37.54,-279.674,-45.112
37.58,-278.551,-44.986
37.61,-277.533,-44.608
37.64,-276.27,-43.875
37.67,-274.234,-42.993
37.71,-271.812,-42.282
37.74,-269.847,-41.572
37.77,-268.127,-40.816
37.8,-266.092,-40.186
37.84,-264.127,-39.659
37.87,-262.126,-39.235
37.9,-260.196,-38.846
37.93,-258.266,-38.33
37.97,-255.949,-37.815
38.0,-253.633,-37.379
38.03,-251.317,-36.944
38.06,-249.211,-36.486
38.1,-247.07,-36.119
38.13,-244.93,-35.821
38.16,-243.034,-35.638
38.19,-241.315,-35.569
38.23,-239.735,-35.501
38.26,-237.946,-35.375
38.29,-235.875,-35.283
38.32,-234.015,-35.203
38.36,-232.155,-35.031
38.39,-230.26,-34.802
38.42,-227.908,-34.412
38.45,-225.311,-34.069
38.49,-223.065,-33.782
38.52,-220.889,-33.427
38.55,-218.573,-33.084
38.58,-216.502,-32.82
38.62,-214.572,-32.614
38.65,-212.607,-32.454
38.68,-210.466,-32.282
38.71,-208.43,-32.11
38.75,-206.325,-31.95
38.78,-204.254,-31.812
38.81,-202.254,-31.652
38.84,-200.288,-31.503
38.88,-198.323,-31.457
38.91,-196.463,-31.274
38.94,-194.182,-30.953
38.97,-191.655,-30.747
39.01,-189.549,-30.586
39.04,-187.338,-30.128
39.07,-184.636,-29.544
39.1,-181.898,-29.2
39.14,-179.512,-28.902
39.17,-176.985,-28.318
39.2,-173.967,-27.688
39.23,-170.773,-27.184
39.27,-167.896,-26.749
39.3,-165.053,-26.119
39.33,-161.894,-25.328
39.36,-158.736,-24.801
39.4,-156.033,-24.492
39.43,-153.296,-23.942
39.46,-150.208,-23.381
39.49,-147.049,-22.991
39.53,-144.031,-22.613
39.56,-141.083,-22.109
39.59,-137.784,-21.491
39.62,-134.38,-20.918
39.66,-131.116,-20.425
39.69,-127.887,-19.852
39.72,-124.448,-19.177
39.75,-120.622,-18.547
39.79,-117.113,-18.054
39.82,-112.375,-16.725
39.85,-106.023,-14.915
39.88,-98.898,-13.426
39.92,-93.529,-12.246
39.95,-90.265,-11.318
39.98,-87.247,-9.886
40.01,-83.807,-8.912
40.05,-80.403,-9.061
40.08,-78.754,-9.966
40.11,-78.403,-10.757
40.14,-77.701,-11.238
40.18,-75.595,-11.845
40.21,-72.928,-12.704
40.24,-70.576,-13.437
40.27,-68.365,-13.632
40.31,-65.593,-13.38
40.34,-62.61,-13.014
40.37,-59.592,-12.681
40.4,-57.135,-12.2
40.44,-54.538,-11.536
40.47,-51.836,-10.974
40.5,-48.782,-10.677
40.53,-46.291,-10.195
40.57,-42.957,-9.542
40.6,-41.693,-8.592
40.63,-44.08,-6.014
40.66,-48.712,-1.306
40.7,-41.096,2.406
40.73,-27.094,0.928
40.76,-27.129,-0.092
40.79,-23.759,1.168
40.83,-13.933,1.386
40.86,-5.826,0.939
40.89,0.07,0.871
40.92,4.001,0.412
40.96,3.369,0.034
40.99,4.036,0.596
41.02,8.002,0.687
41.05,10.704,0.481
41.09,14.108,0.722
41.12,18.846,1.1
41.15,22.742,1.902
41.18,27.866,2.772
41.22,32.954,3.15
41.25,36.534,3.253
41.28,38.184,3.757
41.31,39.728,4.788
41.35,42.29,5.739
41.38,45.905,6.071
41.41,49.203,6.026
41.44,52.151,6.22
41.48,55.31,6.805
41.51,59.346,7.492
41.54,63.487,8.076
41.57,67.383,8.729
41.61,70.787,9.428
41.64,73.77,10.092
41.67,76.753,10.688
41.7,79.842,11.146
41.74,82.825,11.387
41.77,85.632,11.582
41.8,88.51,11.914
41.83,91.669,12.246
41.87,94.968,12.578
41.9,98.161,13.036
41.93,101.18,13.575
41.96,104.478,14.216
42.0,107.953,14.915
42.03,111.533,15.488
42.06,114.726,16.003
42.09,117.604,16.53
42.13,120.412,17.16
42.16,123.605,17.779
42.19,127.01,18.34
42.22,130.449,18.867
42.26,133.958,19.463
42.29,137.503,20.162
42.32,140.872,20.803
42.35,144.276,21.491
42.39,147.575,22.224
42.42,150.769,22.762
42.45,153.647,23.209
42.48,156.525,23.747
42.52,159.613,24.183
42.55,162.666,24.423
42.58,165.263,24.71
42.61,167.966,25.076
42.65,170.844,25.443
42.68,173.616,25.764
42.71,176.283,26.038
42.75,178.81,26.371
42.78,181.442,26.783
42.81,183.969,27.15
42.84,186.496,27.436
42.88,188.777,27.78
42.91,191.129,28.146
42.94,193.48,28.341
42.97,195.761,28.536
43.01,197.832,28.868
43.04,200.218,29.166
43.07,202.57,29.361
43.1,204.675,29.601
43.14,206.535,29.842
43.17,208.43,30.048
43.2,210.15,30.334
43.23,212.045,30.632
43.27,214.186,30.896
43.3,216.081,31.113
43.33,217.906,31.434
43.36,220.047,31.915
43.4,222.433,32.259
43.43,224.258,32.522
43.46,226.013,33.015
43.49,228.189,33.53
43.53,230.365,33.908
43.56,232.26,34.264
43.59,234.12,34.687
43.62,236.05,35.1
43.66,237.875,35.409
43.69,239.525,35.695
43.72,241.35,36.108
43.75,243.315,36.509
43.79,245.28,36.852
43.82,247.246,37.242
43.85,249.001,37.586
43.88,250.685,37.929
43.92,252.335,38.296
43.95,253.809,38.582
43.98,255.247,38.903
44.01,256.967,39.212
44.05,258.687,39.384
44.08,260.091,39.567
44.11,261.459,39.865
44.14,262.898,40.083
44.18,263.951,40.152
44.21,264.828,40.301
44.24,266.057,40.472
44.27,267.285,40.679
44.31,268.584,40.805
44.34,269.812,41.022
44.37,270.795,41.286
44.4,271.742,41.481
44.44,272.69,41.698
44.47,273.813,41.927
44.5,275.041,42.111
44.53,275.743,42.134
44.57,276.41,42.466
44.6,277.779,42.786
44.63,278.902,42.867
44.66,279.709,42.947
44.7,280.446,43.187
44.73,281.148,43.348
44.76,281.604,43.394
44.79,282.095,43.417
44.83,282.797,43.439
44.86,283.464,43.554
44.89,284.026,43.714
44.92,284.447,43.829
44.96,284.763,43.829
44.99,284.868,43.783
45.02,284.727,43.76
45.05,284.657,43.611
45.09,284.587,43.554
45.12,284.763,43.52
45.15,284.763,43.417
45.18,284.692,43.417
45.22,284.552,43.474
45.25,284.447,43.462
45.28,284.201,43.417
45.31,284.061,43.382
45.35,283.92,43.405
45.38,283.92,43.462
45.41,283.745,43.508
45.44,283.429,43.554
45.48,283.078,43.508
45.51,282.552,43.359
45.54,281.779,43.233
45.57,281.042,43.05
45.61,280.27,42.867
45.64,279.674,42.706
45.67,278.972,42.489
45.7,278.2,42.34
45.74,277.322,42.191
45.77,276.129,41.962
45.8,274.796,41.755
45.83,273.708,41.584
45.87,272.865,41.297
45.9,271.532,41.011
45.93,270.058,40.805
45.96,268.724,40.644
46.0,267.566,40.381
46.03,266.302,40.037
46.06,264.583,39.751
46.09,263.004,39.522
46.13,261.53,39.304
46.16,260.056,38.983
46.19,258.336,38.72
46.22,256.721,38.594
46.26,255.177,38.422
46.29,253.528,38.181
46.32,251.913,37.975
46.35,250.404,37.815
46.39,248.615,37.62
46.42,246.79,37.391
46.45,245.351,37.242
46.48,243.736,37.036
46.52,241.806,36.795
46.55,239.806,36.692
46.58,237.981,36.394
46.61,236.226,36.131
46.65,234.436,35.867
46.68,232.295,35.489
46.71,230.084,35.146
46.74,228.259,34.962
46.78,226.434,34.619
46.81,224.083,34.229
46.84,221.661,34.069
46.87,219.872,33.863
46.91,217.976,33.53
46.94,215.66,33.313
46.97,213.73,33.175
47.0,211.905,32.992
47.04,209.904,32.728
47.07,207.553,32.465
47.1,205.342,32.259
47.13,203.307,32.053
47.17,201.166,31.755
47.2,199.025,31.48
47.23,196.989,31.308
47.26,194.989,31.102
47.3,192.848,30.793
47.33,190.532,30.552
47.36,188.251,30.254
47.39,185.619,29.876
47.43,183.127,29.544
47.46,180.635,29.177
47.49,178.108,28.696
47.52,175.406,28.181
47.56,172.423,27.642
47.59,169.37,27.184
47.62,166.457,26.531
47.65,163.614,25.947
47.69,160.631,25.248
47.72,157.578,24.71
47.75,154.594,24.263
47.78,151.787,23.816
47.82,148.769,23.358
47.85,145.786,22.854
47.88,142.416,22.281
47.91,139.012,21.674
47.95,135.608,21.135
47.98,132.379,20.505
48.01,129.045,19.898
48.04,125.746,19.337
48.08,122.377,18.776
48.11,119.254,18.295
48.14,116.2,17.882
48.17,113.182,17.401
48.21,110.023,16.966
48.24,106.9,16.679
48.27,103.987,16.324
48.3,100.934,15.946
48.34,97.705,15.602
48.37,94.441,15.179
48.4,91.212,14.72
48.43,87.914,14.251
48.47,84.65,13.712
48.5,81.245,13.277
48.53,78.227,12.899
48.56,75.279,12.441
48.6,72.226,11.971
48.63,68.997,11.604
48.66,65.804,11.238
48.69,62.61,10.894
48.73,59.837,10.562
48.76,56.784,10.161
48.79,53.52,9.6
48.82,49.765,9.142
48.86,46.22,8.626
48.89,42.641,8.156
48.92,41.412,7.228
48.95,44.185,4.731
48.99,48.221,0.034
49.02,37.306,-2.222
49.05,27.866,-0.206
49.08,29.164,-0.172
49.12,23.795,-1.146
49.15,15.547,-1.054
49.18,8.072,-0.974
49.21,1.474,-0.905
49.25,-3.896,-0.607
49.28,-4.773,-0.069
49.31,-4.738,-0.344
49.34,-7.581,-0.607
49.38,-8.809,-1.272
49.41,-13.02,-2.154
49.44,-19.373,-2.268
49.47,-25.058,-2.314
49.51,-30.217,-2.52
49.54,-34.709,-2.956
49.57,-38.289,-3.586
49.6,-40.395,-4.376
49.64,-41.798,-5.27
49.67,-43.623,-6.083
49.7,-46.185,-6.461
49.73,-49.098,-6.415
49.77,-52.116,-6.312
49.8,-55.521,-6.449
49.83,-59.311,-6.828
49.86,-63.452,-7.412
49.9,-67.558,-8.03
49.93,-71.103,-8.649
49.96,-74.261,-9.405
49.99,-76.894,-9.966
50.03,-79.21,-10.23
50.06,-81.631,-10.585
50.09,-84.404,-10.871
50.12,-87.247,-10.906
50.16,-90.054,-11.032
50.19,-93.108,-11.433
50.22,-96.407,-11.948
50.25,-100.232,-12.578
50.29,-104.057,-13.254
50.32,-107.462,-13.896
50.35,-110.585,-14.778
50.38,-113.884,-15.671
50.42,-117.183,-16.393
50.45,-120.587,-16.966
50.48,-123.851,-17.676
50.51,-127.08,-18.18
50.55,-130.414,-18.776
50.58,-133.958,-19.452
50.61,-137.608,-20.07
50.64,-140.942,-20.689
50.68,-144.136,-21.284
50.71,-147.365,-21.96
50.74,-150.699,-22.545
50.77,-153.857,-22.991
50.81,-156.841,-23.45
50.84,-159.824,-23.965
50.87,-162.842,-24.446
50.9,-165.79,-24.767
50.94,-168.633,-25.053
50.97,-171.405,-25.408
51.0,-174.142,-25.706
51.03,-176.634,-25.935
51.07,-179.056,-26.279
51.1,-181.688,-26.749
51.13,-184.636,-27.069
51.16,-187.408,-27.31
51.2,-189.76,-27.619
51.23,-191.866,-28.032
51.26,-194.252,-28.41
51.29,-196.744,-28.627
51.33,-198.99,-28.788
51.36,-201.236,-29.028
51.39,-203.236,-29.269
51.42,-205.026,-29.487
51.46,-206.992,-29.693
51.49,-209.062,-29.807
51.52,-210.747,-29.888
51.55,-212.291,-30.094
51.59,-214.081,-30.357
51.62,-216.011,-30.621
51.65,-218.082,-30.85
51.68,-219.942,-31.148
51.72,-221.837,-31.571
51.75,-223.732,-32.041
51.78,-225.697,-32.476
51.81,-227.838,-32.912
51.85,-229.803,-33.324
51.88,-231.488,-33.702
51.91,-233.278,-34.126
51.94,-235.173,-34.55
51.98,-237.033,-34.802
52.01,-238.683,-35.043
52.04,-240.157,-35.306
52.07,-242.017,-35.661
52.11,-244.017,-36.051
52.14,-245.737,-36.417
52.17,-247.246,-36.83
52.2,-248.93,-37.299
52.24,-250.72,-37.757
52.27,-252.229,-37.941
52.3,-253.633,-38.136
52.33,-255.072,-38.525
52.37,-256.721,-38.8
52.4,-258.301,-38.88
52.43,-259.564,-39.144
52.46,-261.038,-39.567
52.5,-262.617,-39.831
52.53,-263.705,-39.991
52.56,-264.793,-40.312
52.59,-266.162,-40.564
52.63,-267.566,-40.702
52.66,-268.864,-40.942
52.69,-269.987,-41.217
52.72,-270.97,-41.526
52.76,-272.128,-41.721
52.79,-273.216,-41.824
52.82,-274.164,-42.03
52.85,-275.111,-42.26
52.89,-276.164,-42.42
52.92,-277.112,-42.649
52.95,-278.13,-42.878
52.98,-278.937,-43.004
53.02,-279.568,-43.13
53.05,-280.27,-43.313
53.08,-280.797,-43.199
53.11,-281.148,-43.291
53.15,-281.569,-43.474
53.18,-282.411,-43.485
53.21,-283.078,-43.52
53.24,-283.71,-43.68
53.28,-284.236,-43.806
53.31,-284.622,-43.875
53.34,-284.692,-43.932
53.37,-284.692,-43.955
53.41,-284.938,-43.909
53.44,-285.114,-43.898
53.47,-285.219,-43.852
53.5,-285.078,-43.852
53.54,-284.973,-43.898
53.57,-285.008,-43.806
53.6,-284.868,-43.6
53.63,-284.377,-43.508
53.67,-284.201,-43.474
53.7,-284.096,-43.474
53.73,-284.131,-43.428
53.76,-283.745,-43.394
53.8,-283.148,-43.371
53.83,-282.587,-43.199
53.86,-281.779,-43.016
53.89,-280.972,-42.947
53.93,-280.937,-43.016
53.96,-281.113,-43.176
53.99,-281.113,-43.417
54.02,-280.902,-43.623
54.06,-280.551,-43.726
54.09,-279.779,-43.646
54.12,-278.551,-43.359
54.15,-276.936,-42.878
54.19,-275.076,-42.225
54.22,-273.041,-41.446
54.25,-271.111,-40.656
54.28,-268.97,-40.003
54.32,-267.039,-39.522
54.35,-265.53,-39.121
54.38,-264.197,-38.823
54.41,-262.793,-38.582
54.45,-261.179,-38.388
54.48,-259.494,-38.342
54.51,-257.985,-38.25
54.54,-256.511,-38.032
54.58,-254.546,-37.735
54.61,-252.335,-37.402
54.64,-250.51,-37.059
54.67,-248.72,-36.726
54.71,-246.79,-36.348
54.74,-244.824,-36.165
54.77,-243.069,-35.993
54.8,-241.315,-35.821
54.84,-239.63,-35.73
54.87,-238.016,-35.558
54.9,-236.086,-35.455
54.93,-234.261,-35.409
54.97,-232.471,-35.295
55.0,-230.681,-35.065
55.03,-228.68,-34.894
55.06,-226.961,-34.71
55.1,-225.066,-34.355
55.13,-222.784,-34.023
55.16,-220.503,-33.84
55.19,-218.398,-33.656
55.23,-216.573,-33.336
55.26,-214.502,-33.038
55.29,-212.396,-32.877
55.32,-210.641,-32.786
55.36,-208.957,-32.614
55.39,-207.027,-32.476
55.42,-204.816,-32.293
55.45,-203.096,-32.259
55.49,-201.447,-32.11
55.52,-199.516,-31.766
55.55,-197.165,-31.571
55.58,-195.024,-31.537
55.62,-193.269,-31.262
55.65,-191.199,-30.884
55.68,-188.777,-30.54
55.71,-186.25,-30.162
55.75,-183.653,-29.67
55.78,-181.126,-29.235
55.81,-178.143,-28.593
55.84,-175.336,-28.135
55.88,-172.633,-27.642
55.91,-170.001,-27.047
55.94,-166.948,-26.394
55.97,-164.0,-26.004
56.01,-161.122,-25.489
56.04,-158.665,-24.996
56.07,-155.858,-24.607
56.1,-152.98,-24.091
56.14,-149.857,-23.679
56.17,-146.698,-23.14
56.2,-143.575,-22.579
56.23,-140.311,-21.869
56.27,-136.731,-21.239
56.3,-133.151,-20.643
56.33,-129.887,-20.07
56.36,-126.694,-19.474
56.4,-123.43,-18.879
56.43,-120.096,-18.272
56.46,-116.656,-17.768
56.49,-113.252,-17.275
56.53,-110.129,-16.805
56.56,-107.146,-16.324
56.59,-104.022,-15.809
56.62,-100.793,-15.339
56.66,-97.495,-15.007
56.69,-94.125,-14.652
56.72,-90.897,-14.228
56.75,-87.773,-13.896
56.79,-84.966,-13.598
56.82,-82.298,-13.208
56.85,-79.491,-12.933
56.88,-76.578,-12.727
56.92,-73.77,-12.544
56.95,-70.998,-12.303
56.98,-68.295,-11.994
57.02,-65.067,-11.501
57.05,-61.662,-11.055
57.08,-58.083,-10.585
57.11,-54.678,-10.001
57.15,-51.169,-9.348
57.18,-47.835,-8.66
57.21,-44.009,-7.87
57.24,-40.921,-7.24
57.28,-40.816,-5.911
57.31,-45.659,-2.451
57.34,-43.623,1.764
57.37,-29.831,1.409
57.41,-27.515,-0.149
57.44,-26.637,0.802
57.47,-18.916,1.226
57.5,-10.774,1.077
57.54,-4.141,0.894
57.57,1.685,0.871
57.6,5.299,0.378
57.63,5.58,0.298
57.67,8.458,0.664
57.7,11.441,0.916
57.73,14.108,1.925
57.76,20.145,2.669
57.8,26.286,2.841
57.83,31.516,2.83
57.86,34.639,3.185
57.89,36.534,4.193
57.93,38.254,5.464
57.96,40.746,6.197
57.99,43.553,6.369
58.02,46.045,6.301
58.06,48.431,6.278
58.09,51.555,6.415
58.12,55.556,6.736
58.15,59.767,7.022
58.19,63.452,7.469
58.22,66.716,8.133
58.25,69.734,8.924
58.28,72.823,9.623
58.32,75.981,10.092
58.35,78.719,10.253
58.38,81.175,10.47
58.41,83.913,10.86
58.45,87.141,11.181
58.48,90.511,11.375
58.51,93.599,11.753
58.54,96.758,12.315
58.58,100.127,12.968
58.61,103.531,13.666
58.64,106.76,14.342
58.67,109.953,15.03
58.71,113.182,15.74
58.74,116.376,16.255
58.77,119.429,16.656
58.8,122.482,17.321
58.84,125.571,17.813
58.87,128.87,18.329
58.9,132.204,19.005
58.93,135.608,19.509
58.97,139.188,20.345
59.0,142.697,21.009
59.03,146.312,21.662
59.06,149.4,22.212
59.1,152.383,22.808
59.13,155.507,23.541
59.16,158.806,23.988
59.19,161.929,24.366
59.23,164.912,24.744
59.26,167.545,25.076
59.29,170.142,25.431
59.32,172.879,25.832
59.36,175.616,26.027
59.39,178.284,26.336
59.42,181.091,26.726
59.45,183.794,27.047
59.49,186.32,27.379
59.52,188.847,27.837
59.55,191.374,28.135
59.58,193.585,28.33
59.62,195.691,28.536
59.65,197.691,28.696
59.68,199.692,28.857
59.71,201.833,29.074
59.75,204.008,29.292
59.78,206.079,29.532
59.81,208.044,29.75
59.84,209.869,29.968
59.88,211.659,30.185
59.91,213.554,30.472
59.94,215.414,30.724
59.97,217.204,30.987
60.01,219.029,31.297
60.04,220.995,31.594
60.07,222.82,31.846
60.1,224.539,32.213
60.14,226.505,32.591
60.17,228.505,32.9
60.2,230.295,33.278
60.23,232.014,33.668
60.27,234.12,34.138
60.3,236.156,34.63
60.33,237.981,34.974
60.36,239.771,35.329
60.4,241.49,35.821
60.43,243.245,36.291
60.46,245.105,36.566
60.49,246.719,36.875
60.53,248.544,37.253
60.56,250.229,37.54
60.59,251.773,37.849
60.62,253.528,38.216
60.66,255.388,38.479
60.69,256.897,38.788
60.72,258.266,39.167
60.75,259.845,39.464
60.79,261.635,39.762
60.82,263.004,39.957
60.85,263.846,40.026
60.88,264.758,40.22
60.92,265.952,40.415
60.95,267.25,40.507
60.98,268.443,40.644
61.01,269.707,40.896
61.05,270.865,41.148
61.08,271.883,41.4
61.11,272.971,41.584
61.14,273.883,41.824
61.18,274.866,42.111
61.21,275.989,42.317
61.24,277.007,42.534
61.27,278.094,42.855
61.31,279.218,43.05
61.34,279.99,43.153
61.37,280.692,43.348
61.4,281.534,43.462
61.44,282.13,43.405
61.47,282.516,43.417
61.5,283.183,43.669
61.53,284.131,43.943
61.57,284.412,43.783
61.6,284.622,43.875
61.63,284.903,43.886
61.66,285.149,43.691
61.7,285.149,43.714
61.73,285.184,43.634
61.76,285.394,43.577
61.79,285.57,43.554
61.83,285.64,43.634
61.86,285.78,43.657
61.89,285.745,43.623
61.92,285.464,43.634
61.96,285.289,43.6
61.99,285.078,43.474
62.02,284.763,43.428
62.05,284.271,43.359
62.09,283.92,43.233
62.12,283.464,43.061
62.15,282.762,42.878
62.18,281.99,42.672
62.22,281.148,42.512
62.25,280.411,42.328
62.28,279.744,42.248
62.31,279.077,42.145
62.35,278.2,42.065
62.38,277.287,42.019
62.41,276.585,41.836
62.44,275.533,41.584
62.48,274.129,41.32
62.51,272.83,41.103
62.54,271.707,40.896
62.57,270.479,40.621
62.61,269.04,40.369
62.64,267.741,40.129
62.67,266.513,39.831
62.7,265.039,39.476
62.74,263.284,39.247
62.77,261.81,39.075
62.8,260.442,38.777
62.83,258.722,38.525
62.87,257.072,38.365
62.9,255.669,38.239
62.93,254.089,38.032
62.96,252.405,37.792
63.0,250.826,37.574
63.03,249.141,37.391
63.06,247.176,37.139
63.09,245.28,36.898
63.13,243.666,36.715
63.16,241.841,36.371
63.19,239.525,35.993
63.22,237.454,35.787
63.26,235.77,35.627
63.29,234.05,35.363
63.32,232.155,35.088
63.35,230.26,34.951
63.39,228.645,34.848
63.42,226.891,34.733
63.45,224.855,34.55
63.48,222.82,34.378
63.52,220.889,34.149
63.55,218.854,33.897
63.58,216.713,33.611
63.61,214.748,33.37
63.65,212.888,33.095
63.68,210.747,32.843
63.71,208.43,32.534
63.74,206.29,32.339
63.78,204.324,32.053
63.81,202.184,31.583
63.84,199.973,31.48
63.87,198.077,31.377
63.91,196.147,31.159
63.94,194.112,30.93
63.97,191.866,30.77
64.0,189.655,30.598
64.04,187.408,30.266
64.07,184.987,29.83
64.1,182.355,29.418
64.13,179.793,28.994
64.17,177.02,28.433
64.2,174.037,27.837
64.23,171.019,27.276
64.26,168.071,26.795
64.3,164.807,25.867
64.33,161.368,25.145
64.36,158.279,24.755
64.39,155.788,24.183
64.43,153.085,23.69
64.46,150.067,23.209
64.49,146.944,22.945
64.52,143.855,22.636
64.56,140.942,22.166
64.59,137.889,21.548
64.62,134.415,20.975
64.65,131.01,20.414
64.69,127.711,19.875
64.72,124.518,19.303
64.75,121.324,18.753
64.78,118.236,18.237
64.82,115.147,17.79
64.85,112.059,17.378
64.88,108.971,17.08
64.91,105.882,16.725
64.95,102.794,16.301
64.98,99.53,15.889
65.01,96.231,15.465
65.04,93.002,15.007
65.08,89.774,14.514
65.11,86.545,13.907
65.14,83.211,13.357
65.17,79.912,12.899
65.21,76.613,12.487
65.24,73.524,12.086
65.27,70.576,11.719
65.3,67.523,11.364
65.34,64.435,10.952
65.37,61.276,10.505
65.4,57.942,10.138
65.43,54.819,9.737
65.47,51.52,9.245
65.5,48.151,8.798
65.53,44.746,8.351
65.56,41.974,7.962
65.6,42.079,6.656
65.63,46.782,3.311
65.66,47.028,-1.34
65.69,32.884,-1.741
65.73,28.287,0.126
65.76,27.866,-0.699
65.79,19.653,-1.294
65.82,10.774,-1.088
65.86,3.404,-0.939
65.89,-2.773,-0.779
65.92,-5.194,-0.137
65.95,-4.492,-0.241
65.99,-7.335,-0.607
66.02,-9.967,-0.79
66.05,-12.108,-1.776
66.08,-17.899,-2.429
66.12,-24.005,-2.532
66.15,-29.305,-2.532
66.18,-33.376,-2.669
66.21,-35.867,-3.253
66.25,-37.552,-4.261
66.28,-39.728,-5.224
66.31,-42.184,-5.682
66.34,-44.676,-5.716
66.38,-47.168,-5.739
66.41,-50.081,-5.888
66.44,-53.766,-6.163
66.47,-57.872,-6.53
66.51,-61.943,-6.965
66.54,-65.628,-7.595
66.57,-68.997,-8.317
66.6,-72.156,-9.016
66.64,-75.139,-9.714
66.67,-77.982,-10.218
66.7,-80.719,-10.505
66.73,-83.456,-10.848
66.77,-86.545,-11.238
66.8,-89.738,-11.501
66.83,-93.002,-11.891
66.86,-96.336,-12.383
66.9,-99.67,-12.876
66.93,-102.794,-13.414
66.96,-105.882,-13.941
66.99,-108.795,-14.457
67.03,-111.848,-15.018
67.06,-115.007,-15.671
67.09,-118.341,-16.129
67.12,-121.745,-16.759
67.16,-125.009,-17.378
67.19,-128.378,-18.02
67.22,-131.853,-18.821
67.25,-135.573,-19.635
67.29,-139.117,-20.322
67.32,-142.346,-20.849
67.35,-145.259,-21.445
67.38,-148.242,-22.052
67.42,-151.717,-22.567
67.45,-155.121,-22.991
67.48,-158.069,-23.381
67.51,-160.876,-23.896
67.55,-163.754,-24.503
67.58,-166.913,-24.985
67.61,-170.142,-25.294
67.64,-172.984,-25.649
67.68,-175.476,-25.958
67.71,-177.827,-26.256
67.74,-180.424,-26.749
67.77,-183.372,-27.184
67.81,-186.215,-27.367
67.84,-188.672,-27.688
67.87,-190.848,-28.112
67.9,-193.024,-28.421
67.94,-195.375,-28.65
67.97,-197.551,-28.834
68.0,-199.692,-29.028
68.03,-201.868,-29.269
68.07,-203.973,-29.429
68.1,-205.869,-29.59
68.13,-207.658,-29.83
68.16,-209.554,-30.082
68.2,-211.554,-30.22
68.23,-213.379,-30.403
68.26,-215.063,-30.701
68.29,-216.994,-30.987
68.33,-218.959,-31.274
68.36,-220.784,-31.571
68.39,-222.433,-31.927
68.42,-224.258,-32.293
68.46,-226.154,-32.671
68.49,-228.224,-33.038
68.52,-230.154,-33.347
68.55,-231.979,-33.679
68.59,-233.804,-34.286
68.62,-235.945,-34.802
68.65,-237.946,-35.123
68.68,-239.665,-35.478
68.72,-241.42,-35.948
68.75,-243.175,-36.326
68.78,-244.684,-36.623
68.81,-246.368,-37.001
68.85,-248.228,-37.368
68.88,-249.808,-37.62
68.91,-251.176,-37.861
68.94,-252.721,-38.113
68.98,-254.37,-38.365
69.01,-255.914,-38.662
69.04,-257.529,-39.052
69.07,-259.248,-39.407
69.11,-260.828,-39.751
69.14,-262.302,-40.117
69.17,-263.354,-40.312
69.2,-264.162,-40.427
69.24,-265.495,-40.702
69.27,-266.899,-40.77
69.3,-267.882,-40.828
69.33,-268.724,-41.114
69.37,-269.987,-41.423
69.4,-271.146,-41.561
69.43,-272.163,-41.744
69.46,-273.251,-41.996
69.5,-274.339,-42.237
69.53,-275.392,-42.408
69.56,-276.375,-42.672
69.59,-277.357,-43.004
69.63,-278.481,-43.153
69.66,-279.253,-43.21
69.69,-279.849,-43.325
69.72,-280.411,-43.405
69.76,-280.902,-43.451
69.79,-281.358,-43.439
69.82,-282.025,-43.531
69.85,-282.481,-43.52
69.89,-283.113,-43.806
69.92,-283.815,-44.104
69.95,-284.447,-44.081
69.98,-284.868,-44.322
70.02,-285.008,-44.218
70.05,-284.763,-44.207
70.08,-285.078,-44.276
70.11,-285.5,-44.241
70.15,-285.394,-44.092
70.18,-285.008,-44.092
70.21,-285.008,-44.001
70.24,-284.903,-43.772
70.28,-284.166,-43.588
70.31,-283.815,-43.6
70.34,-283.85,-43.565
70.37,-283.64,-43.531
70.41,-283.253,-43.565
70.44,-282.867,-43.611
70.47,-282.587,-43.485
70.5,-281.885,-43.291
70.54,-281.113,-43.096
70.57,-280.27,-42.958
70.6,-279.779,-42.958
70.63,-279.814,-42.901
70.67,-279.253,-42.752
70.7,-278.235,-42.729
70.73,-277.322,-42.649
70.76,-276.375,-42.454
70.8,-275.111,-42.168
70.83,-273.672,-41.79
70.86,-272.128,-41.377
70.89,-270.724,-40.976
70.93,-269.286,-40.541
70.96,-267.706,-40.22
70.99,-266.162,-39.968
71.02,-264.828,-39.659
71.06,-263.249,-39.419
71.09,-261.635,-39.224
71.12,-260.231,-38.972
71.16,-258.617,-38.685
71.19,-256.932,-38.514
71.22,-255.353,-38.284
71.25,-253.493,-38.044
71.29,-251.668,-37.78
71.32,-250.439,-37.609
71.35,-249.001,-37.437
71.38,-246.965,-37.265
71.42,-245.175,-37.288
71.45,-243.912,-37.299
71.48,-242.754,-37.15
71.51,-240.858,-36.795
71.55,-238.507,-36.555
71.58,-236.682,-36.417
71.61,-235.068,-36.154
71.64,-233.067,-35.73
71.68,-230.927,-35.363
71.71,-228.996,-35.157
71.74,-227.171,-34.905
71.77,-225.066,-34.63
71.81,-223.03,-34.412
71.84,-221.275,-34.149
71.87,-219.275,-33.863
71.9,-217.064,-33.611
71.94,-214.958,-33.393
71.97,-213.063,-33.255
72.0,-211.168,-33.049
72.03,-209.062,-32.774
72.07,-206.921,-32.557
72.1,-204.71,-32.202
72.13,-202.534,-31.984
72.16,-200.639,-31.846
72.2,-198.709,-31.571
72.23,-196.533,-31.285
72.26,-194.287,-31.148
72.29,-192.216,-30.941
72.33,-190.146,-30.586
72.36,-187.584,-30.162
72.39,-184.811,-29.762
72.42,-182.039,-29.326
72.46,-179.547,-28.834
72.49,-176.915,-28.238
72.52,-173.897,-27.619
72.55,-170.949,-27.127
72.59,-168.211,-26.703
72.62,-165.439,-26.142
72.65,-162.386,-25.42
72.68,-159.192,-24.893
72.72,-156.068,-24.595
72.75,-153.296,-24.068
72.78,-150.664,-23.598
72.81,-147.751,-23.06
72.85,-144.592,-22.533
72.88,-141.328,-22.189
72.91,-138.135,-21.754
72.94,-135.081,-21.216
72.98,-131.923,-20.689
73.01,-128.799,-20.116
73.04,-125.571,-19.474
73.07,-122.166,-18.879
73.11,-118.727,-18.409
73.14,-115.533,-17.905
73.17,-112.41,-17.412
73.2,-109.286,-16.931
73.24,-106.198,-16.473
73.27,-103.04,-16.072
73.3,-99.986,-15.774
73.33,-96.863,-15.408
73.37,-93.564,-14.972
73.4,-90.405,-14.549
73.43,-87.247,-14.067
73.46,-84.018,-13.632
73.5,-80.93,-13.231
73.53,-77.946,-12.784
73.56,-74.788,-12.338
73.59,-71.735,-11.948
73.63,-68.576,-11.547
73.66,-65.417,-11.089
73.69,-62.048,-10.665
73.72,-58.82,-10.207
73.76,-55.486,-9.703
73.79,-52.327,-9.096
73.82,-48.572,-8.546
73.85,-45.273,-7.973
73.89,-41.518,-7.412
73.92,-39.272,-6.621
73.95,-40.921,-4.571
73.98,-45.378,-0.332
74.02,-35.973,2.245
74.05,-25.409,0.435
74.08,-26.532,0.115
74.11,-22.04,1.146
74.15,-13.617,1.168
74.18,-6.317,0.916
74.21,-0.562,0.871
74.24,4.387,0.63
74.28,5.405,0.16
74.31,6.212,0.515
74.34,10.178,0.745
74.37,12.95,1.1
74.41,16.811,1.913
74.44,22.461,2.451
74.47,27.971,2.772
74.5,32.639,2.933
74.54,35.376,3.311
74.57,37.025,4.227
74.6,38.78,5.258
74.63,41.307,5.854
74.67,44.08,5.968
74.7,46.747,5.877
74.73,49.344,5.888
74.76,52.678,6.209
74.8,56.644,6.633
74.83,60.785,7.022
74.86,64.365,7.572
74.89,67.558,8.374
74.93,70.822,9.187
74.96,74.121,9.84
74.99,77.139,10.299
75.02,79.877,10.608
75.06,82.544,10.929
75.09,85.527,11.318
75.12,88.861,11.685
75.15,92.23,11.994
75.19,95.354,12.406
75.22,98.407,12.956
75.25,101.636,13.586
75.28,105.286,14.274
75.32,108.83,14.881
75.35,112.094,15.442
75.38,115.218,16.129
75.41,118.201,16.737
75.45,121.429,17.309
75.48,124.658,17.905
75.51,127.676,18.352
75.54,130.835,18.982
75.58,134.064,19.474
75.61,137.784,20.15
75.64,141.223,20.769
75.67,144.627,21.296
75.71,147.891,22.201
75.74,151.12,22.751
75.77,154.349,23.358
75.8,157.542,23.931
75.84,160.596,24.332
75.87,163.333,24.698
75.9,166.106,25.088
75.93,168.913,25.351
75.97,171.651,25.603
76.0,174.178,25.786
76.03,176.704,26.05
76.06,179.301,26.439
76.1,182.214,26.829
76.13,184.917,27.173
76.16,187.373,27.574
76.19,189.795,27.997
76.23,192.216,28.295
76.26,194.427,28.513
76.29,196.603,28.696
76.32,198.709,28.868
76.36,200.745,29.063
76.39,202.78,29.28
76.42,204.851,29.475
76.45,206.851,29.658
76.49,208.746,29.819
76.52,210.431,30.025
76.55,212.186,30.334
76.58,214.256,30.655
76.62,216.362,30.896
76.65,218.327,31.216
76.68,220.187,31.709
76.71,222.012,32.076
76.75,223.592,32.316
76.78,225.627,32.717
76.81,227.628,33.049
76.84,229.488,33.336
76.88,231.102,33.668
76.91,232.997,34.126
76.94,235.208,34.642
76.97,237.209,34.951
77.01,238.753,35.249
77.04,240.332,35.741
77.07,242.262,36.245
77.1,244.263,36.543
77.14,245.947,36.784
77.17,247.456,37.219
77.2,249.387,37.643
77.23,251.282,37.895
77.27,252.861,38.181
77.3,254.3,38.582
77.33,256.125,38.983
77.36,257.95,39.361
77.4,259.494,39.545
77.43,260.757,39.831
77.46,262.267,40.186
77.49,263.495,40.301
77.53,264.442,40.278
77.56,265.565,40.484
77.59,266.724,40.724
77.62,267.882,40.873
77.66,269.145,41.045
77.69,270.409,41.274
77.72,271.532,41.446
77.75,272.479,41.664
77.79,273.427,41.859
77.82,274.374,42.088
77.85,275.427,42.271
77.88,276.445,42.5
77.92,277.533,42.729
77.95,278.516,42.981
77.98,279.358,43.142
78.01,280.06,43.325
78.05,280.551,43.371
78.08,281.113,43.359
78.11,281.815,43.543
78.14,282.446,43.554
78.18,283.359,43.737
78.21,283.78,43.989
78.24,284.201,44.081
78.27,284.763,44.184
78.31,285.043,44.115
78.34,285.289,44.195
78.37,285.394,44.138
78.4,285.535,44.024
78.44,285.535,44.127
78.47,285.745,44.184
78.5,285.78,44.161
78.53,285.815,44.104
78.57,285.675,43.955
78.6,285.184,43.863
78.63,284.903,43.772
78.66,284.833,43.634
78.7,284.587,43.531
78.73,284.166,43.451
78.76,283.675,43.394
78.79,283.043,43.279
78.83,282.516,43.084
78.86,281.779,42.844
78.89,280.762,42.615
78.92,279.919,42.477
78.96,279.428,42.374
78.99,278.656,42.237
79.02,277.603,42.156
79.05,276.691,42.076
79.09,275.743,41.916
79.12,274.796,41.664
79.15,273.602,41.355
79.18,272.128,41.103
79.22,271.005,40.896
79.25,269.707,40.644
79.28,268.408,40.45
79.31,267.145,40.232
79.35,265.565,39.968
79.38,263.986,39.739
79.41,262.582,39.499
79.44,261.143,39.247
79.48,259.494,38.983
79.51,257.88,38.811
79.54,256.371,38.628
79.57,254.826,38.41
79.61,253.212,38.181
79.64,251.703,37.964
79.67,250.089,37.712
79.7,248.334,37.471
79.74,246.368,37.185
79.77,244.543,37.024
79.8,242.929,36.864
79.83,241.069,36.509
79.87,238.893,36.142
79.9,236.928,36.005
79.93,235.173,35.879
79.96,233.348,35.592
80.0,231.383,35.421
80.03,229.593,35.249
80.06,228.014,35.111
80.09,226.329,34.962
80.13,224.329,34.733
80.16,222.188,34.47
80.19,220.187,34.298
80.22,218.398,34.092
80.26,216.467,33.771
80.29,214.186,33.519
80.32,212.08,33.359
80.35,210.01,33.003
80.39,207.553,32.557
80.42,205.237,32.27
80.45,202.956,31.938
80.48,200.674,31.594
80.52,198.639,31.377
80.55,196.638,31.125
80.58,194.498,30.781
80.61,192.111,30.575
80.65,189.9,30.38
80.68,187.689,30.071
80.71,185.233,29.693
80.74,182.635,29.349
80.78,180.109,29.028
80.81,177.722,28.593
80.84,174.879,28.043
80.87,171.896,27.516
80.91,169.124,27.161
80.94,166.457,26.749
80.97,163.719,26.107
81.0,160.806,25.592
81.04,157.648,24.985
81.07,154.454,24.377
81.1,151.26,24.045
81.13,148.418,23.484
81.17,145.575,22.968
81.2,142.346,22.27
81.23,138.872,21.731
81.26,135.643,21.307
81.3,132.835,20.872
81.33,129.887,20.379
81.36,126.729,19.784
81.39,123.325,19.314
81.43,120.026,18.959
81.46,116.902,18.489
81.49,113.708,17.859
81.52,110.445,17.378
81.56,107.181,16.954
81.59,104.057,16.462
81.62,100.969,15.969
81.65,97.635,15.476
81.69,94.301,15.007
81.72,91.177,14.617
81.75,87.843,14.159
81.78,84.615,13.621
81.82,81.21,13.185
81.85,78.052,12.761
81.88,74.928,12.303
81.91,71.945,11.879
81.95,68.822,11.49
81.98,65.768,11.089
82.01,62.469,10.745
82.04,59.486,10.413
82.08,56.223,10.001
82.11,53.239,9.6
82.14,49.8,9.142
82.17,46.536,8.626
82.21,42.816,8.271
82.24,40.991,7.549
82.27,42.535,5.43
82.3,47.589,1.065
82.34,39.973,-2.257
82.37,27.515,-0.676
82.4,28.076,0.046
82.43,24.426,-1.042
82.47,15.758,-1.191
82.5,7.756,-0.962
82.53,1.509,-0.825
82.56,-3.369,-0.584
82.6,-4.387,-0.092
82.63,-4.597,-0.412
82.66,-8.247,-0.664
82.69,-10.353,-1.054
82.73,-13.828,-2.005
82.76,-20.004,-2.429
82.79,-25.83,-2.555
82.82,-31.094,-2.658
82.86,-34.814,-2.933
82.89,-37.061,-3.528
82.92,-38.535,-4.525
82.95,-40.675,-5.499
82.99,-43.413,-5.9
83.02,-46.08,-5.888
83.05,-48.326,-5.762
83.08,-50.923,-5.865
83.12,-54.573,-6.117
83.15,-58.644,-6.381
83.18,-62.399,-6.747
83.21,-65.944,-7.343
83.25,-69.383,-8.133
83.28,-72.577,-8.867
83.31,-75.665,-9.474
83.34,-78.578,-10.001
83.38,-81.491,-10.493
83.41,-84.579,-10.952
83.44,-87.738,-11.387
83.47,-91.142,-11.902
83.51,-94.582,-12.418
83.54,-97.916,-12.968
83.57,-101.355,-13.598
83.6,-104.829,-14.262
83.64,-108.199,-14.904
83.67,-111.497,-15.522
83.7,-114.726,-16.106
83.73,-117.85,-16.714
83.77,-121.149,-17.332
83.8,-124.588,-17.974
83.83,-127.922,-18.409
83.86,-131.291,-19.096
83.9,-134.59,-19.715
83.93,-138.029,-20.334
83.96,-141.223,-20.929
83.99,-144.312,-21.388
84.03,-147.26,-21.903
84.06,-150.418,-22.384
84.09,-153.471,-22.751
84.12,-156.384,-23.14
84.16,-159.367,-23.667
84.19,-162.526,-24.137
84.22,-165.579,-24.561
84.25,-168.457,-25.03
84.29,-171.3,-25.477
84.32,-174.213,-25.809
84.35,-176.775,-26.119
84.38,-179.301,-26.497
84.42,-181.898,-26.955
84.45,-184.741,-27.31
84.48,-187.514,-27.528
84.51,-189.865,-27.722
84.55,-191.901,-28.066
84.58,-194.217,-28.49
84.61,-196.603,-28.776
84.64,-198.849,-28.971
84.68,-200.92,-29.2
84.71,-203.061,-29.395
84.74,-204.921,-29.567
84.77,-206.711,-29.75
84.81,-208.571,-29.922
84.84,-210.361,-30.036
84.87,-211.975,-30.243
84.9,-213.835,-30.506
84.94,-215.976,-30.735
84.97,-217.836,-30.999
85.0,-219.626,-31.377
85.03,-221.591,-31.812
85.07,-223.557,-32.179
85.1,-225.276,-32.557
85.13,-227.206,-33.015
85.16,-229.347,-33.404
85.2,-231.137,-33.668
85.23,-232.962,-34.149
85.26,-235.033,-34.699
85.29,-236.998,-35.065
85.33,-238.402,-35.295
85.36,-240.016,-35.673
85.39,-241.911,-36.119
85.43,-243.736,-36.291
85.46,-245.105,-36.566
85.49,-246.719,-37.001
85.52,-248.579,-37.391
85.56,-250.404,-37.666
85.59,-251.843,-37.998
85.62,-253.282,-38.399
85.65,-255.072,-38.777
85.69,-256.827,-38.995
85.72,-258.231,-39.27
85.75,-259.705,-39.579
85.78,-261.108,-39.888
85.82,-262.372,-40.129
85.85,-263.495,-40.255
85.88,-264.583,-40.404
85.91,-265.706,-40.679
85.95,-267.11,-40.999
85.98,-268.654,-41.263
86.01,-269.952,-41.526
86.04,-271.111,-41.824
86.08,-272.163,-42.053
86.11,-273.146,-42.271
86.14,-274.234,-42.477
86.17,-275.217,-42.626
86.21,-276.305,-42.741
86.24,-277.287,-42.912
86.27,-278.165,-43.107
86.3,-278.796,-43.313
86.34,-279.428,-43.417
86.37,-279.99,-43.462
86.4,-280.551,-43.543
86.43,-281.148,-43.451
86.47,-281.639,-43.428
86.5,-281.99,-43.531
86.53,-282.341,-43.657
86.56,-283.253,-44.012
86.6,-284.026,-43.955
86.63,-284.482,-44.127
86.66,-284.657,-44.344
86.69,-284.798,-44.31
86.73,-285.114,-44.333
86.76,-285.64,-44.31
86.79,-285.605,-44.23
86.82,-285.359,-44.218
86.86,-285.043,-44.253
86.89,-285.043,-44.092
86.92,-284.692,-43.783
86.95,-283.99,-43.543
86.99,-283.534,-43.474
87.02,-283.394,-43.462
87.05,-283.183,-43.394
87.08,-282.867,-43.359
87.12,-282.411,-43.325
87.15,-281.709,-43.256
87.18,-281.042,-43.165
87.21,-280.481,-43.004
87.25,-279.814,-42.832
87.28,-279.218,-42.752
87.31,-278.621,-42.729
87.34,-277.989,-42.66
87.38,-277.182,-42.569
87.41,-276.094,-42.397
87.44,-274.866,-42.214
87.47,-273.743,-41.973
87.51,-272.585,-41.629
87.54,-271.286,-41.286
87.57,-269.917,-40.988
87.6,-268.513,-40.77
87.64,-267.32,-40.53
87.67,-265.987,-40.14
87.7,-264.407,-39.854
87.73,-262.968,-39.648
87.77,-261.459,-39.43
87.8,-259.845,-39.212
87.83,-258.266,-38.983
87.86,-256.862,-38.777
87.9,-255.458,-38.502
87.93,-253.423,-38.147
87.96,-251.668,-38.01
87.99,-250.51,-37.941
88.03,-248.755,-37.609
88.06,-246.684,-37.357
88.09,-244.719,-37.208
88.12,-243.069,-37.001
88.16,-241.35,-36.772
88.19,-239.525,-36.429
88.22,-237.7,-36.096
88.25,-235.77,-35.936
88.29,-233.839,-35.787
88.32,-231.979,-35.512
88.35,-230.26,-35.306
88.38,-228.575,-35.237
88.42,-226.61,-34.997
88.45,-224.329,-34.733
88.48,-222.433,-34.561
88.51,-220.819,-34.286
88.55,-218.678,-33.908
88.58,-216.432,-33.656
88.61,-214.467,-33.485
88.64,-212.607,-33.29
88.68,-210.466,-33.003
88.71,-208.185,-32.66
88.74,-205.904,-32.373
88.77,-203.763,-32.041
88.81,-201.482,-31.64
88.84,-199.165,-31.297
88.87,-196.919,-31.056
88.9,-194.673,-30.758
88.94,-192.497,-30.437
88.97,-190.146,-30.162
89.0,-187.83,-29.853
89.03,-185.373,-29.487
89.07,-182.846,-29.109
89.1,-180.249,-28.742
89.13,-177.757,-28.364
89.16,-175.16,-27.929
89.2,-172.353,-27.47
89.23,-169.615,-27.104
89.26,-166.983,-26.714
89.29,-164.0,-26.119
89.33,-160.947,-25.512
89.36,-158.174,-25.214
89.39,-155.402,-24.607
89.42,-152.454,-23.885
89.46,-149.19,-23.53
89.49,-146.101,-23.014
89.52,-143.048,-22.476
89.55,-139.925,-21.914
89.59,-136.696,-21.376
89.62,-133.537,-20.861
89.65,-130.519,-20.46
89.68,-127.676,-20.024
89.72,-124.553,-19.44
89.75,-121.078,-18.936
89.78,-117.639,-18.489
89.81,-114.34,-17.962
89.85,-111.252,-17.481
89.88,-108.093,-16.954
89.91,-104.829,-16.37
89.94,-101.46,-15.946
89.98,-98.302,-15.534
90.01,-95.284,-14.984
90.04,-92.125,-14.48
90.07,-88.826,-14.033
90.11,-85.422,-13.552
90.14,-81.982,-13.105
90.17,-78.894,-12.716
90.2,-75.7,-12.212
90.24,-72.542,-11.776
90.27,-69.348,-11.433
90.3,-66.365,-10.997
90.33,-63.312,-10.573
90.37,-60.153,-10.23
90.4,-56.819,-9.829
90.43,-53.661,-9.394
90.46,-51.099,-9.348
90.5,-49.063,-9.348
90.53,-46.817,-8.798
90.56,-44.501,-8.328
90.59,-45.799,-6.908
90.63,-50.362,-3.391
90.66,-50.256,1.26
90.69,-36.113,1.959
90.72,-29.41,0.183
90.76,-27.585,0.836
90.79,-18.109,1.524
90.82,-7.581,1.294
90.85,1.263,1.123
90.89,6.528,0.493
90.92,6.247,0.011
90.95,6.949,0.664
90.98,11.722,0.687
91.02,13.055,1.042
91.05,15.617,2.486
91.08,22.356,3.104
91.11,29.305,3.242
91.15,34.428,3.345
91.18,36.639,3.803
91.21,37.833,5.292
91.24,40.184,6.999
91.28,43.799,7.652
91.31,46.571,7.263
91.34,47.835,6.736
91.37,49.309,6.69
91.41,52.432,6.793
91.44,56.433,6.61
91.47,59.978,6.346
91.5,62.961,6.644
91.54,66.084,7.366
91.57,69.664,8.156
91.6,73.209,8.821
91.63,76.402,9.382
91.67,79.21,9.966
91.7,82.193,10.585
91.73,85.281,11.123
91.76,88.545,11.627
91.8,92.09,12.166
91.83,95.494,12.567
91.86,98.547,13.036
91.89,101.811,13.815
91.93,105.321,14.606
91.96,109.006,15.144
91.99,112.445,15.728
92.02,115.709,16.45
92.06,119.043,17.103
92.09,122.202,17.664
92.12,125.36,18.249
92.15,128.835,18.902
92.19,132.484,19.589
92.22,136.205,20.127
92.25,139.468,20.609
92.28,142.627,21.261
92.32,145.75,21.823
92.35,148.769,22.235
92.38,151.857,22.762
92.41,155.016,23.243
92.45,158.034,23.564
92.48,160.841,23.885
92.51,163.579,24.366
92.54,166.527,24.847
92.58,169.615,25.237
92.61,172.528,25.58
92.64,175.09,25.844
92.67,177.547,26.176
92.71,180.109,26.646
92.74,182.671,26.932
92.77,185.162,27.104
92.8,187.584,27.367
92.84,189.935,27.677
92.87,192.181,27.871
92.9,194.252,28.146
92.93,196.533,28.41
92.97,198.955,28.742
93.0,201.411,28.994
93.03,203.482,29.223
93.06,205.447,29.475
93.1,207.448,29.853
93.13,209.483,30.082
93.16,210.782,30.14
93.19,209.554,28.948
93.23,206.219,27.104
93.26,203.728,26.073
93.29,203.517,25.111
93.32,203.166,23.404
93.36,201.271,22.522
93.39,200.815,23.197
93.42,203.658,24.675
93.45,207.799,26.543
93.49,212.08,28.822
93.52,217.52,31.228
93.55,223.872,33.129
93.58,228.961,34.676
93.62,231.769,36.268
93.65,233.629,37.769
93.68,236.472,38.914
93.71,239.63,39.396
93.75,241.595,39.304
93.78,242.929,39.327
93.81,245.105,39.648
93.84,247.948,39.911
93.88,250.369,40.117
93.91,252.405,40.553
93.94,254.651,41.068
93.97,256.827,41.503
94.01,258.757,41.767
94.04,260.056,41.79
94.07,261.179,41.801
94.1,262.372,41.767
94.14,263.46,41.469
94.17,264.162,41.183
94.2,265.109,41.206
94.23,266.478,41.217
94.27,267.882,41.32
94.3,269.25,41.572
94.33,270.724,41.836
94.36,271.848,42.076
94.4,272.865,42.351
94.43,273.918,42.546
94.46,274.971,42.615
94.49,275.954,42.729
94.53,276.796,42.855
94.56,277.779,43.027
94.59,278.691,43.187
94.62,279.604,43.279
94.66,280.235,43.325
94.69,280.867,43.371
94.72,281.358,43.359
94.75,281.744,43.336
94.79,282.271,43.291
94.82,282.762,43.371
94.85,283.359,43.451
94.88,283.71,43.439
94.92,283.745,43.554
94.95,283.99,43.588
94.98,284.166,43.417
95.01,283.885,43.291
95.05,283.78,43.268
95.08,284.096,43.256
95.11,284.306,43.199
95.14,284.341,43.279
95.18,284.412,43.417
95.21,284.412,43.462
95.24,284.166,43.497
95.27,283.92,43.554
95.31,284.026,43.577
95.34,284.096,43.6
95.37,283.955,43.646
95.4,283.78,43.703
95.44,283.64,43.76
95.47,283.148,43.646
95.5,282.411,43.497
95.53,281.744,43.325
95.57,281.042,43.119
95.6,280.376,42.97
95.63,279.744,42.764
95.66,279.042,42.557
95.7,278.024,42.397
95.73,277.007,42.214
95.76,275.989,41.939
95.79,274.69,41.618
95.83,273.251,41.4
95.86,272.198,41.148
95.89,271.005,40.805
95.92,269.601,40.576
95.96,268.233,40.45
95.99,267.039,40.209
96.02,265.601,39.934
96.05,264.127,39.716
96.09,262.582,39.579
96.12,261.179,39.35
96.15,259.669,39.075
96.18,257.985,38.869
96.22,256.511,38.662
96.25,254.967,38.33
96.28,253.072,38.021
96.31,251.317,37.826
96.35,249.632,37.689
96.38,247.983,37.471
96.41,246.263,37.208
96.44,244.614,37.047
96.48,242.929,36.898
96.51,241.104,36.726
96.54,239.279,36.566
96.57,237.665,36.44
96.61,236.05,36.268
96.64,234.155,35.925
96.67,232.26,35.684
96.7,230.505,35.615
96.74,228.645,35.317
96.77,226.259,34.836
96.8,223.907,34.481
96.83,221.802,34.183
96.87,219.485,33.679
96.9,216.959,33.244
96.93,214.607,32.877
96.96,212.677,32.751
97.0,210.852,32.545
97.03,208.817,32.247
97.06,206.325,31.972
97.09,204.324,31.927
97.13,202.464,31.824
97.16,200.499,31.503
97.19,198.007,31.239
97.22,195.901,31.102
97.26,194.041,30.941
97.29,191.866,30.632
97.32,189.233,30.231
97.35,186.812,29.968
97.39,184.601,29.75
97.42,182.214,29.223
97.45,179.407,28.811
97.48,176.669,28.478
97.52,174.037,28.009
97.55,171.335,27.425
97.58,168.492,26.932
97.61,165.579,26.405
97.65,162.772,25.867
97.68,160.069,25.408
97.71,157.227,24.916
97.74,154.103,24.4
97.78,151.12,23.988
97.81,148.137,23.484
97.84,144.943,22.819
97.87,141.539,22.224
97.91,138.24,21.617
97.94,135.046,20.964
97.97,131.747,20.334
98.0,128.378,19.795
98.04,125.29,19.337
98.07,122.272,18.867
98.1,119.078,18.375
98.13,115.709,17.859
98.17,112.234,17.424
98.2,109.146,17.103
98.23,106.374,16.656
98.26,103.25,16.152
98.3,100.021,15.728
98.33,96.547,15.305
98.36,93.213,14.892
98.39,90.054,14.514
98.43,86.861,13.953
98.46,83.597,13.449
98.49,80.368,13.048
98.52,77.245,12.59
98.56,74.121,12.109
98.59,70.857,11.719
98.62,67.699,11.352
98.65,64.61,10.917
98.69,61.522,10.493
98.72,58.258,10.115
98.75,55.17,9.691
98.78,51.871,9.279
98.82,48.642,8.821
98.85,44.852,8.271
98.88,41.623,7.687
98.91,41.307,6.209
98.95,46.536,2.44
98.98,43.553,-2.016
99.01,28.427,-1.34
99.04,27.164,0.321
99.08,26.462,-0.79
99.11,18.776,-1.134
99.14,11.476,-0.894
99.17,5.756,-0.756
99.21,0.877,-0.71
99.24,-3.123,-0.527
99.27,-4.106,-0.126
99.3,-4.738,-0.412
99.34,-8.318,-0.722
99.37,-10.458,-1.294
99.4,-15.196,-1.925
99.43,-20.741,-2.051
99.47,-26.076,-2.325
99.5,-31.165,-2.623
99.53,-35.551,-3.001
99.57,-38.745,-3.471
99.6,-40.535,-4.17
99.63,-41.869,-5.052
99.66,-43.834,-5.751
99.7,-46.536,-5.968
99.73,-49.625,-5.934
99.76,-52.748,-6.003
99.79,-56.082,-6.255
99.83,-59.802,-6.713
99.86,-63.768,-7.366
99.89,-67.909,-8.088
99.92,-71.735,-8.798
99.96,-74.998,-9.474
99.99,-77.631,-10.127
100.02,-80.333,-10.722
100.05,-83.281,-11.238
100.09,-86.264,-11.501
100.12,-89.247,-11.719
100.15,-92.476,-12.074
100.18,-95.88,-12.521
100.22,-99.425,-13.002
100.25,-103.004,-13.655
100.28,-106.514,-14.354
100.31,-110.023,-15.121
100.35,-113.463,-15.797
100.38,-116.621,-16.404
100.41,-119.394,-16.897
100.44,-122.482,-17.561
100.48,-125.816,-18.031
100.51,-129.15,-18.34
100.54,-132.414,-18.947
100.57,-135.818,-19.486
100.61,-139.363,-20.104
100.64,-142.767,-20.849
100.67,-146.066,-21.536
100.7,-149.33,-22.201
100.74,-152.454,-22.854
100.77,-155.331,-23.323
100.8,-158.244,-23.736
100.83,-161.298,-24.137
100.87,-164.316,-24.4
100.9,-166.948,-24.572
100.93,-169.44,-24.904
100.96,-172.072,-25.282
101.0,-174.879,-25.603
101.03,-177.722,-25.89
101.06,-180.354,-26.268
101.09,-182.951,-26.657
101.13,-185.619,-27.035
101.16,-188.075,-27.402
101.19,-190.427,-27.757
101.22,-192.848,-28.089
101.26,-195.2,-28.387
101.29,-197.305,-28.582
101.32,-199.446,-28.879
101.35,-201.692,-29.166
101.39,-203.868,-29.292
101.42,-205.869,-29.441
101.45,-207.799,-29.693
101.48,-209.483,-29.876
101.52,-211.238,-30.059
101.55,-212.923,-30.323
101.58,-214.923,-30.552
101.61,-216.994,-30.747
101.65,-218.784,-31.067
101.68,-220.573,-31.468
101.71,-222.433,-31.869
101.74,-224.539,-32.293
101.78,-226.575,-32.751
101.81,-228.751,-33.244
101.84,-230.786,-33.691
101.87,-232.681,-34.092
101.91,-234.612,-34.504
101.94,-236.366,-34.917
101.97,-238.121,-35.26
102.0,-239.665,-35.489
102.04,-241.385,-35.753
102.07,-243.21,-36.085
102.1,-244.93,-36.326
102.13,-246.509,-36.623
102.17,-248.193,-37.024
102.2,-249.983,-37.46
102.23,-251.598,-37.815
102.26,-253.142,-38.09
102.3,-254.616,-38.376
102.33,-256.055,-38.685
102.36,-257.529,-38.903
102.39,-258.862,-39.155
102.43,-260.477,-39.453
102.46,-262.161,-39.705
102.49,-262.898,-39.865
102.52,-263.635,-40.14
102.56,-265.109,-40.461
102.59,-266.759,-40.45
102.62,-268.057,-40.576
102.65,-269.25,-40.988
102.69,-270.409,-41.297
102.72,-271.497,-41.469
102.75,-272.374,-41.721
102.78,-273.567,-41.962
102.82,-274.69,-42.065
102.85,-275.462,-42.294
102.88,-276.55,-42.603
102.91,-277.603,-42.764
102.95,-278.516,-42.958
102.98,-279.112,-43.153
103.01,-279.814,-43.348
103.04,-280.446,-43.268
103.08,-280.867,-43.256
103.11,-281.358,-43.405
103.14,-282.13,-43.52
103.17,-282.552,-43.485
103.21,-283.394,-43.703
103.24,-284.236,-43.955
103.27,-284.903,-44.069
103.3,-285.008,-44.264
103.34,-284.763,-44.195
103.37,-284.868,-44.276
103.4,-285.5,-44.15
103.43,-285.605,-43.932
103.47,-285.078,-43.783
103.5,-284.622,-43.737
103.53,-284.587,-43.646
103.56,-284.341,-43.428
103.6,-283.78,-43.245
103.63,-283.569,-43.153
103.66,-283.569,-43.119
103.69,-283.394,-43.107
103.73,-283.078,-43.153
103.76,-282.692,-43.268
103.79,-282.306,-43.222
103.82,-281.779,-43.061
103.86,-281.042,-42.89
103.89,-280.13,-42.741
103.92,-279.358,-42.683
103.95,-278.937,-42.638
103.99,-278.481,-42.5
104.02,-277.779,-42.317
104.05,-276.585,-42.156
104.08,-275.392,-42.042
104.12,-274.374,-41.79
104.15,-273.111,-41.481
104.18,-271.918,-41.206
104.21,-270.549,-40.954
104.25,-269.25,-40.747
104.28,-268.127,-40.541
104.31,-266.759,-40.186
104.34,-265.144,-39.831
104.38,-263.53,-39.636
104.41,-262.091,-39.396
104.44,-260.617,-39.086
104.47,-259.003,-38.8
104.51,-257.318,-38.651
104.54,-255.949,-38.468
104.57,-254.265,-38.262
104.6,-252.65,-38.032
104.64,-251.317,-37.815
104.67,-249.562,-37.574
104.7,-247.491,-37.391
104.73,-245.877,-37.242
104.77,-244.649,-37.208
104.8,-243.105,-36.99
104.83,-240.999,-36.646
104.86,-238.823,-36.452
104.9,-237.209,-36.291
104.93,-235.699,-35.982
104.96,-233.594,-35.558
104.99,-231.383,-35.306
105.03,-229.382,-35.18
105.06,-227.487,-34.917
105.09,-225.627,-34.538
105.12,-223.416,-34.195
105.16,-221.17,-33.954
105.19,-219.099,-33.702
105.22,-217.064,-33.416
105.25,-215.099,-33.152
105.29,-213.063,-32.981
105.32,-210.957,-32.728
105.35,-208.852,-32.454
105.38,-206.606,-32.224
105.42,-204.43,-32.007
105.45,-202.359,-31.663
105.48,-200.113,-31.388
105.51,-197.621,-30.964
105.55,-195.515,-30.77
105.58,-193.515,-30.598
105.61,-191.444,-30.231
105.64,-188.672,-29.876
105.68,-186.25,-29.635
105.71,-184.285,-29.418
105.74,-182.039,-29.005
105.77,-179.231,-28.616
105.81,-176.529,-28.215
105.84,-173.967,-27.871
105.87,-171.37,-27.344
105.9,-168.527,-26.863
105.94,-165.439,-26.348
105.97,-162.596,-25.786
106.0,-159.789,-25.317
106.03,-157.016,-24.893
106.07,-154.314,-24.423
106.1,-151.682,-24.045
106.13,-148.874,-23.598
106.16,-145.715,-23.071
106.2,-142.381,-22.556
106.23,-139.082,-22.006
106.26,-135.854,-21.422
106.29,-132.449,-20.78
106.33,-129.15,-20.15
106.36,-125.887,-19.532
106.39,-122.517,-18.879
106.42,-119.008,-18.272
106.46,-115.639,-17.71
106.49,-112.621,-17.206
106.52,-109.462,-16.714
106.55,-106.023,-16.255
106.59,-102.689,-15.912
106.62,-99.6,-15.614
106.65,-96.758,-15.167
106.68,-93.739,-14.606
106.72,-90.335,-14.113
106.75,-86.755,-13.747
106.78,-83.562,-13.403
106.81,-80.508,-12.991
106.85,-77.525,-12.475
106.88,-74.191,-12.04
106.91,-70.998,-11.616
106.94,-67.769,-11.146
106.98,-64.68,-10.631
107.01,-61.346,-10.195
107.04,-58.363,-9.863
107.07,-55.31,-9.577
107.11,-52.643,-9.21
107.14,-49.59,-8.878
107.17,-46.677,-8.489
107.2,-42.781,-8.088
107.24,-40.675,-7.423
107.27,-42.57,-5.247
107.3,-47.308,-0.619
107.33,-37.341,2.555
107.37,-24.251,0.642
107.4,-25.023,0.057
107.43,-20.355,1.237
107.46,-10.915,1.26
107.5,-3.369,0.905
107.53,2.036,0.802
107.56,4.984,0.275
107.59,4.527,0.229
107.63,7.44,0.813
107.66,12.073,0.687
107.69,14.389,1.214
107.72,18.881,2.177
107.76,24.532,2.623
107.79,29.655,2.715
107.82,32.814,2.726
107.85,34.183,3.104
107.89,35.13,3.975
107.92,37.096,4.685
107.95,39.903,4.914
107.98,42.816,4.834
108.02,45.624,4.811
108.05,48.817,5.121
108.08,52.748,5.705
108.11,57.1,6.335
108.15,61.206,6.988
108.18,64.716,7.813
108.21,68.015,8.729
108.24,71.068,9.52
108.28,74.121,10.104
108.31,76.929,10.402
108.34,79.526,10.642
108.37,82.474,10.929
108.41,85.773,11.226
108.44,89.282,11.559
108.47,92.722,12.017
108.5,96.126,12.578
108.54,99.319,13.197
108.57,102.618,13.861
108.6,105.742,14.468
108.63,108.655,14.972
108.67,111.533,15.476
108.7,114.551,16.003
108.73,117.709,16.427
108.76,120.833,16.805
108.8,124.202,17.493
108.83,127.852,18.111
108.86,131.572,18.787
108.89,135.011,19.623
108.93,138.451,20.334
108.96,141.785,21.101
108.99,145.084,21.788
109.02,148.347,22.35
109.06,151.366,22.842
109.09,154.349,23.335
109.12,157.437,23.747
109.15,160.35,24.102
109.19,163.263,24.492
109.22,166.386,24.893
109.25,169.51,25.225
109.28,172.282,25.512
109.32,174.739,25.798
109.35,177.161,26.222
109.38,179.968,26.68
109.41,182.776,26.932
109.45,185.233,27.15
109.48,187.619,27.493
109.51,189.865,27.826
109.54,192.252,28.1
109.58,194.568,28.284
109.61,196.709,28.478
109.64,198.709,28.731
109.67,200.92,29.063
109.71,202.921,29.177
109.74,204.254,29.051
109.77,204.991,28.879
109.8,205.798,28.696
109.84,206.711,28.478
109.87,208.08,28.215
109.9,209.624,28.089
109.93,211.273,28.352
109.97,213.589,29.028
110.0,216.713,29.922
110.03,219.942,30.77
110.06,222.644,31.801
110.1,225.311,33.061
110.13,228.294,34.206
110.16,231.172,35.1
110.19,233.664,35.695
110.23,235.559,36.119
110.26,237.314,36.532
110.29,239.279,36.818
110.32,241.069,36.841
110.36,242.578,36.898
110.39,244.087,37.001
110.42,245.631,37.116
110.45,247.281,37.288
110.49,248.965,37.471
110.52,250.439,37.597
110.55,251.703,37.849
110.58,253.282,38.101
110.62,254.791,38.273
110.65,256.16,38.479
110.68,257.599,38.708
110.71,259.003,38.949
110.75,260.406,39.304
110.78,261.916,39.636
110.81,263.249,39.808
110.84,264.337,39.945
110.88,265.495,40.278
110.91,266.969,40.541
110.94,268.303,40.759
110.97,269.566,41.068
111.01,270.865,41.286
111.04,271.742,41.458
111.07,272.725,41.675
111.1,273.918,41.79
111.14,274.866,41.916
111.17,275.743,42.145
111.2,276.796,42.42
111.23,277.919,42.615
111.27,278.831,42.832
111.3,279.604,43.016
111.33,280.2,43.107
111.36,280.867,43.245
111.4,281.358,43.291
111.43,281.99,43.279
111.46,282.411,43.348
111.49,283.078,43.451
111.53,283.815,43.611
111.56,284.412,43.703
111.59,284.587,43.76
111.62,284.973,43.806
111.66,285.71,43.932
111.69,285.815,43.852
111.72,285.851,43.932
111.75,286.272,44.127
111.79,286.728,44.184
111.82,286.728,44.115
111.85,286.517,44.069
111.88,286.342,44.001
111.92,285.956,43.829
111.95,285.254,43.577
111.98,284.763,43.497
112.01,284.657,43.382
112.05,284.306,43.165
112.08,283.71,42.993
112.11,283.078,42.844
112.14,282.341,42.741
112.18,281.569,42.615
112.21,280.797,42.408
112.24,280.13,42.26
112.27,279.358,42.156
112.31,278.551,42.03
112.34,277.638,41.916
112.37,276.62,41.813
112.4,275.848,41.595
112.44,274.62,41.297
112.47,273.146,40.976
112.5,271.812,40.828
112.53,270.795,40.69
112.57,269.566,40.45
112.6,268.373,40.22
112.63,267.004,39.991
112.66,265.565,39.739
112.7,264.021,39.487
112.73,262.512,39.201
112.76,260.898,38.892
112.79,259.213,38.617
112.83,257.599,38.365
112.86,255.984,38.078
112.89,254.23,37.826
112.92,252.58,37.723
112.96,251.141,37.609
112.99,249.492,37.357
113.02,247.667,37.116
113.05,245.807,36.944
113.09,244.157,36.83
113.12,242.368,36.543
113.15,240.227,36.188
113.18,238.156,35.925
113.22,236.401,35.695
113.25,234.401,35.363
113.28,232.26,35.065
113.31,230.225,34.825
113.35,228.365,34.642
113.38,226.926,34.607
113.41,225.171,34.39
113.44,222.995,34.16
113.48,220.924,34.115
113.51,219.135,34.046
113.54,217.38,33.702
113.57,215.239,33.416
113.61,213.098,33.244
113.64,211.098,32.969
113.67,209.027,32.706
113.7,207.097,32.511
113.74,205.167,32.259
113.77,202.991,31.984
113.8,200.78,31.801
113.84,198.92,31.663
113.87,196.989,31.365
113.9,194.849,31.136
113.93,192.567,30.93
113.97,190.321,30.621
114.0,187.9,30.266
114.03,185.513,29.888
114.06,182.916,29.429
114.1,180.389,29.051
114.13,177.792,28.627
114.16,175.125,28.055
114.19,172.282,27.539
114.23,169.51,27.195
114.26,166.597,26.531
114.29,163.649,25.924
114.32,160.841,25.592
114.36,158.174,25.053
114.39,155.367,24.572
114.42,152.138,24.171
114.45,149.155,23.782
114.49,146.242,23.323
114.52,143.188,22.613
114.55,139.784,21.972
114.58,136.31,21.433
114.62,133.221,20.941
114.65,130.133,20.311
114.68,126.869,19.646
114.71,123.465,19.188
114.75,120.131,18.718
114.78,116.902,18.146
114.81,113.603,17.561
114.84,110.199,17.057
114.88,106.935,16.576
114.91,103.847,16.164
114.94,100.793,15.717
114.97,97.635,15.247
115.01,94.406,14.835
115.04,91.177,14.457
115.07,87.878,13.999
115.1,84.579,13.54
115.14,81.21,13.105
115.17,78.087,12.658
115.2,74.893,12.235
115.23,71.77,11.845
115.27,68.576,11.41
115.3,65.558,11.02
115.33,62.364,10.642
115.36,59.381,10.218
115.4,56.012,9.863
115.43,53.029,9.542
115.46,49.73,9.142
115.49,46.817,8.683
115.53,43.132,8.214
115.56,40.605,7.561
115.59,41.272,5.877
115.62,46.887,1.936
115.66,42.114,-2.108
115.69,27.971,-1.054
115.72,27.48,0.195
115.75,25.128,-0.985
115.79,16.214,-1.26
115.82,8.142,-0.928
115.85,2.141,-0.825
115.88,-3.053,-0.676
115.92,-4.773,-0.115
115.95,-4.738,-0.355
115.98,-8.493,-0.699
116.01,-11.09,-1.031
116.05,-14.249,-2.039
116.08,-20.601,-2.623
116.11,-26.848,-2.83
116.14,-32.393,-2.933
116.18,-35.938,-3.162
116.21,-37.622,-4.021
116.24,-38.85,-5.361
116.27,-41.132,-6.278
116.31,-43.939,-6.358
116.34,-46.431,-6.06
116.37,-48.888,-5.945
116.4,-51.801,-6.049
116.44,-55.521,-6.278
116.47,-59.486,-6.644
