Trigger_Date,2023/06/28
Trigger_Time,T 14:07:14.993 PDT
Samples_Per_Cycle,512
Microseconds_Per_Sample,32.557
Time (ms),Voltage (V),Current (A)
-16.67,0.948,2.784
-16.64,3.79,3.597
-16.6,5.861,3.712
-16.57,7.686,4.754
-16.54,11.581,5.819
-16.51,16.776,5.877
-16.47,21.97,5.361
-16.44,26.707,5.029
-16.41,31.2,5.075
-16.38,35.551,5.098
-16.34,38.85,4.754
-16.31,40.605,4.296
-16.28,41.658,4.33
-16.25,42.711,5.063
-16.21,44.185,6.346
-16.18,46.712,7.744
-16.15,49.976,8.981
-16.12,53.731,10.047
-16.08,57.977,10.814
-16.05,62.469,11.226
-16.02,66.751,11.49
-15.99,71.033,11.57
-15.95,74.683,11.559
-15.92,77.455,11.822
-15.89,80.403,12.28
-15.86,83.211,12.727
-15.82,85.703,13.369
-15.79,88.545,14.102
-15.76,91.844,14.823
-15.72,95.003,15.488
-15.69,98.337,16.049
-15.66,101.952,16.485
-15.63,105.356,16.989
-15.59,109.041,17.538
-15.56,112.761,18.088
-15.53,115.919,18.352
-15.5,119.113,18.627
-15.46,122.307,18.844
-15.43,124.834,19.142
-15.4,127.396,19.715
-15.37,130.414,20.208
-15.33,133.186,20.929
-15.3,136.24,21.662
-15.27,139.609,22.086
-15.24,142.627,22.419
-15.2,145.68,22.819
-15.17,148.909,23.14
-15.14,151.646,23.495
-15.11,154.349,23.862
-15.07,157.262,24.137
-15.04,159.859,24.469
-15.01,162.28,24.962
-14.98,165.053,25.305
-14.94,167.369,25.58
-14.91,169.51,25.993
-14.88,172.107,26.508
-14.85,174.915,27.058
-14.81,177.617,27.688
-14.78,180.811,28.135
-14.75,183.723,28.433
-14.72,186.356,28.685
-14.68,189.058,28.788
-14.65,191.269,28.799
-14.62,193.164,29.074
-14.59,195.27,29.475
-14.55,197.34,29.853
-14.52,199.165,30.22
-14.49,201.096,30.632
-14.46,203.131,30.781
-14.42,204.71,30.941
-14.39,206.465,31.182
-14.36,208.325,31.503
-14.32,210.185,31.915
-14.29,212.186,32.282
-14.26,214.256,32.58
-14.23,216.222,32.946
-14.19,218.117,33.084
-14.16,220.047,33.118
-14.13,221.696,33.324
-14.1,223.451,33.691
-14.06,225.276,33.977
-14.03,226.996,34.241
-14.0,228.716,34.504
-13.97,230.576,34.79
-13.93,232.19,34.928
-13.9,233.734,35.18
-13.87,235.489,35.432
-13.84,237.068,35.673
-13.8,238.788,36.005
-13.77,240.578,36.2
-13.74,242.192,36.486
-13.71,243.877,36.83
-13.67,245.631,36.99
-13.64,247.316,37.036
-13.61,248.685,37.242
-13.58,250.229,37.494
-13.54,251.738,37.689
-13.51,253.177,37.975
-13.48,254.756,38.227
-13.45,256.335,38.433
-13.41,257.669,38.548
-13.38,258.932,38.525
-13.35,260.02,38.559
-13.32,261.003,38.788
-13.28,262.267,39.063
-13.25,263.425,39.315
-13.22,264.583,39.567
-13.19,265.811,39.819
-13.15,267.11,39.9
-13.12,268.303,39.991
-13.09,269.391,40.094
-13.06,270.514,40.186
-13.02,271.497,40.381
-12.99,272.69,40.667
-12.96,273.988,40.805
-12.93,274.901,40.862
-12.89,275.708,40.828
-12.86,276.445,40.793
-12.83,276.936,40.793
-12.79,277.287,40.862
-12.76,277.744,40.954
-12.73,278.27,41.206
-12.7,278.796,41.355
-12.66,279.358,41.423
-12.63,279.814,41.309
-12.6,280.165,41.274
-12.57,280.551,41.515
-12.53,281.007,41.492
-12.5,281.358,41.538
-12.47,281.815,41.744
-12.44,282.341,41.778
-12.4,282.481,41.607
-12.37,282.552,41.481
-12.34,282.481,41.412
-12.31,282.306,41.263
-12.27,281.955,41.091
-12.24,281.464,41.137
-12.21,281.007,41.251
-12.18,280.692,41.263
-12.14,280.341,41.148
-12.11,279.674,40.908
-12.08,278.831,40.541
-12.05,277.638,40.209
-12.01,276.41,40.106
-11.98,275.392,40.186
-11.95,274.409,40.232
-11.92,273.497,40.129
-11.88,272.374,39.842
-11.85,271.111,39.487
-11.82,269.672,39.052
-11.79,267.952,38.617
-11.75,266.092,38.388
-11.72,264.548,38.33
-11.69,263.004,38.353
-11.66,261.67,38.319
-11.62,260.477,38.158
-11.59,259.108,37.826
-11.56,257.634,37.494
-11.53,256.195,37.231
-11.49,254.721,37.047
-11.46,253.352,36.933
-11.43,252.019,36.807
-11.39,250.896,36.658
-11.36,249.562,36.486
-11.33,248.193,36.165
-11.3,246.649,35.661
-11.26,244.719,35.214
-11.23,242.964,34.997
-11.2,241.139,34.836
-11.17,239.209,34.687
-11.13,237.349,34.424
-11.1,235.454,34.115
-11.07,233.418,33.851
-11.04,231.488,33.611
-11.0,229.663,33.37
-10.97,227.698,33.095
-10.94,226.013,32.9
-10.91,224.223,32.648
-10.87,222.433,32.328
-10.84,220.819,32.156
-10.81,219.24,31.892
-10.78,217.38,31.491
-10.74,215.414,31.125
-10.71,213.625,30.793
-10.68,211.589,30.518
-10.65,209.694,30.323
-10.61,207.869,30.128
-10.58,205.904,29.819
-10.55,203.728,29.383
-10.52,201.552,28.948
-10.48,199.271,28.582
-10.45,197.095,28.375
-10.42,195.094,28.204
-10.39,193.059,27.952
-10.35,190.988,27.642
-10.32,188.953,27.321
-10.29,186.917,26.898
-10.26,184.636,26.394
-10.22,182.285,25.947
-10.19,179.863,25.489
-10.16,177.161,25.156
-10.13,174.704,24.927
-10.09,172.388,24.687
-10.06,169.826,24.251
-10.03,167.229,23.782
-9.99,164.772,23.404
-9.96,162.14,22.991
-9.93,159.367,22.51
-9.9,156.595,22.04
-9.86,153.577,21.422
-9.83,150.769,21.239
-9.8,148.172,21.032
-9.77,145.364,20.689
-9.73,142.487,20.104
-9.7,139.784,19.669
-9.67,137.082,19.36
-9.64,134.415,18.982
-9.6,131.888,18.661
-9.57,129.045,18.123
-9.54,125.992,17.538
-9.51,123.044,16.966
-9.47,119.85,16.427
-9.44,116.621,15.992
-9.41,113.533,15.568
-9.38,110.269,15.144
-9.34,107.04,14.801
-9.31,104.233,14.331
-9.28,101.25,13.666
-9.25,97.67,13.002
-9.21,94.09,12.292
-9.18,90.3,11.627
-9.15,86.369,11.112
-9.12,82.719,10.837
-9.08,79.21,10.562
-9.05,75.841,10.436
-9.02,73.174,10.241
-8.99,70.612,9.691
-8.95,67.558,8.981
-8.92,64.505,8.225
-8.89,61.276,7.32
-8.86,57.24,6.518
-8.82,53.064,5.854
-8.79,48.853,5.201
-8.76,44.431,4.685
-8.73,40.184,4.41
-8.69,36.429,4.055
-8.66,32.603,3.849
-8.63,29.866,4.284
-8.59,29.269,5.556
-8.56,28.603,5.086
-8.53,25.725,2.28
-8.5,21.513,0.63
-8.46,16.635,0.241
-8.43,11.722,-0.218
-8.4,5.721,-0.939
-8.37,0.316,-1.123
-8.33,-0.456,-2.028
-8.3,-2.808,-3.196
-8.27,-5.44,-3.482
-8.24,-7.23,-4.479
-8.2,-10.915,-5.693
-8.17,-16.354,-6.117
-8.14,-22.391,-6.186
-8.11,-28.357,-5.911
-8.07,-33.586,-5.384
-8.04,-37.727,-4.846
-8.01,-40.465,-4.525
-7.98,-42.114,-4.365
-7.94,-43.202,-4.41
-7.91,-43.799,-5.132
-7.88,-44.922,-6.621
-7.85,-47.554,-8.248
-7.81,-51.134,-9.588
-7.78,-55.275,-10.585
-7.75,-59.662,-11.192
-7.72,-64.224,-11.467
-7.68,-68.576,-11.49
-7.65,-72.507,-11.318
-7.62,-75.385,-11.284
-7.59,-77.771,-11.65
-7.55,-80.438,-12.097
-7.52,-82.93,-12.681
-7.49,-85.352,-13.563
-7.46,-88.475,-14.468
-7.42,-91.914,-15.167
-7.39,-95.354,-15.809
-7.36,-99.039,-16.267
-7.33,-102.689,-16.542
-7.29,-105.777,-16.782
-7.26,-109.041,-17.034
-7.23,-112.234,-17.412
-7.2,-114.867,-17.825
-7.16,-117.92,-18.432
-7.13,-121.149,-18.913
-7.1,-123.851,-19.371
-7.06,-126.939,-20.013
-7.03,-130.379,-20.597
-7.0,-133.502,-21.193
-6.97,-137.047,-21.766
-6.93,-140.591,-22.098
-6.9,-143.68,-22.419
-6.87,-146.803,-22.751
-6.84,-150.067,-23.003
-6.8,-152.734,-23.346
-6.77,-155.402,-23.782
-6.74,-158.244,-24.102
-6.71,-160.561,-24.492
-6.67,-163.052,-24.985
-6.64,-165.895,-25.408
-6.61,-168.422,-25.855
-6.58,-170.984,-26.279
-6.54,-173.686,-26.554
-6.51,-176.248,-26.909
-6.48,-178.74,-27.367
-6.45,-181.442,-27.722
-6.41,-183.653,-27.734
-6.38,-185.092,-27.551
-6.35,-186.531,-27.402
-6.32,-187.408,-27.447
-6.28,-188.11,-27.848
-6.25,-189.725,-28.57
-6.22,-191.62,-29.383
-6.19,-193.971,-30.22
-6.15,-196.709,-30.884
-6.12,-199.832,-31.274
-6.09,-202.921,-31.549
-6.06,-206.255,-31.732
-6.02,-209.132,-31.824
-5.99,-211.694,-32.018
-5.96,-214.432,-32.213
-5.93,-216.888,-32.396
-5.89,-218.608,-32.591
-5.86,-220.293,-32.74
-5.83,-221.837,-32.751
-5.8,-222.855,-33.015
-5.76,-224.223,-33.507
-5.73,-225.732,-33.805
-5.7,-227.136,-34.126
-5.66,-228.716,-34.447
-5.63,-230.646,-34.733
-5.6,-232.295,-35.043
-5.57,-234.05,-35.226
-5.53,-235.699,-35.272
-5.5,-237.103,-35.363
-5.47,-238.612,-35.604
-5.44,-240.332,-35.856
-5.4,-241.806,-36.211
-5.37,-243.42,-36.543
-5.34,-245.0,-36.658
-5.31,-246.333,-36.784
-5.27,-247.807,-37.07
-5.24,-249.422,-37.334
-5.21,-250.931,-37.505
-5.18,-252.37,-37.712
-5.14,-254.124,-37.975
-5.11,-255.704,-38.227
-5.08,-257.143,-38.307
-5.05,-258.511,-38.296
-5.01,-259.564,-38.376
-4.98,-260.582,-38.536
-4.95,-261.81,-38.754
-4.92,-262.968,-38.983
-4.88,-264.091,-39.235
-4.85,-265.32,-39.499
-4.82,-266.618,-39.716
-4.79,-267.917,-39.945
-4.75,-269.286,-39.991
-4.72,-270.479,-40.026
-4.69,-271.637,-40.266
-4.66,-272.9,-40.484
-4.62,-274.094,-40.576
-4.59,-275.006,-40.621
-4.56,-275.813,-40.495
-4.53,-276.375,-40.415
-4.49,-276.691,-40.404
-4.46,-276.936,-40.472
-4.43,-277.357,-40.747
-4.4,-277.954,-41.137
-4.36,-278.621,-41.286
-4.33,-279.253,-41.251
-4.3,-279.744,-41.194
-4.26,-280.095,-41.103
-4.23,-280.656,-41.32
-4.2,-281.148,-41.366
-4.17,-281.429,-41.355
-4.13,-281.99,-41.549
-4.1,-282.587,-41.698
-4.07,-283.043,-41.687
-4.04,-283.253,-41.458
-4.0,-283.289,-41.251
-3.97,-283.008,-41.011
-3.94,-282.516,-40.805
-3.91,-281.85,-40.805
-3.87,-281.183,-40.954
-3.84,-280.727,-40.999
-3.81,-280.165,-40.896
-3.78,-279.358,-40.667
-3.74,-278.516,-40.427
-3.71,-277.428,-40.14
-3.68,-276.27,-39.9
-3.65,-275.111,-39.865
-3.61,-274.129,-39.888
-3.58,-273.111,-39.705
-3.55,-271.883,-39.419
-3.52,-270.514,-39.086
-3.48,-269.11,-38.777
-3.45,-267.39,-38.468
-3.42,-265.671,-38.296
-3.39,-264.197,-38.25
-3.35,-262.723,-38.284
-3.32,-261.705,-38.239
-3.29,-260.617,-38.044
-3.26,-259.319,-37.712
-3.22,-257.845,-37.299
-3.19,-256.371,-36.864
-3.16,-254.686,-36.623
-3.13,-253.072,-36.566
-3.09,-251.598,-36.44
-3.06,-249.983,-36.257
-3.03,-248.404,-35.982
-3.0,-246.79,-35.569
-2.96,-244.859,-35.169
-2.93,-242.824,-34.871
-2.9,-240.858,-34.596
-2.86,-238.788,-34.435
-2.83,-236.963,-34.298
-2.8,-235.559,-34.332
-2.77,-234.261,-34.447
-2.73,-232.997,-34.138
-2.7,-231.558,-33.553
-2.67,-229.944,-33.141
-2.64,-228.259,-32.958
-2.6,-226.61,-32.602
-2.57,-224.644,-32.121
-2.54,-222.539,-31.812
-2.51,-220.538,-31.606
-2.47,-218.398,-31.411
-2.44,-216.362,-31.171
-2.41,-214.326,-30.827
-2.38,-212.115,-30.54
-2.34,-210.115,-30.426
-2.31,-208.501,-30.277
-2.28,-206.886,-30.105
-2.25,-205.061,-29.727
-2.21,-203.236,-29.223
-2.18,-201.201,-28.799
-2.15,-199.13,-28.478
-2.12,-196.989,-28.1
-2.08,-194.849,-27.86
-2.05,-192.743,-27.745
-2.02,-190.918,-27.619
-1.99,-188.988,-27.23
-1.95,-186.882,-26.737
-1.92,-184.636,-26.222
-1.89,-182.214,-25.683
-1.86,-179.477,-25.191
-1.82,-176.88,-25.019
-1.79,-174.564,-24.859
-1.76,-172.142,-24.641
-1.73,-169.72,-24.114
-1.69,-167.123,-23.564
-1.66,-164.105,-22.923
-1.63,-161.263,-22.51
-1.6,-158.56,-22.247
-1.56,-155.753,-22.063
-1.53,-153.401,-21.892
-1.5,-151.015,-21.399
-1.47,-148.383,-20.929
-1.43,-145.75,-20.437
-1.4,-143.083,-20.059
-1.37,-140.276,-19.612
-1.33,-137.538,-19.222
-1.3,-134.731,-18.787
-1.27,-131.818,-18.409
-1.24,-129.15,-18.111
-1.2,-126.518,-17.768
-1.17,-123.676,-17.298
-1.14,-120.692,-16.748
-1.11,-117.709,-16.129
-1.07,-114.551,-15.58
-1.04,-111.357,-15.053
-1.01,-108.128,-14.537
-0.98,-104.759,-14.056
-0.94,-101.25,-13.575
-0.91,-97.705,-12.933
-0.88,-93.845,-12.2
-0.85,-89.949,-11.559
-0.81,-85.983,-11.055
-0.78,-81.982,-10.631
-0.75,-78.262,-10.241
-0.72,-74.753,-9.852
-0.68,-71.349,-9.439
-0.65,-68.12,-9.016
-0.62,-64.961,-8.489
-0.59,-61.627,-7.859
-0.55,-58.188,-7.297
-0.52,-54.854,-6.782
-0.49,-51.66,-6.289
-0.46,-48.326,-5.831
-0.42,-45.132,-5.361
-0.39,-41.763,-4.903
-0.36,-38.499,-4.502
-0.33,-35.376,-4.113
-0.29,-32.884,-4.261
-0.26,-32.077,-5.797
-0.23,-32.182,-5.98
-0.2,-29.269,-2.566
-0.16,-23.935,0.057
-0.13,-17.618,0.458
-0.1,-11.687,0.882
-0.07,-3.966,1.661
-0.03,0.632,2.177
0.0,1.649,3.46
0.03,4.843,3.815
0.07,6.317,4.021
0.1,8.984,5.35
0.13,13.406,6.129
0.16,18.741,5.659
0.2,23.654,5.247
0.23,28.568,5.281
0.26,33.095,5.258
0.29,36.99,4.914
0.33,39.447,4.319
0.36,40.535,4.009
0.39,41.096,4.445
0.42,42.29,5.579
0.46,44.29,6.999
0.49,47.203,8.454
0.52,50.958,9.726
0.55,55.45,10.677
0.59,60.188,11.249
0.62,64.821,11.341
0.65,68.822,11.226
0.68,72.191,11.135
0.72,75.139,11.169
0.75,77.525,11.49
0.78,79.842,12.109
0.81,82.439,12.887
0.85,85.176,13.792
0.88,88.194,14.652
0.91,91.669,15.27
0.94,95.213,15.717
0.98,98.618,16.141
1.01,102.303,16.496
1.04,105.707,16.794
1.07,108.76,17.218
1.11,111.989,17.481
1.14,114.761,17.756
1.17,117.183,18.134
1.2,120.061,18.81
1.24,123.289,19.658
1.27,126.553,20.402
1.3,130.203,21.09
1.33,133.818,21.479
1.37,137.187,21.892
1.4,140.802,22.144
1.43,143.785,22.212
1.47,146.452,22.51
1.5,149.155,22.819
1.53,151.787,23.243
1.56,154.243,23.77
1.6,156.77,24.32
1.63,159.578,24.79
1.66,162.14,25.237
1.69,164.807,25.603
1.73,167.615,25.901
1.76,170.142,26.233
1.79,172.809,26.703
1.82,175.581,27.207
1.86,178.354,27.734
1.89,181.161,28.112
1.92,183.934,28.307
1.95,186.391,28.433
1.99,188.672,28.673
2.02,190.883,28.937
2.05,192.638,29.303
2.08,194.568,29.75
2.12,196.849,30.105
2.15,198.849,30.392
2.18,200.815,30.735
2.21,202.815,30.896
2.25,204.5,30.999
2.28,206.325,31.274
2.31,208.255,31.571
2.34,210.01,31.938
2.38,211.905,32.293
2.41,213.905,32.545
2.44,215.73,32.786
2.47,217.415,33.038
2.51,219.275,33.324
2.54,221.1,33.588
2.57,222.925,33.794
2.6,224.68,33.977
2.64,226.364,34.195
2.67,227.873,34.401
2.7,229.558,34.745
2.73,231.242,34.848
2.77,232.611,35.02
2.8,234.401,35.478
2.83,236.226,35.844
2.86,237.91,36.142
2.9,239.876,36.463
2.93,241.946,36.784
2.96,243.806,37.013
3.0,245.667,37.162
3.03,247.456,37.242
3.06,249.001,37.391
3.09,250.615,37.563
3.13,252.089,37.735
3.16,253.423,37.918
3.19,254.791,38.158
3.22,256.09,38.319
3.26,257.318,38.525
3.29,258.336,38.548
3.32,259.354,38.605
3.35,260.406,39.041
3.39,261.88,39.464
3.42,263.319,39.648
3.45,264.653,39.705
3.48,265.952,39.923
3.52,267.32,39.98
3.55,268.338,39.98
3.58,269.426,40.072
3.61,270.338,40.186
3.65,271.146,40.461
3.68,272.269,40.747
3.71,273.357,40.896
3.74,274.304,40.976
3.78,275.182,40.976
3.81,275.883,40.988
3.84,276.585,40.942
3.87,277.042,40.976
3.91,277.638,41.148
3.94,278.305,41.4
3.97,278.867,41.515
4.0,279.428,41.561
4.04,279.884,41.492
4.07,280.305,41.515
4.1,280.867,41.767
4.13,281.288,41.801
4.17,281.815,41.859
4.2,282.376,42.03
4.23,283.043,42.019
4.26,283.218,41.801
4.3,283.253,41.584
4.33,283.008,41.343
4.36,282.341,41.103
4.4,281.464,41.011
4.43,280.937,41.229
4.46,280.586,41.492
4.49,280.27,41.538
4.53,279.884,41.366
4.56,279.358,41.103
4.59,278.551,40.77
4.62,277.533,40.404
4.66,276.305,40.186
4.69,275.146,40.22
4.72,274.059,40.278
4.75,273.181,40.163
4.79,271.988,39.888
4.82,270.689,39.602
4.85,269.391,39.281
4.88,267.812,38.892
4.92,266.197,38.628
4.95,264.653,38.64
4.98,263.319,38.674
5.01,262.091,38.559
5.05,260.898,38.388
5.08,259.634,38.078
5.11,258.266,37.735
5.14,256.827,37.471
5.18,255.458,37.242
5.21,253.914,37.036
5.24,252.405,36.807
5.27,250.826,36.612
5.31,249.211,36.417
5.34,247.597,36.085
5.37,245.737,35.684
5.4,243.842,35.363
5.44,241.911,35.191
5.47,240.086,34.985
5.5,238.297,34.71
5.53,236.436,34.435
5.57,234.612,34.149
5.6,232.716,33.886
5.63,230.681,33.588
5.66,228.891,33.359
5.7,227.136,33.187
5.73,225.522,33.084
5.76,224.083,32.877
5.8,222.433,32.511
5.83,220.784,32.247
5.86,219.17,31.915
5.89,217.239,31.491
5.93,215.274,31.159
5.96,213.309,30.884
5.99,211.343,30.678
6.02,209.308,30.46
6.06,207.448,30.22
6.09,205.482,29.888
6.12,203.201,29.544
6.15,201.236,29.2
6.19,199.2,28.857
6.22,197.13,28.547
6.25,195.094,28.33
6.28,193.199,28.078
6.32,191.269,27.826
6.35,189.304,27.516
6.38,187.268,27.069
6.41,185.092,26.508
6.45,182.741,26.027
6.48,180.284,25.615
6.51,177.652,25.34
6.54,175.125,25.076
6.58,172.598,24.698
6.61,169.896,24.228
6.64,167.264,23.793
6.67,164.597,23.381
6.71,161.789,22.98
6.74,158.841,22.59
6.77,156.209,22.327
6.8,153.752,22.063
6.84,151.295,21.788
6.87,148.909,21.181
6.9,146.277,20.631
6.93,143.434,20.116
6.97,140.416,19.543
7.0,137.433,19.199
7.03,134.415,18.776
7.06,131.502,18.489
7.1,128.764,18.226
7.13,125.992,17.928
7.16,123.254,17.493
7.2,120.622,16.897
7.23,117.604,16.29
7.26,114.551,15.763
7.29,111.638,15.316
7.33,108.409,14.846
7.36,105.04,14.285
7.39,101.601,13.632
7.42,97.951,13.014
7.46,94.196,12.464
7.49,90.546,11.902
7.52,86.615,11.318
7.55,82.825,10.917
7.59,79.385,10.39
7.62,75.841,9.909
7.65,72.226,9.497
7.68,68.997,9.004
7.72,65.453,8.443
7.75,61.908,7.881
7.78,58.609,7.274
7.81,54.959,6.701
7.85,51.309,6.209
7.88,47.765,5.705
7.91,44.15,5.189
7.94,40.57,4.754
7.98,37.201,4.296
8.01,34.007,3.941
8.04,31.516,4.307
8.07,30.919,5.705
8.11,30.533,5.235
8.14,27.409,2.211
8.17,22.777,0.47
8.2,17.758,0.16
8.24,12.529,-0.229
8.27,6.598,-0.985
8.3,0.632,-1.157
8.33,-0.386,-1.902
8.37,-2.316,-3.082
8.4,-5.089,-3.379
8.43,-6.808,-4.296
8.46,-10.107,-5.705
8.5,-15.442,-6.243
8.53,-21.619,-6.255
8.56,-27.69,-5.945
8.59,-32.919,-5.407
8.63,-37.201,-4.914
8.66,-40.324,-4.536
8.69,-42.079,-4.284
8.73,-43.062,-4.319
8.76,-43.729,-4.949
8.79,-44.676,-6.197
8.82,-46.782,-7.664
8.86,-49.976,-8.958
8.89,-53.625,-10.058
8.92,-57.767,-10.837
8.95,-62.154,-11.284
8.99,-66.435,-11.478
9.02,-70.541,-11.513
9.05,-74.156,-11.456
9.08,-76.859,-11.73
9.12,-79.701,-12.235
9.15,-82.719,-12.761
9.18,-85.316,-13.414
9.21,-88.229,-14.205
9.25,-91.704,-14.881
9.28,-95.108,-15.545
9.31,-98.547,-16.187
9.34,-102.338,-16.668
9.38,-105.777,-17.011
9.41,-109.076,-17.493
9.44,-112.901,-17.916
9.47,-116.095,-18.329
9.51,-119.113,-18.673
9.54,-122.517,-19.085
9.57,-125.325,-19.326
9.6,-127.992,-19.704
9.64,-131.01,-20.208
9.67,-133.958,-20.849
9.7,-136.696,-21.433
9.73,-139.854,-21.972
9.77,-142.767,-22.166
9.8,-145.47,-22.59
9.83,-148.663,-23.163
9.86,-151.646,-23.472
9.9,-154.138,-23.873
9.93,-157.086,-24.274
9.96,-159.964,-24.71
9.99,-162.701,-25.168
10.03,-165.685,-25.5
10.06,-168.387,-25.66
10.09,-170.563,-25.901
10.13,-172.984,-26.256
10.16,-175.476,-26.714
10.19,-177.898,-27.321
10.22,-180.67,-27.848
10.26,-183.372,-28.055
10.29,-185.373,-28.146
10.32,-187.408,-28.215
10.35,-189.409,-28.387
10.39,-191.234,-28.868
10.42,-193.445,-29.59
10.45,-196.217,-30.117
10.48,-198.604,-30.518
10.52,-201.06,-30.793
10.55,-203.552,-30.941
10.58,-205.623,-31.033
10.61,-207.658,-31.262
10.65,-209.764,-31.468
10.68,-211.484,-31.824
10.71,-213.414,-32.27
10.74,-215.66,-32.614
10.78,-217.485,-32.74
10.81,-219.064,-32.912
10.84,-220.819,-33.061
10.87,-222.188,-33.233
10.91,-223.767,-33.645
10.94,-225.732,-34.08
10.97,-227.417,-34.218
11.0,-228.856,-34.252
11.04,-230.505,-34.47
11.07,-231.979,-34.653
11.1,-233.278,-34.871
11.13,-234.892,-35.1
11.17,-236.436,-35.34
11.2,-237.77,-35.627
11.23,-239.525,-35.936
11.26,-241.245,-36.291
11.3,-242.999,-36.555
11.33,-244.824,-36.704
11.36,-246.368,-36.784
11.39,-247.772,-37.001
11.43,-249.457,-37.265
11.46,-251.036,-37.483
11.49,-252.299,-37.735
11.53,-253.809,-37.975
11.56,-255.353,-38.101
11.59,-256.616,-38.181
11.62,-257.845,-38.262
11.66,-259.143,-38.399
11.69,-260.231,-38.617
11.72,-261.6,-38.926
11.75,-263.039,-39.189
11.79,-264.197,-39.419
11.82,-265.565,-39.579
11.85,-266.899,-39.682
11.88,-268.092,-39.842
11.92,-269.286,-39.98
11.95,-270.584,-40.037
11.98,-271.707,-40.278
12.01,-272.935,-40.541
12.05,-274.269,-40.644
12.08,-275.146,-40.656
12.11,-276.059,-40.576
12.14,-276.656,-40.472
12.18,-277.007,-40.472
12.21,-277.287,-40.61
12.24,-277.849,-40.885
12.27,-278.481,-41.183
12.31,-279.077,-41.309
12.34,-279.744,-41.297
12.37,-280.305,-41.251
12.4,-280.762,-41.263
12.44,-281.042,-41.103
12.47,-281.288,-41.183
12.5,-281.604,-41.423
12.53,-281.99,-41.492
12.57,-282.341,-41.549
12.6,-282.446,-41.458
12.63,-282.516,-41.274
12.66,-282.271,-41.045
12.7,-281.815,-40.816
12.73,-281.323,-40.702
12.76,-280.762,-40.885
12.79,-280.446,-41.068
12.83,-280.095,-41.057
12.86,-279.779,-40.931
12.89,-279.218,-40.667
12.93,-278.375,-40.346
12.96,-277.322,-40.037
12.99,-276.164,-39.854
13.02,-275.041,-39.865
13.06,-274.059,-39.888
13.09,-273.111,-39.693
13.12,-271.848,-39.487
13.15,-270.549,-39.235
13.19,-269.25,-38.892
13.22,-267.706,-38.525
13.25,-266.057,-38.376
13.28,-264.688,-38.422
13.32,-263.46,-38.433
13.35,-262.372,-38.353
13.38,-261.354,-38.147
13.41,-260.126,-37.746
13.45,-258.582,-37.288
13.48,-257.037,-36.921
13.51,-255.247,-36.669
13.54,-253.528,-36.566
13.58,-252.019,-36.52
13.61,-250.545,-36.417
13.64,-249.036,-36.28
13.67,-247.527,-35.821
13.71,-245.667,-35.226
13.74,-243.771,-35.18
13.77,-242.368,-35.157
13.8,-240.753,-34.802
13.84,-238.647,-34.367
13.87,-236.752,-34.057
13.9,-235.033,-33.863
13.93,-233.032,-33.633
13.97,-231.067,-33.301
14.0,-229.277,-33.049
14.03,-227.347,-32.981
14.06,-225.697,-32.786
14.1,-224.118,-32.362
14.13,-222.398,-32.236
14.16,-220.924,-32.19
14.19,-219.45,-31.755
14.23,-217.555,-31.262
14.26,-215.73,-31.045
14.29,-214.151,-30.85
14.32,-212.221,-30.552
14.36,-210.22,-30.231
14.39,-208.36,-29.922
14.42,-206.325,-29.658
14.46,-204.184,-29.315
14.49,-202.043,-28.857
14.52,-199.586,-28.41
14.55,-197.2,-28.089
14.59,-195.059,-27.883
14.62,-192.953,-27.745
14.65,-190.918,-27.574
14.68,-189.058,-27.253
14.72,-186.917,-26.806
14.75,-184.636,-26.348
14.78,-182.46,-25.844
14.81,-179.968,-25.397
14.85,-177.266,-25.133
14.88,-174.95,-24.813
14.91,-172.458,-24.366
14.94,-169.72,-23.954
14.98,-167.088,-23.541
15.01,-164.421,-23.129
15.04,-161.508,-22.762
15.07,-158.736,-22.327
15.11,-156.033,-22.006
15.14,-153.261,-21.8
15.17,-150.699,-21.342
15.2,-147.997,-20.746
15.24,-144.943,-20.196
15.27,-141.925,-19.681
15.3,-139.117,-19.429
15.33,-136.45,-19.348
15.37,-134.134,-19.177
15.4,-131.712,-18.776
15.43,-128.94,-18.123
15.46,-126.132,-17.527
15.5,-123.254,-16.828
15.53,-119.92,-16.267
15.56,-116.656,-15.786
15.59,-113.287,-15.282
15.63,-109.778,-14.869
15.66,-106.444,-14.56
15.69,-103.391,-14.159
15.72,-100.197,-13.701
15.76,-96.898,-13.128
15.79,-93.669,-12.441
15.82,-90.019,-11.753
15.86,-86.299,-11.261
15.89,-82.79,-10.745
15.92,-79.105,-10.218
15.95,-75.349,-9.794
15.99,-71.875,-9.394
16.02,-68.365,-8.89
16.05,-64.891,-8.34
16.08,-61.522,-7.767
16.12,-58.083,-7.297
16.15,-54.749,-6.988
16.18,-51.73,-6.541
16.21,-48.537,-5.991
16.25,-45.273,-5.487
16.28,-42.044,-4.995
16.31,-38.745,-4.468
16.34,-35.481,-4.044
16.38,-33.06,-4.261
16.41,-32.358,-5.762
16.44,-31.937,-5.487
16.47,-28.532,-1.947
16.51,-22.952,0.367
16.54,-16.46,0.55
16.57,-10.564,0.825
16.6,-3.053,1.432
16.64,0.667,1.993
16.67,1.649,3.288
16.7,4.703,3.563
16.73,6.071,3.861
16.77,8.669,5.292
16.8,13.161,6.117
16.83,18.46,5.648
16.86,23.268,5.121
16.9,28.006,5.098
16.93,32.393,5.063
16.96,36.183,4.766
16.99,38.745,4.387
17.03,40.359,4.135
17.06,41.167,4.387
17.09,42.184,5.361
17.12,44.115,6.759
17.16,46.922,8.133
17.19,50.432,9.29
17.22,54.538,10.173
17.26,58.784,10.78
17.29,63.206,11.135
17.32,67.453,11.272
17.35,71.103,11.272
17.39,74.226,11.375
17.42,77.139,11.708
17.45,79.807,12.212
17.48,82.579,12.773
17.52,85.352,13.449
17.55,88.3,14.171
17.58,91.458,14.927
17.61,94.862,15.591
17.65,98.407,16.152
17.68,102.092,16.645
17.71,105.882,17.069
17.74,109.427,17.447
17.78,112.971,17.836
17.81,116.306,18.203
17.84,119.324,18.432
17.87,122.061,18.741
17.91,124.974,19.222
17.94,127.922,19.921
17.97,130.975,20.631
18.0,134.239,21.25
18.04,137.468,21.788
18.07,140.556,21.857
18.1,143.399,22.144
18.13,146.066,22.441
18.17,148.698,22.854
18.2,151.436,23.346
18.23,154.208,23.805
18.26,156.946,24.423
18.3,159.929,24.87
18.33,162.666,25.122
18.36,165.263,25.328
18.39,167.825,25.523
18.43,170.107,25.844
18.46,172.388,26.21
18.49,174.704,26.691
18.52,177.336,27.321
18.56,180.144,27.963
18.59,183.162,28.398
18.62,185.864,28.547
18.66,188.251,28.685
18.69,190.602,28.845
18.72,192.813,29.051
18.75,194.778,29.361
18.79,196.814,29.727
18.82,198.814,30.105
18.85,200.85,30.54
18.88,202.921,30.758
18.92,204.71,30.85
18.95,206.36,31.045
18.98,208.185,31.434
19.01,210.185,31.892
19.05,212.08,32.282
19.08,214.186,32.614
19.11,216.292,32.855
19.14,218.047,32.9
19.18,219.626,32.843
19.21,221.275,33.221
19.24,223.03,33.645
19.27,224.82,33.897
19.31,226.61,34.206
19.34,228.294,34.447
19.37,230.225,34.802
19.4,232.05,34.917
19.44,233.524,34.985
19.47,235.033,35.146
19.5,236.682,35.443
19.53,238.226,35.821
19.57,240.157,36.245
19.6,241.982,36.635
19.63,243.947,36.944
19.66,245.702,37.024
19.7,247.351,37.024
19.73,248.93,37.127
19.76,250.334,37.334
19.79,251.949,37.551
19.83,253.282,37.815
19.86,254.791,38.078
19.89,256.3,38.284
19.92,257.494,38.376
19.96,258.687,38.479
19.99,259.88,38.605
20.02,261.038,38.766
20.05,262.021,38.983
20.09,263.284,39.224
20.12,264.442,39.384
20.15,265.671,39.602
20.19,266.864,39.762
20.22,268.057,39.877
20.25,269.11,40.014
20.28,270.303,40.175
20.32,271.461,40.381
20.35,272.725,40.656
20.38,274.023,40.828
20.41,275.146,40.839
20.45,276.059,40.782
20.48,276.691,40.702
20.51,277.112,40.621
20.54,277.393,40.61
20.58,277.779,40.782
20.61,278.165,41.103
20.64,278.656,41.263
20.67,279.112,41.332
20.71,279.639,41.343
20.74,280.305,41.515
20.77,280.937,41.675
20.8,281.604,41.664
20.84,281.99,41.469
20.87,282.552,41.733
20.9,283.113,41.824
20.93,283.253,41.584
20.97,283.183,41.389
21.0,283.218,41.492
21.03,283.008,41.4
21.06,282.095,40.805
21.1,281.253,40.747
21.13,280.727,41.045
21.16,280.305,41.148
21.19,279.674,40.896
21.23,278.902,40.644
21.26,278.059,40.415
21.29,276.901,40.152
21.32,275.813,39.945
21.36,274.76,39.968
21.39,273.848,40.037
21.42,272.971,39.9
21.45,271.848,39.659
21.49,270.76,39.361
21.52,269.426,38.972
21.55,267.917,38.64
21.59,266.302,38.479
21.62,264.864,38.445
21.65,263.6,38.433
21.68,262.372,38.353
21.72,261.143,38.17
21.75,259.95,37.849
21.78,258.441,37.494
21.81,256.862,37.208
21.85,255.353,36.967
21.88,253.773,36.807
21.91,252.299,36.681
21.94,250.896,36.497
21.98,249.316,36.28
22.01,247.667,35.948
22.04,245.982,35.581
22.07,244.157,35.249
22.11,242.332,35.02
22.14,240.437,34.687
22.17,238.507,34.481
22.2,236.752,34.447
22.24,235.103,34.195
22.27,233.032,33.633
22.3,230.927,33.175
22.33,229.137,33.164
22.37,227.487,33.084
22.4,225.873,32.843
22.43,224.153,32.602
22.46,222.574,32.499
22.5,221.135,32.282
22.53,219.661,31.915
22.56,217.871,31.48
22.59,216.046,31.125
22.63,214.151,30.735
22.66,212.08,30.414
22.69,209.975,30.14
22.72,207.974,29.945
22.76,205.904,29.635
22.79,203.658,29.269
22.82,201.482,28.902
22.85,199.2,28.616
22.89,197.13,28.398
22.92,195.129,28.226
22.95,193.234,27.974
22.99,191.164,27.688
23.02,189.268,27.31
23.05,187.338,26.852
23.08,185.092,26.451
23.12,182.776,26.004
23.15,180.284,25.477
23.18,177.617,25.099
23.21,175.09,24.893
23.25,172.739,24.618
23.28,170.212,24.16
23.31,167.545,23.747
23.34,164.807,23.358
23.38,162.035,22.9
23.41,159.262,22.441
23.44,156.63,22.166
23.47,154.103,21.88
23.51,151.541,21.514
23.54,148.769,20.918
23.57,145.891,20.494
23.6,143.118,20.093
23.64,140.135,19.474
23.67,137.328,19.188
23.7,134.309,18.695
23.73,131.361,18.34
23.77,128.624,18.088
23.8,125.887,17.722
23.83,123.289,17.424
23.86,120.763,16.954
23.9,117.604,16.049
23.93,114.13,15.236
23.96,110.62,14.686
23.99,107.111,14.297
24.03,103.706,13.896
24.06,100.267,13.529
24.09,96.758,13.048
24.12,93.248,12.544
24.16,89.809,12.063
24.19,86.475,11.627
24.22,83.246,11.146
24.25,79.912,10.528
24.29,76.437,9.852
24.32,72.752,9.233
24.35,69.067,8.763
24.38,65.417,8.34
24.42,61.943,7.881
24.45,58.609,7.389
24.48,55.24,6.896
24.52,51.906,6.369
24.55,48.607,5.888
24.58,45.238,5.35
24.61,41.728,4.823
24.65,38.254,4.273
24.68,34.955,3.918
24.71,32.639,4.41
24.74,32.288,5.9
24.78,31.796,5.224
24.81,28.603,1.947
24.84,23.479,0.16
24.87,18.039,-0.069
24.91,12.564,-0.447
24.94,6.071,-1.214
24.97,0.281,-1.398
25.0,-0.597,-2.291
25.04,-2.983,-3.322
25.07,-5.51,-3.586
25.1,-7.475,-4.777
25.13,-11.266,-5.877
25.17,-16.565,-6.049
25.2,-22.496,-6.094
25.23,-28.252,-5.831
25.26,-33.13,-5.235
25.3,-36.92,-4.674
25.33,-39.552,-4.216
25.36,-40.886,-3.895
25.39,-41.483,-4.078
25.43,-42.29,-4.949
25.46,-43.834,-6.415
25.49,-46.431,-8.088
25.52,-50.151,-9.474
25.56,-54.468,-10.425
25.59,-58.925,-10.963
25.62,-63.663,-11.215
25.65,-67.979,-11.261
25.69,-71.629,-11.215
25.72,-74.928,-11.181
25.75,-77.49,-11.33
25.78,-79.842,-11.811
25.82,-82.439,-12.509
25.85,-85.211,-13.3
25.88,-88.124,-14.159
25.92,-91.388,-14.927
25.95,-95.003,-15.499
25.98,-98.477,-15.969
26.01,-102.197,-16.404
26.05,-105.952,-16.759
26.08,-109.322,-17.16
26.11,-112.761,-17.481
26.14,-115.99,-17.779
26.18,-118.657,-18.146
26.21,-121.64,-18.73
26.24,-124.834,-19.291
26.27,-127.852,-19.91
26.31,-131.221,-20.62
26.34,-134.801,-21.101
26.37,-137.889,-21.273
26.4,-140.907,-21.594
26.44,-143.855,-21.731
26.47,-146.277,-22.029
26.5,-148.769,-22.464
26.53,-151.401,-22.865
26.57,-153.963,-23.427
26.6,-156.56,-23.954
26.63,-159.648,-24.446
26.66,-162.491,-24.904
26.7,-165.404,-25.34
26.73,-168.457,-25.592
26.76,-171.019,-25.821
26.79,-173.476,-26.142
26.83,-176.283,-26.543
26.86,-178.915,-27.035
26.89,-181.548,-27.539
26.92,-184.32,-27.791
26.96,-186.636,-27.86
26.99,-188.567,-28.055
27.02,-190.883,-28.341
27.05,-192.918,-28.616
27.09,-194.814,-29.12
27.12,-197.165,-29.613
27.15,-199.446,-30.002
27.18,-201.587,-30.3
27.22,-203.798,-30.392
27.25,-205.763,-30.403
27.28,-207.343,-30.563
27.32,-209.167,-30.93
27.35,-210.887,-31.239
27.38,-212.502,-31.686
27.41,-214.537,-32.11
27.45,-216.608,-32.373
27.48,-218.433,-32.625
27.51,-220.433,-32.786
27.54,-222.328,-32.912
27.58,-223.978,-33.175
27.61,-225.943,-33.565
27.64,-228.049,-33.874
27.67,-229.979,-34.218
27.71,-232.085,-34.573
27.74,-234.225,-34.813
27.77,-236.05,-35.043
27.8,-238.191,-35.34
27.84,-240.437,-35.569
27.87,-242.227,-35.81
27.9,-244.087,-36.051
27.93,-246.017,-36.257
27.97,-247.702,-36.486
28.0,-249.457,-36.784
28.03,-251.457,-36.99
28.06,-253.036,-37.265
28.1,-254.791,-37.677
28.13,-256.862,-38.021
28.16,-258.617,-38.193
28.19,-260.442,-38.433
28.23,-262.442,-38.594
28.26,-263.741,-38.319
28.29,-264.478,-38.136
28.32,-265.425,-38.307
28.36,-266.338,-38.674
28.39,-267.18,-39.121
28.42,-268.373,-39.361
28.45,-269.461,-39.51
28.49,-270.584,-39.648
28.52,-271.602,-39.556
28.55,-272.339,-39.51
28.58,-273.111,-39.716
28.62,-274.164,-39.945
28.65,-275.111,-40.117
28.68,-275.989,-40.392
28.72,-277.042,-40.553
28.75,-277.849,-40.438
28.78,-278.305,-40.278
28.81,-278.726,-40.186
28.85,-278.972,-40.163
28.88,-279.182,-40.278
28.91,-279.533,-40.484
28.94,-280.095,-40.736
28.98,-280.516,-40.816
29.01,-280.867,-40.702
29.04,-281.148,-40.621
29.07,-281.358,-40.587
29.11,-281.358,-40.495
29.14,-281.429,-40.472
29.17,-281.604,-40.747
29.2,-282.06,-41.045
29.24,-282.587,-41.068
29.27,-282.903,-40.954
29.3,-283.008,-40.805
29.33,-282.903,-40.644
29.37,-282.657,-40.472
29.4,-282.341,-40.415
29.43,-282.025,-40.45
29.46,-281.744,-40.518
29.5,-281.323,-40.472
29.53,-280.692,-40.163
29.56,-279.674,-39.716
29.59,-278.551,-39.441
29.63,-277.182,-39.338
29.66,-276.024,-39.35
29.69,-274.971,-39.499
29.72,-274.234,-39.648
29.76,-273.602,-39.441
29.79,-272.585,-38.972
29.82,-271.216,-38.491
29.85,-269.601,-38.044
29.89,-267.987,-37.643
29.92,-266.197,-37.609
29.95,-264.688,-37.838
29.98,-263.53,-37.906
30.02,-262.337,-37.826
30.05,-261.214,-37.574
30.08,-259.985,-37.059
30.11,-258.266,-36.589
30.15,-256.581,-36.314
30.18,-254.932,-36.131
30.21,-253.317,-36.028
30.25,-251.913,-36.005
30.28,-250.615,-35.89
30.31,-249.001,-35.638
30.34,-247.351,-35.226
30.38,-245.596,-34.733
30.41,-242.052,-32.832
30.44,-235.349,-29.292
30.47,-227.101,-27.195
30.51,-219.345,-27.654
30.54,-213.554,-29.269
30.57,-209.799,-30.609
30.6,-206.921,-31.652
30.64,-206.114,-32.866
30.67,-208.571,-33.908
30.7,-211.94,-34.149
30.73,-214.923,-34.023
30.77,-218.608,-33.714
30.8,-221.907,-33.049
30.83,-223.486,-31.95
30.86,-222.925,-30.403
30.9,-220.924,-28.879
30.93,-218.047,-28.066
30.96,-214.397,-28.158
30.99,-210.712,-28.753
31.03,-207.939,-29.338
31.06,-206.009,-29.83
31.09,-204.57,-30.094
31.12,-203.307,-30.059
31.16,-202.324,-29.544
31.19,-201.306,-28.765
31.22,-199.516,-28.226
31.25,-197.797,-27.803
31.29,-195.831,-27.276
31.32,-193.48,-26.749
31.35,-191.058,-26.382
31.38,-188.567,-26.016
31.42,-185.689,-25.695
31.45,-183.057,-25.431
31.48,-180.6,-25.202
31.51,-178.038,-25.099
31.55,-175.792,-24.962
31.58,-173.827,-24.538
31.61,-171.405,-24.011
31.65,-168.878,-23.45
31.68,-166.246,-22.797
31.71,-163.158,-22.166
31.74,-159.789,-21.605
31.78,-156.525,-21.158
31.81,-153.05,-20.861
31.84,-149.751,-20.631
31.87,-146.944,-20.334
31.91,-143.785,-19.956
31.94,-140.767,-19.589
31.97,-138.029,-19.028
32.0,-134.906,-18.466
32.04,-131.853,-18.157
32.07,-129.396,-17.939
32.1,-126.869,-17.653
32.13,-124.272,-17.344
32.17,-121.991,-16.863
32.2,-119.394,-16.301
32.23,-116.586,-15.877
32.26,-113.989,-15.465
32.3,-111.182,-14.972
32.33,-108.163,-14.526
32.36,-105.251,-13.999
32.39,-102.127,-13.414
32.43,-98.582,-12.853
32.46,-95.038,-12.177
32.49,-91.248,-11.433
32.52,-87.141,-10.917
32.56,-83.316,-10.516
32.59,-79.596,-10.092
32.62,-75.735,-9.714
32.65,-72.261,-9.336
32.69,-68.892,-8.752
32.72,-65.277,-8.237
32.75,-61.978,-7.79
32.78,-58.89,-7.274
32.82,-55.31,-6.828
32.85,-52.046,-6.392
32.88,-48.958,-5.9
32.91,-45.764,-5.43
32.95,-42.465,-4.96
32.98,-39.201,-4.296
33.01,-35.727,-3.826
33.05,-33.34,-4.273
33.08,-32.919,-5.957
33.11,-32.253,-5.27
33.14,-28.427,-1.695
33.18,-22.987,0.172
33.21,-16.986,0.195
33.24,-11.441,0.447
33.27,-4.492,1.191
33.31,0.351,1.512
33.34,0.842,2.6
33.37,3.545,3.334
33.4,5.58,3.54
33.44,7.405,4.72
33.47,10.985,5.728
33.5,16.039,5.751
33.53,21.268,5.51
33.57,26.286,5.258
33.6,31.059,5.155
33.63,35.411,4.983
33.66,38.57,4.662
33.7,40.64,4.273
33.73,41.798,4.296
33.76,42.851,5.029
33.79,44.36,6.266
33.83,46.677,7.572
33.86,49.8,8.832
33.89,53.52,9.932
33.92,57.837,10.837
33.96,62.434,11.341
33.99,66.962,11.49
34.02,71.033,11.444
34.05,74.297,11.41
34.09,77.139,11.547
34.12,80.017,11.868
34.15,82.368,12.441
34.18,84.86,13.288
34.22,87.773,14.125
34.25,90.932,14.801
34.28,94.231,15.373
34.31,97.74,15.877
34.35,101.25,16.301
34.38,104.759,16.759
34.41,108.304,17.149
34.45,111.708,17.504
34.48,114.832,17.836
34.51,117.78,18.077
34.54,120.482,18.409
34.58,123.114,18.879
34.61,125.887,19.452
34.64,128.729,20.059
34.67,131.677,20.78
34.71,135.011,21.594
34.74,138.661,22.258
34.77,142.276,22.545
34.8,145.786,22.682
34.84,148.979,22.808
34.87,151.822,23.003
34.9,154.384,23.312
34.93,156.981,23.656
34.97,159.402,24.068
35.0,161.754,24.607
35.03,164.281,25.156
35.06,166.983,25.672
35.1,169.65,26.096
35.13,172.528,26.497
35.16,175.336,26.978
35.19,178.284,27.47
35.23,181.267,27.768
35.26,184.039,27.986
35.29,186.566,28.181
35.32,188.918,28.398
35.36,191.058,28.616
35.39,193.094,28.914
35.42,195.129,29.292
35.45,197.13,29.67
35.49,199.2,30.002
35.52,201.201,30.38
35.55,203.201,30.586
35.58,204.991,30.724
35.62,206.641,30.93
35.65,208.43,31.251
35.68,210.396,31.629
35.71,212.326,32.007
35.75,214.291,32.328
35.78,216.362,32.648
35.81,218.327,32.832
35.84,220.187,32.912
35.88,221.872,33.084
35.91,223.557,33.347
35.94,225.346,33.679
35.98,227.136,34.023
36.01,228.961,34.321
36.04,230.856,34.642
36.07,232.576,34.813
36.11,234.225,34.882
36.14,236.05,35.249
36.17,237.946,35.638
36.2,239.665,35.879
36.24,241.455,36.108
36.27,243.28,36.291
36.3,244.894,36.383
36.33,246.404,36.52
36.37,247.772,36.669
36.4,249.036,36.749
36.43,250.229,36.944
36.46,251.492,37.253
36.5,252.966,37.609
36.53,254.475,37.883
36.56,255.984,38.124
36.59,257.388,38.227
36.63,258.687,38.262
36.66,259.845,38.353
36.69,260.968,38.491
36.72,262.126,38.708
36.76,263.354,38.96
36.79,264.583,39.121
36.82,265.776,39.384
36.85,267.145,39.579
36.89,268.338,39.659
36.92,269.496,39.774
36.95,270.654,39.945
36.98,271.918,40.198
37.02,273.181,40.404
37.05,274.409,40.564
37.08,275.497,40.61
37.11,276.445,40.53
37.15,277.182,40.495
37.18,277.673,40.45
37.21,277.954,40.404
37.24,278.235,40.564
37.28,278.937,41.08
37.31,279.533,41.103
37.34,279.919,40.965
37.38,280.446,41.08
37.41,280.902,41.103
37.44,281.323,41.16
37.47,281.604,41.068
37.51,281.885,41.24
37.54,282.411,41.389
37.57,282.762,41.366
37.6,282.938,41.286
37.64,282.938,41.125
37.67,282.587,40.942
37.7,282.201,40.713
37.73,281.604,40.553
37.77,281.113,40.69
37.8,280.762,40.919
37.83,280.621,41.034
37.86,280.27,40.954
37.9,279.919,40.747
37.93,279.393,40.45
37.96,278.481,40.117
37.99,277.428,39.808
38.03,276.34,39.705
38.06,275.322,39.774
38.09,274.304,39.659
38.12,273.006,39.361
38.16,271.567,39.063
38.19,270.058,38.754
38.22,268.443,38.388
38.25,266.618,38.124
38.29,265.004,38.078
38.32,263.53,38.09
38.35,262.161,38.078
38.38,260.898,37.929
38.42,259.705,37.712
38.45,258.371,37.437
38.48,257.072,37.116
38.51,255.669,36.818
38.55,254.265,36.589
38.58,252.826,36.337
38.61,251.317,36.051
38.64,249.597,35.741
38.68,247.807,35.421
38.71,245.947,35.054
38.74,243.877,34.813
38.78,241.946,34.687
38.81,240.192,34.538
38.84,238.261,34.39
38.87,236.612,34.344
38.91,235.208,34.138
38.94,233.664,33.805
38.97,232.014,33.485
39.0,230.505,33.038
39.04,228.61,32.763
39.07,226.891,32.58
39.1,225.171,32.328
39.13,223.346,32.087
39.17,221.591,31.961
39.2,220.082,31.709
39.23,218.222,31.274
39.26,216.116,30.861
39.3,214.046,30.518
39.33,212.045,30.208
39.36,209.904,30.002
39.39,207.974,29.865
39.43,206.079,29.578
39.46,203.868,29.189
39.49,201.692,28.776
39.52,199.516,28.364
39.56,197.235,28.089
39.59,195.164,27.963
39.62,193.304,27.768
39.65,191.339,27.459
39.69,189.374,27.104
39.72,187.303,26.68
39.75,185.057,26.233
39.78,182.671,25.809
39.82,180.354,25.408
39.85,177.863,24.996
39.88,175.476,24.755
39.91,172.774,24.206
39.95,169.756,23.553
39.98,166.562,23.003
40.01,163.509,22.671
40.04,160.385,22.315
40.08,157.156,21.846
40.11,154.384,21.743
40.14,151.857,21.628
40.18,149.786,21.64
40.21,147.751,21.239
40.24,145.54,20.746
40.27,143.224,20.242
40.31,140.872,19.704
40.34,138.275,19.005
40.37,135.187,18.295
40.4,131.923,17.699
40.44,128.484,17.264
40.47,125.044,16.954
40.5,121.815,16.645
40.53,118.552,16.301
40.57,115.428,15.912
40.6,112.48,15.499
40.63,109.673,15.259
40.66,107.005,14.995
40.7,104.373,14.434
40.73,101.32,13.666
40.76,98.021,12.842
40.79,94.336,11.983
40.83,90.265,11.261
40.86,86.124,10.631
40.89,82.018,10.23
40.92,78.192,10.058
40.96,74.683,9.898
40.99,71.559,9.554
41.02,68.33,9.004
41.05,65.031,8.374
41.09,61.873,7.767
41.12,58.714,7.16
41.15,55.24,6.598
41.18,51.73,6.071
41.22,48.291,5.636
41.25,44.852,5.247
41.28,41.623,4.926
41.31,38.499,4.594
41.35,35.587,4.433
41.38,34.042,5.098
41.41,34.218,6.564
41.44,34.113,5.648
41.48,30.779,2.085
41.51,25.584,0.057
41.54,19.513,-0.378
41.57,13.477,-0.894
41.61,5.896,-1.673
41.64,0.035,-1.844
41.67,-0.737,-2.875
41.71,-3.685,-3.677
41.74,-5.685,-3.723
41.77,-7.44,-4.766
41.8,-10.95,-5.567
41.84,-16.039,-5.957
41.87,-21.935,-6.289
41.9,-28.041,-6.129
41.93,-33.305,-5.453
41.97,-37.201,-4.823
42.0,-39.938,-4.399
42.03,-41.483,-4.101
42.06,-42.149,-4.204
42.1,-42.816,-5.075
42.13,-44.431,-6.553
42.16,-47.273,-8.191
42.19,-50.923,-9.611
42.23,-55.135,-10.665
42.26,-59.837,-11.284
42.29,-64.54,-11.456
42.32,-68.822,-11.387
42.36,-72.401,-11.261
42.39,-75.385,-11.261
42.42,-78.122,-11.433
42.45,-80.438,-11.822
42.49,-82.719,-12.578
42.52,-85.387,-13.552
42.55,-88.51,-14.434
42.58,-91.879,-15.202
42.62,-95.529,-15.728
42.65,-99.004,-16.038
42.68,-102.127,-16.255
42.71,-105.286,-16.439
42.75,-108.339,-16.851
42.78,-111.392,-17.435
42.81,-114.691,-18.1
42.84,-118.095,-18.627
42.88,-121.149,-19.062
42.91,-124.377,-19.543
42.94,-127.501,-19.875
42.97,-130.484,-20.345
43.01,-133.713,-20.78
43.04,-136.871,-21.342
43.07,-139.819,-21.834
43.11,-143.013,-22.166
43.14,-145.996,-22.499
43.17,-148.769,-22.877
43.2,-151.787,-23.266
43.24,-154.594,-23.747
43.27,-157.367,-24.183
43.3,-160.21,-24.595
43.33,-163.052,-24.881
43.37,-165.509,-25.214
43.4,-168.001,-25.672
43.43,-170.633,-26.061
43.46,-173.09,-26.405
43.5,-175.722,-26.863
43.53,-178.494,-27.39
43.56,-181.302,-27.883
43.59,-184.109,-28.272
43.63,-186.777,-28.41
43.66,-189.058,-28.478
43.69,-191.129,-28.662
43.72,-193.375,-28.937
43.76,-195.305,-29.372
43.79,-197.375,-29.83
43.82,-199.446,-30.128
43.85,-201.411,-30.392
43.89,-203.307,-30.609
43.92,-205.237,-30.77
43.95,-206.886,-30.976
43.98,-208.536,-31.251
44.02,-210.291,-31.526
44.05,-212.08,-31.824
44.08,-213.87,-32.247
44.11,-215.976,-32.706
44.15,-218.117,-33.038
44.18,-220.398,-33.507
44.21,-222.96,-33.863
44.24,-225.381,-34.103
44.28,-227.628,-34.286
44.31,-229.874,-34.424
44.34,-231.699,-34.458
44.37,-233.138,-34.516
44.41,-234.752,-34.71
44.44,-236.086,-34.894
44.47,-237.314,-35.169
44.51,-238.542,-35.398
44.54,-239.911,-35.695
44.57,-241.385,-36.085
44.6,-243.069,-36.406
44.64,-244.579,-36.555
44.67,-245.982,-36.612
44.7,-247.246,-36.578
44.73,-248.334,-36.52
44.77,-249.001,-36.497
44.8,-249.773,-36.543
44.83,-250.475,-36.692
44.86,-251.001,-37.013
44.9,-251.949,-37.334
44.93,-252.931,-37.551
44.96,-254.019,-37.826
44.99,-255.353,-38.204
45.03,-257.002,-38.548
45.06,-258.722,-38.823
45.09,-260.687,-39.052
45.12,-262.442,-39.098
45.16,-263.916,-39.052
45.19,-265.39,-39.098
45.22,-266.794,-39.315
45.25,-268.092,-39.579
45.29,-269.356,-39.831
45.32,-270.724,-39.957
45.35,-271.848,-40.152
45.38,-273.041,-40.392
45.42,-274.269,-40.495
45.45,-275.357,-40.541
45.48,-276.305,-40.633
45.51,-277.077,-40.576
45.55,-277.533,-40.484
45.58,-277.884,-40.564
45.61,-278.726,-40.965
45.64,-279.147,-40.839
45.68,-279.218,-40.679
45.71,-279.639,-40.885
45.74,-280.13,-41.148
45.77,-280.341,-41.091
45.81,-280.411,-40.816
45.84,-280.586,-40.919
45.87,-280.867,-41.16
45.9,-281.113,-41.171
45.94,-281.323,-41.16
45.97,-281.604,-41.229
46.0,-281.85,-41.171
46.04,-281.779,-40.965
46.07,-281.499,-40.713
46.1,-281.042,-40.564
46.13,-280.586,-40.564
46.17,-279.99,-40.541
46.2,-279.358,-40.564
46.23,-278.796,-40.507
46.26,-278.13,-40.381
46.3,-277.393,-40.198
46.33,-276.48,-39.968
46.36,-275.568,-39.728
46.39,-274.48,-39.59
46.43,-273.251,-39.464
46.46,-272.093,-39.189
46.49,-270.619,-38.937
46.52,-269.11,-38.788
46.56,-267.706,-38.548
46.59,-266.197,-38.33
46.62,-264.793,-38.284
46.65,-263.6,-38.204
46.69,-262.337,-38.067
46.72,-261.143,-38.01
46.75,-260.091,-37.746
46.78,-258.687,-37.334
46.82,-257.037,-36.944
46.85,-255.423,-36.578
46.88,-253.738,-36.291
46.91,-251.843,-36.154
46.95,-250.264,-36.005
46.98,-248.544,-35.741
47.01,-246.298,-35.214
47.04,-243.771,-34.516
47.08,-241.174,-34.012
47.11,-238.542,-33.886
47.14,-236.401,-34.023
47.17,-234.612,-34.115
47.21,-233.453,-34.481
47.24,-233.067,-34.905
47.27,-232.997,-34.733
47.3,-232.401,-34.115
47.34,-231.558,-33.668
47.37,-230.821,-33.427
47.4,-229.698,-33.107
47.44,-228.294,-32.614
47.47,-226.259,-31.869
47.5,-223.697,-31.308
47.53,-221.135,-31.033
47.57,-218.573,-30.861
47.6,-215.941,-30.667
47.63,-213.484,-30.552
47.66,-211.449,-30.437
47.7,-209.308,-30.266
47.73,-207.413,-30.128
47.76,-205.833,-29.739
47.79,-203.693,-29.246
47.83,-201.552,-28.868
47.86,-199.586,-28.421
47.89,-197.27,-27.974
47.92,-194.954,-27.654
47.96,-192.848,-27.459
47.99,-190.637,-27.218
48.02,-188.321,-26.966
48.05,-186.32,-26.634
48.09,-184.215,-26.302
48.12,-181.969,-25.958
48.15,-179.793,-25.408
48.18,-177.336,-24.927
48.22,-174.704,-24.664
48.25,-172.318,-24.274
48.28,-169.72,-23.805
48.31,-166.737,-23.289
48.35,-164.035,-22.865
48.38,-161.192,-22.396
48.41,-157.999,-22.132
48.44,-155.437,-21.995
48.48,-152.769,-21.651
48.51,-150.172,-21.456
48.54,-148.242,-21.307
48.57,-146.312,-20.677
48.61,-143.575,-20.047
48.64,-140.907,-19.555
48.67,-138.24,-19.051
48.7,-135.362,-18.776
48.74,-132.625,-18.409
48.77,-129.817,-17.916
48.8,-126.553,-17.47
48.84,-123.57,-17.103
48.87,-120.938,-16.645
48.9,-117.78,-16.164
48.93,-114.656,-15.694
48.97,-111.673,-15.144
49.0,-108.304,-14.606
49.03,-104.865,-13.999
49.06,-101.285,-13.3
49.1,-97.459,-12.647
49.13,-93.318,-12.051
49.16,-89.493,-11.433
49.19,-85.387,-10.94
49.23,-81.421,-10.665
49.26,-78.087,-10.218
49.29,-74.437,-9.68
49.32,-70.787,-9.325
49.36,-67.839,-8.844
49.39,-64.47,-8.225
49.42,-60.89,-7.687
49.45,-57.661,-7.057
49.49,-54.152,-6.507
49.52,-50.502,-6.14
49.55,-47.414,-5.854
49.58,-44.36,-5.476
49.62,-41.202,-5.121
49.65,-38.289,-4.479
49.68,-35.095,-4.009
49.71,-32.709,-4.422
49.75,-32.323,-5.934
49.78,-32.007,-5.407
49.81,-28.392,-1.936
49.84,-23.022,0.218
49.88,-16.846,0.481
49.91,-10.985,0.825
49.94,-3.51,1.409
49.97,0.597,1.81
50.01,1.263,3.036
50.04,4.247,3.448
50.07,5.756,3.677
50.1,7.756,4.972
50.14,11.757,6.026
50.17,17.372,6.129
50.2,22.987,5.705
50.24,28.181,5.292
50.27,32.674,5.098
50.3,36.78,4.903
50.33,39.622,4.559
50.37,41.061,4.273
50.4,41.939,4.399
50.43,42.886,5.201
50.46,44.36,6.621
50.5,46.922,8.111
50.53,50.467,9.348
50.56,54.468,10.356
50.59,58.925,11.043
50.63,63.452,11.387
50.66,67.664,11.501
50.69,71.559,11.513
50.72,74.858,11.444
50.76,77.385,11.65
50.79,80.017,12.189
50.82,82.825,12.819
50.85,85.352,13.586
50.89,88.229,14.365
50.92,91.458,14.984
50.95,94.722,15.58
50.98,98.056,16.061
51.02,101.601,16.473
51.05,104.9,16.908
51.08,108.339,17.401
51.11,111.848,17.802
51.15,115.112,18.226
51.18,118.13,18.547
51.21,121.184,18.856
51.24,123.851,19.326
51.28,126.694,19.91
51.31,130.063,20.735
51.34,133.467,21.319
51.37,136.801,21.96
51.41,140.311,22.373
51.44,143.715,22.705
51.47,146.873,23.037
51.5,150.032,23.232
51.54,152.734,23.438
51.57,155.261,23.747
51.6,157.718,24.102
51.63,160.104,24.584
51.67,162.456,25.122
51.7,165.053,25.592
51.73,167.58,26.038
51.77,170.142,26.474
51.8,172.809,26.852
51.83,175.546,27.253
51.86,178.284,27.711
51.9,181.021,28.089
51.93,183.583,28.215
51.96,185.583,28.261
51.99,187.654,28.49
52.03,189.865,28.822
52.06,191.83,29.303
52.09,193.901,29.796
52.12,196.182,30.208
52.16,198.393,30.529
52.19,200.499,30.758
52.22,202.499,30.815
52.25,204.219,30.907
52.29,205.974,31.171
52.32,207.729,31.526
52.35,209.518,31.869
52.38,211.238,32.224
52.42,213.274,32.534
52.45,215.204,32.877
52.48,217.064,33.141
52.51,218.819,33.267
52.55,220.538,33.381
52.58,222.223,33.633
52.61,223.978,34.034
52.64,225.768,34.355
52.68,227.557,34.676
52.71,229.558,35.031
52.74,231.418,35.18
52.77,232.997,35.191
52.81,234.857,35.661
52.84,236.682,35.936
52.87,238.367,36.051
52.9,240.051,36.28
52.94,241.736,36.52
52.97,243.491,36.864
53.0,245.245,37.208
53.03,246.965,37.448
53.07,248.65,37.597
53.1,250.299,37.815
53.13,251.984,38.067
53.17,253.633,38.319
53.2,255.423,38.571
53.23,257.037,38.766
53.26,258.406,38.788
53.3,259.599,38.708
53.33,260.582,38.674
53.36,261.494,38.834
53.39,262.477,39.189
53.43,263.495,39.464
53.46,264.548,39.751
53.49,265.741,40.037
53.52,266.969,40.22
53.56,268.198,40.301
53.59,269.356,40.415
53.62,270.514,40.461
53.65,271.602,40.598
53.69,272.83,40.839
53.72,274.023,40.999
53.75,274.866,40.988
53.78,275.638,40.954
53.82,276.129,40.816
53.85,276.305,40.553
53.88,276.34,40.736
53.91,276.585,41.034
53.95,277.182,41.469
53.98,277.638,41.492
54.01,278.165,41.607
54.04,279.182,41.916
54.08,280.025,41.87
54.11,280.692,41.847
54.14,281.183,41.733
54.17,281.709,41.824
54.21,282.306,41.996
54.24,282.938,42.007
54.27,283.218,41.962
54.3,283.289,41.824
54.34,283.183,41.595
54.37,282.657,41.366
54.4,282.025,41.217
54.43,281.429,41.263
54.47,280.972,41.469
54.5,280.481,41.595
54.53,280.13,41.561
54.57,279.709,41.343
54.6,279.042,41.022
54.63,278.024,40.69
54.66,276.831,40.312
54.7,275.603,40.163
54.73,274.409,40.198
54.76,273.181,40.163
54.79,272.023,39.968
54.83,270.689,39.705
54.86,269.25,39.373
54.89,267.706,39.006
54.92,266.022,38.674
54.96,264.372,38.605
54.99,263.074,38.674
55.02,261.67,38.582
55.05,260.371,38.376
55.09,259.178,38.055
55.12,257.739,37.746
55.15,256.23,37.471
55.18,254.686,37.162
55.22,253.107,36.898
55.25,251.457,36.749
55.28,249.983,36.635
55.31,248.509,36.509
55.35,246.965,36.245
55.38,245.28,35.856
55.41,243.491,35.421
55.44,241.595,35.18
55.48,239.771,34.939
55.51,237.875,34.745
55.54,236.121,34.607
55.57,234.541,34.412
55.61,232.892,34.149
55.64,231.067,33.737
55.67,229.417,33.53
55.7,227.803,33.359
55.74,226.189,33.21
55.77,224.785,32.946
55.8,223.346,32.694
55.83,221.696,32.454
55.87,220.012,32.076
55.9,217.976,31.571
55.93,215.836,31.159
55.97,213.66,30.861
56.0,211.519,30.678
56.03,209.378,30.518
56.06,207.448,30.38
56.1,205.693,30.082
56.13,203.622,29.693
56.16,201.482,29.303
56.19,199.586,28.868
56.23,197.305,28.49
56.26,195.129,28.249
56.29,193.234,27.997
56.32,191.234,27.757
56.36,189.163,27.516
56.39,187.303,27.115
56.42,185.057,26.588
56.45,182.565,26.119
56.49,180.214,25.683
56.52,177.547,25.305
56.55,174.844,24.996
56.58,172.528,24.698
56.62,169.931,24.366
56.65,167.229,23.942
56.68,164.737,23.507
56.71,162.07,23.049
56.75,159.332,22.705
56.78,156.911,22.407
56.81,154.454,21.995
56.84,151.541,21.548
56.88,148.804,21.09
56.91,145.961,20.574
56.94,142.908,20.242
56.97,140.065,19.864
57.01,137.328,19.589
57.04,134.695,19.406
57.07,132.239,18.902
57.1,129.466,18.203
57.14,126.308,17.573
57.17,123.289,17.092
57.2,120.341,16.611
57.23,117.007,16.175
57.27,113.779,15.66
57.3,110.445,15.156
57.33,107.111,14.778
57.36,103.917,14.331
57.4,100.793,13.758
57.43,97.214,13.197
57.46,93.81,12.624
57.5,90.546,12.017
57.53,86.931,11.467
57.56,83.316,10.963
57.59,79.912,10.344
57.63,76.051,9.794
57.66,72.331,9.382
57.69,69.032,8.935
57.72,65.417,8.477
57.76,61.908,8.088
57.79,58.714,7.595
57.82,55.415,7.068
57.85,52.187,6.61
57.89,49.133,6.117
57.92,45.834,5.556
57.95,42.465,5.052
57.98,39.236,4.513
58.02,35.938,4.067
58.05,33.27,4.239
58.08,32.498,5.613
58.11,32.323,5.613
58.15,29.199,2.383
58.18,24.04,-0.149
58.21,17.723,-0.584
58.24,11.757,-0.825
58.28,4.352,-1.455
58.31,-0.456,-1.982
58.34,-1.369,-3.368
58.37,-4.633,-3.861
58.41,-6.071,-3.883
58.44,-8.318,-4.972
58.47,-12.073,-5.522
58.5,-16.916,-5.43
58.54,-22.145,-5.625
58.57,-27.62,-5.67
58.6,-32.568,-5.27
58.63,-36.534,-4.662
58.67,-39.096,-4.296
58.7,-40.781,-4.239
58.73,-41.869,-4.468
58.76,-42.886,-5.247
58.8,-44.36,-6.541
58.83,-46.992,-7.95
58.86,-50.362,-9.21
58.9,-54.398,-10.23
58.93,-58.679,-10.929
58.96,-63.101,-11.33
58.99,-67.383,-11.467
59.03,-71.454,-11.444
59.06,-74.683,-11.467
59.09,-77.385,-11.765
59.12,-80.263,-12.177
59.16,-82.825,-12.727
59.19,-85.457,-13.472
59.22,-88.51,-14.251
59.25,-91.809,-14.927
59.29,-95.073,-15.534
59.32,-98.653,-16.026
59.35,-102.303,-16.496
59.38,-105.742,-16.989
59.42,-109.357,-17.378
59.45,-112.726,-17.676
59.48,-115.779,-18.008
59.51,-118.727,-18.329
59.55,-121.78,-18.936
59.58,-124.799,-19.578
59.61,-127.852,-20.093
59.64,-131.186,-20.586
59.68,-134.274,-21.067
59.71,-137.538,-21.628
59.74,-140.662,-21.903
59.77,-143.364,-22.018
59.81,-146.136,-22.464
59.84,-148.804,-22.659
59.87,-151.015,-22.911
59.9,-153.331,-23.45
59.94,-156.174,-24.171
59.97,-159.087,-24.801
60.0,-161.964,-25.065
60.03,-164.667,-25.168
60.07,-167.088,-25.489
60.1,-169.861,-26.027
60.13,-172.704,-26.451
60.16,-175.441,-26.978
60.2,-178.494,-27.619
60.23,-181.653,-28.043
60.26,-184.32,-28.009
60.3,-186.566,-28.02
60.33,-188.812,-28.272
60.36,-190.883,-28.65
60.39,-192.778,-28.914
60.43,-194.814,-29.269
60.46,-196.814,-29.773
60.49,-198.92,-30.243
60.52,-200.885,-30.357
60.56,-202.71,-30.437
60.59,-204.43,-30.735
60.62,-206.57,-31.136
60.65,-208.43,-31.377
60.69,-210.255,-31.801
60.72,-212.396,-32.098
60.75,-214.467,-32.465
60.78,-216.643,-32.832
60.82,-218.889,-33.175
60.85,-221.065,-33.45
60.88,-223.311,-33.656
60.91,-225.311,-33.725
60.95,-227.101,-33.863
60.98,-228.68,-34.069
61.01,-230.084,-34.057
61.04,-231.277,-34.149
61.08,-232.365,-34.435
61.11,-233.594,-34.71
61.14,-234.822,-34.985
61.17,-236.156,-35.386
61.21,-237.84,-35.833
61.24,-239.665,-36.188
61.27,-241.525,-36.509
61.3,-243.526,-36.715
61.34,-245.351,-36.715
61.37,-246.895,-36.612
61.4,-248.299,-36.612
61.43,-249.527,-36.715
61.47,-250.51,-36.944
61.5,-251.808,-37.219
61.53,-253.001,-37.528
61.56,-254.23,-37.883
61.6,-255.634,-38.124
61.63,-256.932,-38.273
61.66,-258.336,-38.468
61.7,-259.88,-38.64
61.73,-261.319,-38.834
61.76,-262.758,-39.063
61.79,-264.091,-39.178
61.83,-265.39,-39.304
61.86,-266.653,-39.579
61.89,-268.092,-39.785
61.92,-269.391,-39.854
61.96,-270.514,-39.945
61.99,-271.672,-40.152
62.02,-272.935,-40.392
62.05,-274.164,-40.53
62.09,-275.146,-40.587
62.12,-276.024,-40.53
62.15,-276.585,-40.53
62.18,-277.077,-40.53
62.22,-277.568,-40.507
62.25,-277.919,-40.747
62.28,-278.551,-41.045
62.31,-279.218,-41.137
62.35,-279.709,-41.148
62.38,-280.2,-41.16
62.41,-280.832,-41.377
62.44,-281.042,-40.954
62.48,-281.113,-40.954
62.51,-281.744,-41.492
62.54,-282.236,-41.572
62.57,-282.622,-41.549
62.61,-282.832,-41.481
62.64,-283.008,-41.343
62.67,-282.903,-41.057
62.7,-282.481,-40.702
62.74,-281.674,-40.404
62.77,-280.692,-40.381
62.8,-279.919,-40.576
62.83,-279.393,-40.77
62.87,-278.902,-40.759
62.9,-278.2,-40.564
62.93,-277.533,-40.369
62.96,-276.761,-40.129
63.0,-275.778,-39.865
63.03,-274.866,-39.774
63.06,-273.988,-39.774
63.09,-273.111,-39.671
63.13,-272.128,-39.43
63.16,-271.005,-39.178
63.19,-269.672,-38.914
63.23,-268.198,-38.571
63.26,-266.724,-38.273
63.29,-265.074,-38.193
63.32,-263.67,-38.181
63.36,-262.407,-38.067
63.39,-261.143,-37.918
63.42,-259.88,-37.712
63.45,-258.582,-37.368
63.49,-257.037,-37.001
63.52,-255.388,-36.715
63.55,-253.949,-36.589
63.58,-252.475,-36.566
63.62,-251.071,-36.463
63.65,-249.738,-36.177
63.68,-248.018,-35.695
63.71,-245.842,-35.134
63.75,-243.736,-34.699
63.78,-241.595,-34.481
63.81,-239.56,-34.481
63.84,-237.875,-34.458
63.88,-236.05,-34.298
63.91,-234.331,-34.115
63.94,-232.857,-33.714
63.97,-231.137,-33.324
64.01,-229.382,-33.175
64.04,-228.014,-33.015
64.07,-226.364,-32.671
64.1,-224.715,-32.442
64.14,-223.241,-32.305
64.17,-221.802,-32.167
64.2,-220.258,-31.846
64.23,-218.538,-31.411
64.27,-216.713,-30.953
64.3,-214.642,-30.621
64.33,-212.502,-30.334
64.36,-210.396,-30.002
64.4,-208.08,-29.75
64.43,-206.079,-29.601
64.46,-203.973,-29.28
64.49,-201.622,-28.834
64.53,-199.411,-28.433
64.56,-197.27,-28.181
64.59,-195.059,-28.02
64.63,-193.094,-27.803
64.66,-191.269,-27.459
64.69,-189.023,-27.127
64.72,-186.882,-26.714
64.76,-184.846,-26.245
64.79,-182.46,-25.798
64.82,-179.933,-25.363
64.85,-177.441,-24.962
64.89,-174.739,-24.687
64.92,-172.282,-24.377
64.95,-169.826,-23.976
64.98,-167.123,-23.598
65.02,-164.351,-23.175
65.05,-161.754,-22.716
65.08,-158.946,-22.292
65.11,-156.279,-22.109
65.15,-154.033,-21.857
65.18,-151.366,-21.376
65.21,-148.488,-20.838
65.24,-145.786,-20.276
65.28,-142.732,-19.658
65.31,-139.503,-19.188
65.34,-136.661,-18.97
65.37,-133.748,-18.695
65.41,-130.835,-18.421
65.44,-128.308,-18.065
65.47,-125.571,-17.561
65.5,-122.728,-17.046
65.54,-120.096,-16.473
65.57,-117.078,-15.866
65.6,-113.814,-15.396
65.63,-110.655,-14.938
65.67,-107.462,-14.445
65.7,-103.882,-13.85
65.73,-100.513,-13.369
65.76,-97.144,-12.933
65.8,-93.353,-12.475
65.83,-89.914,-11.96
65.86,-86.545,-11.284
65.89,-82.755,-10.78
65.93,-79.385,-10.344
65.96,-76.016,-9.794
65.99,-72.296,-9.313
66.03,-68.787,-8.878
66.06,-65.628,-8.351
66.09,-62.119,-7.893
66.12,-58.82,-7.48
66.16,-55.661,-6.954
66.19,-52.222,-6.438
66.22,-48.958,-5.968
66.25,-45.975,-5.361
66.29,-42.43,-4.766
66.32,-38.85,-4.17
66.35,-35.165,-3.654
66.38,-31.937,-3.815
66.42,-30.708,-5.522
66.45,-30.322,-5.476
66.48,-26.883,-2.073
66.51,-21.548,0.023
66.55,-15.793,0.183
66.58,-10.318,0.55
66.61,-3.439,1.214
66.64,0.562,1.661
66.68,1.193,2.841
66.71,4.282,3.345
66.74,5.931,3.643
66.77,8.142,4.926
66.81,12.143,5.819
66.84,17.372,5.67
66.87,22.461,5.327
66.9,27.444,5.201
66.94,32.042,5.155
66.97,36.288,4.937
67.0,39.377,4.548
67.03,41.026,4.181
67.07,41.798,4.284
67.1,42.746,4.972
67.13,44.115,6.197
67.16,46.185,7.71
67.2,49.625,9.096
67.23,53.625,10.184
67.26,58.047,10.986
67.29,62.68,11.352
67.33,66.962,11.421
67.36,70.787,11.41
67.39,74.226,11.421
67.42,76.999,11.582
67.46,79.526,12.074
67.49,82.474,12.693
67.52,85.281,13.403
67.56,88.089,14.205
67.59,91.388,14.904
67.62,94.757,15.488
67.65,98.161,16.061
67.69,102.022,16.565
67.72,105.777,17.069
67.75,109.216,17.47
67.78,112.761,17.825
67.82,116.06,18.168
67.85,119.078,18.592
67.88,122.202,18.993
67.91,125.325,19.44
67.95,128.133,20.047
67.98,131.291,20.689
68.01,134.555,21.135
68.04,137.749,21.926
68.08,141.223,22.304
68.11,144.382,22.407
68.14,146.733,22.453
68.17,149.155,22.751
68.21,151.997,23.381
68.24,154.594,23.896
68.27,157.262,24.366
68.3,160.034,24.71
68.34,162.631,25.099
68.37,165.158,25.431
68.4,167.79,25.672
68.43,170.212,25.912
68.47,172.528,26.279
68.5,175.055,26.795
68.53,177.687,27.413
68.56,180.46,28.009
68.6,183.408,28.444
68.63,186.18,28.673
68.66,188.777,28.834
68.69,191.164,28.879
68.73,193.234,29.04
68.76,195.2,29.395
68.79,197.27,29.819
68.82,199.271,30.208
68.86,201.166,30.621
68.89,203.201,30.804
68.92,204.956,30.896
68.96,206.606,31.125
68.99,208.466,31.48
69.02,210.326,31.904
69.05,212.151,32.224
69.09,214.186,32.545
69.12,216.327,32.923
69.15,218.292,33.118
69.18,220.152,33.21
69.22,221.837,33.29
69.25,223.451,33.565
69.28,225.206,33.874
69.31,226.891,34.057
69.35,228.505,34.378
69.38,230.119,34.71
69.41,231.839,34.882
69.44,233.313,34.974
69.48,234.787,35.214
69.51,236.507,35.547
69.54,238.156,35.879
69.57,240.016,36.234
69.61,241.911,36.578
69.64,243.912,36.921
69.67,245.772,37.024
69.7,247.386,36.967
69.74,248.86,37.082
69.77,250.369,37.334
69.8,251.949,37.517
69.83,253.212,37.7
69.87,254.51,37.998
69.9,255.914,38.25
69.93,257.108,38.319
69.96,258.231,38.399
70.0,259.424,38.628
70.03,260.582,38.869
70.06,261.88,39.155
70.09,263.249,39.396
70.13,264.653,39.487
70.16,265.846,39.613
70.19,267.145,39.808
70.22,268.303,39.888
70.26,269.391,39.991
70.29,270.444,40.163
70.32,271.567,40.335
70.36,272.76,40.564
70.39,273.848,40.759
70.42,274.831,40.77
70.45,275.638,40.724
70.49,276.27,40.747
70.52,276.866,40.77
70.55,277.357,40.828
70.58,277.954,41.068
70.62,278.761,41.343
70.65,279.428,41.412
70.68,279.884,41.32
70.71,280.165,41.274
70.75,280.481,41.286
70.78,280.727,41.206
70.81,280.692,41.103
70.84,280.867,41.332
70.88,281.323,41.687
70.91,281.709,41.79
70.94,282.095,41.721
70.97,282.201,41.492
71.01,282.376,41.458
71.04,282.306,41.332
71.07,281.815,40.885
71.1,281.183,40.736
71.14,280.867,41.16
71.17,280.832,41.458
71.2,280.376,41.011
71.23,279.393,40.553
71.27,278.481,40.301
71.3,277.533,40.278
71.33,276.199,39.991
71.36,274.936,39.9
71.4,273.883,40.049
71.43,273.006,40.094
71.46,272.128,39.865
71.49,271.04,39.464
71.53,269.601,39.086
71.56,268.198,38.788
71.59,266.618,38.514
71.62,265.004,38.41
71.66,263.705,38.422
71.69,262.407,38.33
71.72,261.038,38.113
71.76,259.705,37.849
71.79,258.336,37.62
71.82,256.932,37.357
71.85,255.458,37.059
71.89,253.984,36.852
71.92,252.545,36.772
71.95,251.282,36.589
71.98,249.843,36.348
72.02,248.264,36.005
72.05,246.474,35.558
72.08,244.543,35.111
72.11,242.438,34.905
72.15,240.543,34.802
72.18,238.753,34.676
72.21,236.963,34.481
72.24,235.208,34.206
72.28,233.524,33.897
72.31,231.523,33.439
72.34,229.698,33.381
72.37,228.329,33.29
72.41,226.75,33.107
72.44,225.311,32.9
72.47,224.013,32.625
72.5,222.469,32.282
72.54,220.503,31.846
72.57,218.678,31.297
72.6,216.397,30.815
72.63,213.976,30.552
72.67,211.729,30.38
72.7,209.624,30.174
72.73,207.378,30.014
72.76,205.482,29.819
72.8,203.552,29.521
72.83,201.552,29.131
72.86,199.516,28.685
72.89,197.34,28.33
72.93,195.164,28.146
72.96,193.269,27.917
72.99,191.444,27.677
73.02,189.409,27.379
73.06,187.373,26.932
73.09,185.197,26.371
73.12,182.6,25.901
73.15,180.179,25.5
73.19,177.757,25.168
73.22,175.055,24.904
73.25,172.528,24.595
73.29,170.071,24.16
73.32,167.299,23.747
73.35,164.737,23.404
73.38,162.21,22.934
73.42,159.157,22.43
73.45,156.454,22.075
73.48,153.857,21.731
73.51,150.98,21.319
73.55,148.067,20.883
73.58,145.294,20.379
73.61,142.206,19.921
73.64,139.188,19.555
73.68,136.52,19.199
73.71,133.713,18.844
73.74,130.8,18.352
73.77,128.238,17.928
73.81,125.395,17.538
73.84,122.623,17.195
73.87,120.096,16.714
73.9,116.937,15.946
73.94,113.638,15.419
73.97,110.725,15.064
74.0,107.637,14.709
74.03,104.268,14.251
74.07,101.109,13.632
74.1,97.6,12.956
74.13,93.845,12.395
74.16,90.37,11.834
74.2,86.65,11.272
74.23,82.825,10.848
74.26,79.456,10.344
74.29,75.876,9.772
74.33,72.015,9.371
74.36,68.822,8.97
74.39,65.488,8.363
74.42,61.838,7.859
74.46,58.609,7.435
74.49,55.486,6.931
74.52,52.081,6.449
74.55,48.853,5.98
74.59,45.659,5.384
74.62,42.044,4.914
74.65,38.675,4.513
74.69,35.657,4.147
74.72,33.305,4.445
74.75,32.709,5.877
74.78,32.533,5.51
74.82,29.199,2.268
74.85,24.11,0.16
74.88,18.355,-0.252
74.91,12.634,-0.722
74.95,5.37,-1.501
74.98,-0.14,-1.821
75.01,-0.948,-2.99
75.04,-4.036,-3.815
75.08,-6.142,-3.987
75.11,-8.493,-5.086
75.14,-12.424,-5.716
75.17,-17.548,-5.774
75.21,-23.128,-5.865
75.24,-28.603,-5.613
75.27,-33.305,-5.109
75.3,-36.99,-4.582
75.34,-39.236,-4.09
75.37,-40.184,-3.849
75.4,-40.675,-4.147
75.43,-41.588,-5.144
75.47,-43.167,-6.656
75.5,-45.869,-8.271
75.53,-49.695,-9.554
75.56,-53.906,-10.493
75.6,-58.714,-11.112
75.63,-63.452,-11.352
75.66,-67.593,-11.375
75.69,-71.349,-11.272
75.73,-74.753,-11.204
75.76,-77.209,-11.387
75.79,-79.42,-11.925
75.82,-82.123,-12.613
75.86,-84.685,-13.426
75.89,-87.492,-14.331
75.92,-91.002,-15.098
75.95,-94.547,-15.706
75.99,-98.196,-16.198
76.02,-102.057,-16.565
76.05,-105.496,-16.931
76.09,-108.9,-17.321
76.12,-112.691,-17.642
76.15,-115.779,-17.951
76.18,-118.446,-18.34
76.22,-121.394,-18.764
76.25,-124.062,-19.188
76.28,-126.764,-19.921
76.31,-130.168,-20.712
76.35,-133.783,-21.594
76.38,-137.363,-22.166
76.41,-140.977,-22.338
76.44,-144.171,-22.35
76.48,-146.873,-22.522
76.51,-149.997,-23.049
76.54,-152.769,-23.415
76.57,-155.086,-23.873
76.61,-157.858,-24.354
76.64,-160.841,-24.904
76.67,-163.474,-25.489
76.7,-166.492,-25.89
76.74,-169.405,-26.05
76.77,-171.686,-26.268
76.8,-174.037,-26.497
76.83,-176.494,-26.806
76.87,-178.705,-27.333
76.9,-181.337,-27.929
76.93,-184.039,-28.33
76.96,-186.356,-28.605
77.0,-188.742,-28.834
77.03,-191.164,-28.983
77.06,-193.059,-29.212
77.09,-195.129,-29.601
77.13,-197.411,-29.968
77.16,-199.376,-30.346
77.19,-201.376,-30.678
77.22,-203.482,-30.77
77.26,-205.061,-30.793
77.29,-206.535,-31.01
77.32,-208.185,-31.342
77.35,-209.834,-31.72
77.39,-211.765,-32.247
77.42,-213.976,-32.763
77.45,-216.081,-33.015
77.49,-218.117,-33.244
77.52,-220.328,-33.393
77.55,-222.258,-33.53
77.58,-223.978,-33.656
77.62,-225.838,-33.84
77.65,-227.347,-34.023
77.68,-228.68,-34.172
77.71,-230.225,-34.481
77.75,-231.769,-34.859
77.78,-233.208,-35.111
77.81,-234.752,-35.295
77.84,-236.331,-35.592
77.88,-238.051,-35.948
77.91,-239.876,-36.188
77.94,-241.666,-36.406
77.97,-243.28,-36.612
78.01,-244.93,-36.738
78.04,-246.368,-36.761
78.07,-247.667,-36.921
78.1,-249.106,-37.208
78.14,-250.58,-37.551
78.17,-252.089,-37.918
78.2,-253.773,-38.204
78.23,-255.493,-38.376
78.27,-257.037,-38.456
78.3,-258.406,-38.491
78.33,-259.634,-38.525
78.36,-260.582,-38.64
78.4,-261.775,-38.903
78.43,-262.898,-39.224
78.46,-264.056,-39.441
78.49,-265.285,-39.705
78.53,-266.618,-39.957
78.56,-267.987,-40.129
78.59,-269.321,-40.232
78.62,-270.584,-40.266
78.66,-271.742,-40.369
78.69,-272.935,-40.564
78.72,-274.059,-40.702
78.75,-274.971,-40.759
78.79,-275.708,-40.736
78.82,-276.34,-40.702
78.85,-276.691,-40.736
78.88,-277.077,-40.69
78.92,-277.463,-40.828
78.95,-277.919,-41.16
78.98,-278.481,-41.343
79.02,-279.077,-41.377
79.05,-279.639,-41.458
79.08,-280.376,-41.664
79.11,-280.902,-41.549
79.15,-281.007,-41.171
79.18,-281.042,-41.022
79.21,-281.183,-41.32
79.24,-281.358,-41.446
79.28,-281.358,-41.343
79.31,-281.288,-41.286
79.34,-281.148,-41.32
79.37,-280.937,-41.194
79.41,-280.621,-41.057
79.44,-280.376,-41.16
79.47,-280.2,-41.297
79.5,-280.025,-41.251
79.54,-279.849,-41.08
79.57,-279.358,-40.885
79.6,-278.621,-40.564
79.63,-277.568,-40.186
79.67,-276.34,-39.9
79.7,-275.111,-39.865
79.73,-273.988,-39.923
79.76,-272.935,-39.877
79.8,-271.742,-39.693
79.83,-270.654,-39.441
79.86,-269.391,-39.132
79.89,-267.952,-38.834
79.93,-266.443,-38.571
79.96,-264.969,-38.468
79.99,-263.67,-38.468
80.02,-262.442,-38.445
80.06,-261.284,-38.273
80.09,-260.02,-37.895
80.12,-258.476,-37.46
80.15,-256.827,-37.15
80.19,-255.247,-36.921
80.22,-253.563,-36.761
80.25,-251.984,-36.623
80.28,-250.51,-36.555
80.32,-249.176,-36.429
80.35,-247.737,-36.051
80.38,-245.877,-35.524
80.42,-244.017,-35.191
80.45,-242.227,-35.02
80.48,-240.508,-34.962
80.51,-238.858,-34.745
80.55,-237.138,-34.367
80.58,-235.208,-34.149
80.61,-233.488,-33.92
80.64,-231.699,-33.553
80.68,-229.733,-33.129
80.71,-228.014,-33.061
80.74,-226.399,-33.072
80.77,-224.89,-32.923
80.81,-223.451,-32.717
80.84,-222.223,-32.557
80.87,-220.749,-32.133
80.9,-218.889,-31.549
80.94,-216.853,-31.033
80.97,-214.713,-30.667
81.0,-212.396,-30.426
81.03,-210.08,-30.14
81.07,-207.764,-29.91
81.1,-205.658,-29.773
81.13,-203.868,-29.681
81.16,-202.148,-29.635
81.2,-200.499,-29.406
81.23,-199.13,-29.12
81.26,-197.726,-28.834
81.29,-196.323,-28.536
81.33,-194.814,-28.146
81.36,-193.059,-27.757
81.39,-191.093,-27.39
81.42,-189.304,-27.23
81.46,-187.373,-27.058
81.49,-185.408,-26.829
81.52,-183.759,-26.6
81.55,-181.934,-26.279
81.59,-179.582,-25.546
81.62,-176.669,-24.561
81.65,-173.09,-23.53
81.68,-169.089,-22.842
81.72,-164.948,-22.35
81.75,-160.736,-21.96
81.78,-156.7,-21.869
81.82,-153.436,-22.018
81.85,-150.558,-21.8
81.88,-147.575,-21.319
81.91,-144.803,-20.792
81.95,-142.346,-20.379
81.98,-139.784,-19.967
82.01,-137.292,-19.578
82.04,-134.871,-19.131
82.08,-132.344,-18.741
82.11,-129.782,-18.317
82.14,-127.08,-17.607
82.17,-123.816,-16.828
82.21,-120.271,-16.187
82.24,-116.727,-15.625
82.27,-112.971,-15.19
82.3,-109.532,-14.927
82.34,-106.233,-14.663
82.37,-102.899,-14.182
82.4,-99.425,-13.563
82.43,-95.915,-12.853
82.47,-92.195,-12.235
82.5,-88.44,-11.662
82.53,-84.755,-11.043
82.56,-80.894,-10.493
82.6,-77.139,-10.115
82.63,-73.665,-9.646
82.66,-69.945,-9.016
82.69,-66.084,-8.42
82.73,-62.505,-7.859
82.76,-58.925,-7.354
82.79,-55.31,-6.965
82.82,-52.151,-6.587
82.86,-48.923,-6.186
82.89,-45.624,-5.854
82.92,-42.641,-5.315
82.95,-39.412,-4.628
82.99,-36.043,-3.998
83.02,-32.709,-3.517
83.05,-30.077,-3.574
83.08,-28.918,-5.029
83.12,-28.638,-5.098
83.15,-25.725,-2.005
83.18,-20.496,0.321
83.22,-14.354,0.664
83.25,-8.633,0.836
83.28,-1.825,1.191
83.31,0.842,2.073
83.35,2.492,3.517
83.38,5.58,3.7
83.41,7.23,4.284
83.44,10.809,5.682
83.48,15.968,6.14
83.51,21.443,5.556
83.54,26.392,5.132
83.57,30.989,4.995
83.61,34.92,4.857
83.64,37.973,4.559
83.67,40.009,4.17
83.7,40.921,4.044
83.74,41.518,4.708
83.77,42.957,6.014
83.8,45.308,7.286
83.83,47.94,8.443
83.87,50.958,9.038
83.9,54.082,9.29
83.93,57.381,9.783
83.96,60.96,10.241
84.0,64.154,10.321
84.03,66.856,10.516
84.06,69.629,10.814
84.09,72.437,11.226
84.13,75.244,11.994
84.16,78.648,12.887
84.19,82.228,13.575
84.22,85.738,14.079
84.26,89.352,14.549
84.29,93.073,15.007
84.32,96.687,15.476
84.35,100.302,15.912
84.39,103.882,16.359
84.42,107.286,16.92
84.45,110.76,17.516
84.48,114.41,17.962
84.52,117.569,18.34
84.55,120.692,18.776
84.58,124.062,19.188
84.61,126.939,19.669
84.65,130.028,20.185
84.68,133.362,20.7
84.71,136.52,21.25
84.75,139.714,21.777
84.78,143.048,22.155
84.81,145.996,22.487
84.84,148.804,22.808
84.88,151.611,23.049
84.91,154.138,23.346
84.94,156.665,23.805
84.97,159.262,24.183
85.01,161.719,24.549
85.04,164.035,24.939
85.07,166.562,25.385
85.1,169.089,25.752
85.14,171.616,26.222
85.17,174.529,26.76
85.2,177.441,27.276
85.23,180.179,27.688
85.27,183.092,28.02
85.3,185.934,28.204
85.33,188.356,28.444
85.36,190.813,28.639
85.4,193.059,28.845
85.43,195.024,29.131
85.46,197.025,29.464
85.49,199.06,29.716
85.53,200.815,30.071
85.56,202.57,30.311
85.59,204.289,30.437
85.62,205.798,30.689
85.66,207.448,31.136
85.69,209.518,31.64
85.72,211.519,32.03
85.75,213.66,32.385
85.79,215.8,32.706
85.82,217.941,32.82
85.85,219.872,32.832
85.88,221.732,32.9
85.92,223.416,33.118
85.95,225.066,33.416
85.98,226.75,33.679
86.01,228.294,33.954
86.05,229.944,34.367
86.08,231.664,34.642
86.11,233.348,34.859
86.15,235.208,35.295
86.18,237.314,35.535
86.21,239.209,35.684
86.24,241.139,35.97
86.28,243.14,36.303
86.31,245.035,36.555
86.34,246.86,36.669
86.37,248.439,36.681
86.41,249.843,36.749
86.44,251.106,37.024
86.47,252.615,37.368
86.5,254.16,37.563
86.54,255.493,37.723
86.57,256.792,37.826
86.6,257.845,37.895
86.63,258.827,38.021
86.67,259.845,38.193
86.7,260.898,38.399
86.73,262.056,38.72
86.76,263.39,39.052
86.8,264.653,39.201
86.83,265.881,39.373
86.86,267.11,39.522
86.89,268.303,39.625
86.93,269.496,39.705
86.96,270.619,39.842
86.99,271.812,40.014
87.02,273.006,40.198
87.06,274.059,40.404
87.09,275.111,40.45
87.12,275.989,40.346
87.15,276.585,40.312
87.19,277.007,40.301
87.22,277.322,40.312
87.25,277.708,40.564
87.28,278.375,40.862
87.32,278.902,40.954
87.35,279.428,40.965
87.38,279.955,40.999
87.41,280.446,40.988
87.45,280.762,40.965
87.48,281.183,40.931
87.51,281.534,41.08
87.55,281.885,41.286
87.58,282.446,41.297
87.61,282.867,41.229
87.64,282.973,41.16
87.68,282.973,41.045
87.71,282.762,40.816
87.74,282.376,40.679
87.77,282.025,40.805
87.81,281.885,40.999
87.84,281.674,40.999
87.87,281.253,40.793
87.9,280.551,40.438
87.94,279.674,40.106
87.97,278.621,39.808
88.0,277.322,39.545
88.03,275.919,39.556
88.07,274.831,39.728
88.1,273.848,39.716
88.13,272.725,39.499
88.16,271.567,39.189
88.2,270.198,38.869
88.23,268.689,38.445
88.26,267.075,38.078
88.29,265.425,38.021
88.33,264.056,38.101
88.36,262.793,38.044
88.39,261.494,37.861
88.42,260.196,37.54
88.46,258.722,37.208
88.49,257.213,36.921
88.52,255.704,36.704
88.55,254.265,36.543
88.59,252.791,36.417
88.62,251.352,36.291
88.65,249.983,36.062
88.68,248.579,35.753
88.72,246.895,35.295
88.75,245.14,34.974
88.78,243.42,34.825
88.81,241.631,34.71
88.85,240.051,34.458
88.88,238.297,34.206
88.91,236.542,34.023
88.94,234.927,33.737
88.98,233.067,33.21
89.01,231.032,32.912
89.04,229.277,32.923
89.08,227.628,32.74
89.11,225.662,32.362
89.14,223.697,31.938
89.17,221.591,31.491
89.21,219.205,31.079
89.24,216.783,30.598
89.27,214.432,30.38
89.3,212.186,30.449
89.34,210.361,30.449
89.37,208.676,30.22
89.4,206.781,29.83
89.43,205.167,29.601
89.47,203.763,29.223
89.5,201.797,28.799
89.53,199.797,28.444
89.56,197.867,28.158
89.6,195.866,27.952
89.63,193.936,27.722
89.66,192.111,27.356
89.69,189.9,27.012
89.73,187.759,26.657
89.76,185.654,26.164
89.79,183.127,25.706
89.82,180.53,25.317
89.86,178.108,24.962
89.89,175.581,24.652
89.92,172.949,24.377
89.95,170.528,23.954
89.99,167.86,23.472
90.02,165.123,23.14
90.05,162.666,22.762
90.08,159.929,22.361
90.12,157.051,21.972
90.15,154.314,21.456
90.18,151.541,21.044
90.21,148.488,20.654
90.25,145.891,20.379
90.28,143.188,19.944
90.31,140.17,19.509
90.34,137.538,19.199
90.38,135.187,18.879
90.41,132.344,18.581
90.44,129.922,18.203
90.48,127.396,17.664
90.51,124.448,17.16
90.54,121.78,16.714
90.57,118.903,16.152
90.61,115.709,15.534
90.64,112.41,15.03
90.67,109.181,14.514
90.7,105.426,13.999
90.74,101.846,13.46
90.77,98.302,12.819
90.8,94.301,12.28
90.83,90.511,11.822
90.87,86.966,11.261
90.9,83.035,10.757
90.93,79.385,10.321
90.96,76.016,9.737
91.0,72.331,9.21
91.03,68.681,8.798
91.06,65.453,8.214
91.09,61.732,7.584
91.13,58.118,7.125
91.16,54.959,6.724
91.19,51.52,6.346
91.22,48.256,6.037
91.26,45.413,5.476
91.29,42.009,4.903
91.32,38.605,4.376
91.35,35.551,3.849
91.39,32.954,3.883
91.42,32.007,5.487
91.45,31.937,5.556
91.48,28.918,2.085
91.52,23.163,-0.481
91.55,16.46,-1.042
91.58,9.616,-1.546
91.61,1.86,-1.821
91.65,-0.597,-2.509
91.68,-2.527,-3.631
91.71,-5.089,-3.46
91.74,-5.931,-3.803
91.78,-8.423,-4.869
91.81,-12.073,-5.258
91.84,-16.53,-5.075
91.88,-21.127,-5.132
91.91,-25.97,-5.166
91.94,-30.533,-5.04
91.97,-34.674,-4.88
92.01,-38.289,-4.857
92.04,-41.096,-4.892
92.07,-42.957,-5.109
92.1,-44.817,-5.51
92.14,-46.431,-6.312
92.17,-48.502,-7.561
92.2,-51.801,-8.844
92.23,-55.626,-9.886
92.27,-59.521,-10.654
92.3,-63.733,-11.146
92.33,-67.769,-11.375
92.36,-71.313,-11.467
92.4,-74.858,-11.513
92.43,-77.771,-11.627
92.46,-80.087,-12.12
92.49,-82.965,-12.842
92.53,-85.948,-13.518
92.56,-88.686,-14.205
92.59,-92.02,-14.881
92.62,-95.494,-15.27
92.66,-98.653,-15.74
92.69,-102.162,-16.313
92.72,-105.952,-16.828
92.75,-109.006,-17.149
92.79,-112.375,-17.481
92.82,-115.814,-17.871
92.85,-118.622,-18.214
92.88,-121.535,-18.764
92.92,-124.869,-19.234
92.95,-127.676,-19.715
92.98,-130.73,-20.288
93.01,-134.274,-20.792
93.05,-137.363,-21.284
93.08,-140.311,-21.594
93.11,-143.294,-21.777
93.14,-145.891,-22.155
93.18,-148.523,-22.636
93.21,-151.682,-23.106
93.24,-154.489,-23.598
93.28,-157.191,-24.114
93.31,-160.455,-24.469
93.34,-163.087,-24.733
93.37,-165.685,-25.065
93.41,-168.562,-25.317
93.44,-170.949,-25.546
93.47,-173.019,-25.947
93.5,-175.652,-26.497
93.54,-178.319,-27.047
93.57,-180.916,-27.608
93.6,-183.934,-27.952
93.63,-186.566,-28.089
93.67,-188.742,-28.318
93.7,-191.093,-28.513
93.73,-193.164,-28.685
93.76,-195.164,-29.074
93.8,-197.34,-29.429
93.83,-199.411,-29.681
93.86,-201.166,-29.979
93.89,-203.131,-30.231
93.93,-204.991,-30.288
93.96,-206.465,-30.437
93.99,-208.185,-30.747
94.02,-210.045,-31.09
94.06,-211.729,-31.537
94.09,-213.8,-32.018
94.12,-216.046,-32.305
94.15,-217.871,-32.488
94.19,-219.942,-32.671
94.22,-221.872,-32.797
94.25,-223.486,-33.026
94.28,-225.311,-33.255
94.32,-227.171,-33.53
94.35,-228.856,-33.863
94.38,-230.751,-34.309
94.41,-232.611,-34.504
94.45,-234.261,-34.619
94.48,-235.735,-34.538
94.51,-236.998,-34.504
94.54,-238.156,-34.813
94.58,-239.455,-35.146
94.61,-241.209,-35.661
94.64,-242.894,-36.188
94.67,-244.789,-36.566
94.71,-246.719,-36.658
94.74,-248.579,-36.761
94.77,-250.334,-36.91
94.81,-252.089,-37.013
94.84,-253.633,-37.139
94.87,-255.107,-37.402
94.9,-256.827,-37.609
94.94,-257.95,-37.597
94.97,-258.932,-37.574
95.0,-259.985,-37.723
95.03,-260.933,-37.964
95.07,-262.021,-38.307
95.1,-263.249,-38.594
95.13,-264.583,-38.823
95.16,-265.846,-39.075
95.2,-267.285,-39.224
95.23,-268.689,-39.304
95.26,-269.917,-39.419
95.29,-271.111,-39.441
95.33,-272.058,-39.453
95.36,-272.971,-39.671
95.39,-274.059,-39.877
95.42,-274.936,-39.957
95.46,-275.568,-39.991
95.49,-276.27,-40.026
95.52,-276.761,-39.968
95.55,-277.042,-39.9
95.59,-277.428,-40.037
95.62,-278.165,-40.541
95.65,-278.656,-40.53
95.68,-279.042,-40.346
95.72,-279.639,-40.553
95.75,-280.235,-40.805
95.78,-280.762,-40.667
95.81,-280.902,-40.45
95.85,-281.148,-40.553
95.88,-281.464,-40.736
95.91,-281.779,-40.736
95.94,-281.92,-40.747
95.98,-282.06,-40.702
96.01,-282.025,-40.518
96.04,-281.744,-40.358
96.07,-281.393,-40.266
96.11,-281.078,-40.278
96.14,-280.692,-40.312
96.17,-280.27,-40.312
96.21,-279.884,-40.266
96.24,-279.288,-39.98
96.27,-278.375,-39.625
96.3,-277.322,-39.396
96.34,-276.164,-39.293
96.37,-275.111,-39.235
96.4,-274.129,-39.235
96.43,-273.251,-39.178
96.47,-272.128,-39.018
96.5,-270.935,-38.708
96.53,-269.601,-38.262
96.56,-268.057,-37.861
96.6,-266.408,-37.631
96.63,-264.758,-37.551
96.66,-263.354,-37.528
96.69,-261.951,-37.494
96.73,-260.687,-37.437
96.76,-259.494,-37.139
96.79,-258.055,-36.772
96.82,-256.476,-36.463
96.86,-255.037,-36.222
96.89,-253.563,-36.062
96.92,-252.089,-35.867
96.95,-250.475,-35.627
96.99,-248.895,-35.466
97.02,-247.246,-35.214
97.05,-245.491,-34.756
97.08,-243.491,-34.355
97.12,-241.49,-34.183
97.15,-239.771,-34.115
97.18,-238.086,-33.954
97.21,-236.612,-34.023
97.25,-235.559,-34.103
97.28,-234.436,-33.725
97.31,-232.822,-33.152
97.34,-231.172,-32.74
97.38,-229.453,-32.396
97.41,-227.452,-31.984
97.44,-225.171,-31.549
97.47,-222.784,-31.285
97.51,-220.609,-31.125
97.54,-218.433,-30.907
97.57,-216.362,-30.678
97.61,-214.291,-30.506
97.64,-212.431,-30.277
97.67,-210.782,-30.128
97.7,-209.308,-30.105
97.74,-208.15,-30.14
97.77,-207.378,-29.991
97.8,-206.079,-29.601
97.83,-204.359,-28.753
97.87,-202.043,-27.929
97.9,-199.657,-27.562
97.93,-197.165,-27.253
97.96,-194.498,-26.989
98.0,-191.901,-26.852
98.03,-189.549,-26.714
98.06,-187.163,-26.439
98.09,-184.917,-26.061
98.13,-182.32,-25.408
98.16,-179.266,-24.538
98.19,-175.827,-23.839
98.22,-172.388,-23.369
98.26,-168.983,-23.094
98.29,-165.93,-22.991
98.32,-163.087,-22.842
98.35,-160.666,-22.819
98.39,-158.385,-22.693
98.42,-156.349,-22.35
98.45,-154.524,-22.052
98.48,-152.98,-21.8
98.52,-151.12,-21.227
98.55,-148.734,-20.391
98.58,-145.645,-19.44
98.61,-142.276,-18.936
98.65,-139.328,-18.993
98.68,-136.52,-18.684
98.71,-133.607,-18.34
98.74,-130.659,-17.997
98.78,-127.852,-17.768
98.81,-125.36,-17.527
98.84,-123.079,-17.103
98.87,-120.306,-16.439
98.91,-117.323,-15.751
98.94,-114.13,-15.064
98.97,-110.76,-14.434
99.01,-107.286,-14.033
99.04,-103.777,-13.575
99.07,-100.197,-13.071
99.1,-96.617,-12.59
99.14,-93.073,-12.109
99.17,-89.388,-11.639
99.2,-85.878,-11.146
99.23,-82.368,-10.539
99.27,-78.789,-9.955
99.3,-75.209,-9.485
99.33,-71.735,-9.061
99.36,-68.155,-8.569
99.4,-64.61,-7.927
99.43,-61.066,-7.332
99.46,-57.626,-6.988
99.49,-54.222,-6.679
99.53,-50.958,-6.243
99.56,-47.659,-5.842
99.59,-44.676,-5.453
99.62,-41.658,-4.937
99.66,-38.499,-4.365
99.69,-35.165,-3.849
99.72,-32.428,-3.769
99.75,-31.165,-5.063
99.79,-31.2,-5.831
99.82,-28.813,-2.864
99.85,-23.865,0.0
99.88,-17.688,0.504
99.92,-11.862,0.699
99.95,-4.808,1.375
99.98,0.386,1.799
100.01,1.263,3.036
100.05,4.387,3.654
100.08,5.931,3.608
100.11,7.581,4.387
100.14,11.09,5.464
100.18,16.284,5.957
100.21,21.899,5.751
100.24,27.409,5.441
100.27,32.428,5.281
100.31,36.85,5.121
100.34,40.219,4.72
100.37,42.184,4.147
100.4,42.921,4.135
100.44,43.694,4.995
100.47,45.168,6.266
100.5,47.343,7.572
100.54,50.046,8.683
100.57,53.275,9.588
100.6,57.1,10.367
100.63,61.311,10.894
100.67,65.382,11.215
100.7,69.348,11.421
100.73,73.068,11.57
100.76,76.472,11.73
100.8,79.526,12.235
100.83,82.719,13.014
100.86,85.983,13.678
100.89,89.282,14.354
100.93,92.651,14.938
100.96,96.301,15.385
100.99,99.53,15.832
101.02,102.899,16.301
101.06,106.409,16.714
101.09,109.637,17.229
101.12,112.726,17.55
101.15,115.744,17.802
101.19,118.411,18.088
101.22,121.114,18.604
101.25,124.097,19.199
101.28,126.904,19.715
101.32,129.958,20.448
101.35,133.292,20.998
101.38,136.696,21.594
101.41,139.89,22.029
101.45,143.224,22.281
101.48,146.417,22.522
101.51,149.19,22.762
101.54,151.892,23.049
101.58,154.559,23.484
101.61,157.121,23.954
101.64,159.824,24.4
101.67,162.526,24.755
101.71,165.123,25.179
101.74,167.755,25.66
101.77,170.633,26.176
101.8,173.405,26.588
101.84,176.248,26.932
101.87,179.091,27.23
101.9,181.583,27.516
101.94,184.109,27.757
101.97,186.426,27.986
102.0,188.531,28.318
102.03,190.848,28.765
102.07,193.234,29.109
102.1,195.235,29.338
102.13,197.235,29.601
102.16,199.2,29.83
102.2,200.99,30.059
102.23,202.815,30.266
102.26,204.5,30.472
102.29,206.255,30.85
102.33,208.115,31.262
102.36,210.01,31.571
102.39,211.94,31.927
102.42,213.94,32.19
102.46,215.906,32.328
102.49,217.625,32.454
102.52,219.275,32.58
102.55,220.784,32.774
102.59,222.328,32.981
102.62,223.837,33.324
102.65,225.627,33.656
102.68,227.522,34.172
102.72,229.628,34.836
102.75,232.014,35.18
102.78,234.05,35.054
102.81,235.629,34.905
102.85,237.384,35.02
102.88,238.928,35.203
102.91,240.262,35.501
102.94,241.595,35.799
102.98,243.385,36.337
103.01,245.28,36.795
103.04,247.176,37.001
103.07,248.86,37.047
103.11,250.439,37.047
103.14,251.913,37.116
103.17,253.247,37.265
103.2,254.51,37.551
103.24,255.914,37.849
103.27,257.283,37.975
103.3,258.406,38.113
103.34,259.74,38.342
103.37,260.933,38.422
103.4,262.021,38.64
103.43,263.354,38.892
103.47,264.548,39.052
103.5,265.741,39.201
103.53,266.969,39.361
103.56,268.163,39.59
103.6,269.391,39.762
103.63,270.479,39.854
103.66,271.567,39.968
103.69,272.725,40.163
103.73,273.813,40.301
103.76,274.796,40.301
103.79,275.603,40.301
103.82,276.27,40.369
103.86,276.831,40.381
103.89,277.287,40.369
103.92,277.673,40.61
103.95,278.165,40.53
103.99,278.621,40.816
104.02,279.533,41.251
104.05,280.376,41.297
104.08,281.113,41.446
104.12,281.639,41.194
104.15,281.92,40.988
104.18,282.411,41.16
104.21,282.903,41.309
104.25,283.253,41.286
104.28,283.429,41.251
104.31,283.569,41.24
104.34,283.499,41.08
104.38,283.183,40.724
104.41,282.446,40.495
104.44,281.85,40.576
104.47,281.393,40.77
104.51,280.937,40.77
104.54,280.27,40.553
104.57,279.393,40.289
104.6,278.516,40.106
104.64,277.428,39.831
104.67,276.094,39.51
104.7,274.936,39.499
104.74,273.848,39.636
104.77,272.9,39.567
104.8,271.812,39.281
104.83,270.514,38.926
104.87,269.145,38.662
104.9,267.636,38.342
104.93,265.987,38.055
104.96,264.407,37.918
105.0,262.933,37.895
105.03,261.705,37.838
105.06,260.371,37.62
105.09,258.897,37.345
105.13,257.458,37.047
105.16,256.09,36.784
105.19,254.581,36.52
105.22,252.966,36.268
105.26,251.387,36.074
105.29,249.913,35.948
105.32,248.404,35.764
105.35,246.825,35.409
105.39,245.0,35.054
105.42,243.21,34.756
105.45,241.385,34.493
105.48,239.49,34.241
105.52,237.63,34.092
105.55,236.156,34.057
105.58,234.962,34.195
105.61,233.839,34.138
105.65,232.541,33.668
105.68,230.927,32.923
105.71,228.961,32.305
105.74,226.82,31.995
105.78,224.715,31.824
105.81,222.574,31.732
105.84,220.538,31.583
105.87,218.468,31.285
105.91,216.327,30.93
105.94,214.397,30.701
105.97,212.502,30.495
106.0,210.501,30.311
106.04,208.887,30.105
106.07,207.237,29.91
106.1,205.658,29.635
106.13,203.973,29.154
106.17,201.973,28.639
106.2,199.727,28.238
106.23,197.516,27.837
106.27,195.2,27.608
106.3,193.059,27.539
106.33,191.058,27.344
106.36,189.128,27.092
106.4,187.128,26.84
106.43,185.092,26.359
106.46,182.846,25.752
106.49,180.495,25.259
106.53,177.898,24.847
106.56,175.371,24.481
106.59,172.668,24.217
106.62,170.107,23.816
106.66,167.299,23.358
106.69,164.386,22.877
106.72,161.543,22.499
106.75,158.946,22.212
106.79,156.139,21.972
106.82,153.612,21.72
106.85,151.295,21.33
106.88,148.769,20.895
106.92,146.172,20.46
106.95,143.75,20.104
106.98,140.942,19.452
107.01,137.959,19.005
107.05,135.117,18.489
107.08,132.028,18.065
107.11,128.94,17.756
107.14,126.132,17.367
107.18,123.009,16.908
107.21,119.92,16.404
107.24,116.867,15.82
107.27,113.498,15.27
107.31,110.129,14.915
107.34,107.216,14.56
107.37,104.057,14.079
107.4,100.829,13.575
107.44,97.53,12.865
107.47,93.845,12.131
107.5,89.984,11.478
107.53,86.159,10.814
107.57,82.158,10.253
107.6,78.192,9.955
107.63,74.718,9.668
107.67,71.243,9.279
107.7,67.699,8.855
107.73,64.61,8.328
107.76,61.417,7.698
107.8,58.047,7.309
107.83,55.099,7.034
107.86,52.327,6.53
107.89,49.063,5.957
107.93,45.869,5.373
107.96,42.606,4.788
107.99,39.096,4.307
108.02,35.692,3.895
108.06,33.025,3.895
108.09,31.586,5.189
108.12,31.27,5.579
108.15,28.427,2.394
108.19,22.847,-0.344
108.22,16.46,-0.573
108.25,10.844,-0.493
108.28,4.352,-0.894
108.32,-0.07,-1.134
108.35,-0.456,-2.108
108.38,-2.702,-2.807
108.41,-4.773,-2.978
108.45,-6.387,-4.319
108.48,-9.897,-5.865
108.51,-15.266,-6.232
108.54,-21.198,-6.094
108.58,-27.164,-5.911
108.61,-32.603,-5.567
108.64,-37.061,-5.189
108.67,-40.605,-4.846
108.71,-42.957,-4.41
108.74,-43.694,-4.273
108.77,-44.185,-4.88
108.8,-45.554,-6.117
108.84,-47.554,-7.664
108.87,-50.502,-9.222
108.9,-54.468,-10.413
108.93,-58.82,-11.112
108.97,-63.522,-11.536
109.0,-68.085,-11.673
109.03,-71.77,-11.536
109.07,-75.069,-11.467
109.1,-78.122,-11.444
109.13,-80.298,-11.799
109.16,-82.474,-12.647
109.2,-85.492,-13.483
109.23,-88.229,-14.148
109.26,-91.002,-14.858
109.29,-94.511,-15.499
109.33,-97.916,-16.049
109.36,-101.355,-16.507
109.39,-105.075,-16.828
109.42,-108.234,-16.966
109.46,-111.182,-17.458
109.49,-114.481,-17.813
109.52,-117.569,-18.386
109.55,-120.377,-18.947
109.59,-123.64,-19.348
109.62,-126.869,-19.841
109.65,-129.782,-20.425
109.68,-133.292,-21.181
109.72,-136.801,-21.605
109.75,-139.609,-21.869
109.78,-142.451,-21.651
109.81,-144.838,-21.708
109.85,-146.768,-22.189
109.88,-149.33,-22.808
109.91,-151.962,-23.346
109.94,-154.454,-24.125
109.98,-157.648,-24.767
110.01,-160.876,-25.191
110.04,-163.86,-25.546
110.07,-167.194,-26.004
110.11,-170.528,-26.268
110.14,-173.019,-26.428
110.17,-175.757,-26.691
110.2,-178.67,-27.058
110.24,-181.021,-27.562
110.27,-183.618,-28.02
110.3,-186.285,-28.272
110.33,-188.531,-28.627
110.37,-190.883,-29.074
110.4,-193.269,-29.143
110.43,-195.129,-29.303
110.46,-197.13,-29.75
110.5,-199.411,-30.174
110.53,-201.341,-30.437
110.56,-203.166,-30.689
110.6,-205.167,-30.77
110.63,-206.816,-30.976
110.66,-208.36,-31.331
110.69,-210.361,-31.675
110.73,-212.115,-31.972
110.76,-213.94,-32.442
110.79,-216.292,-32.877
110.82,-218.398,-33.072
110.86,-220.152,-33.152
110.89,-222.118,-33.301
110.92,-223.837,-33.45
110.95,-225.452,-33.725
110.99,-227.206,-33.851
111.02,-228.786,-34.103
111.05,-230.26,-34.596
111.08,-231.979,-34.825
111.12,-233.453,-34.768
111.15,-234.541,-34.813
111.18,-236.156,-35.329
111.21,-237.91,-35.799
111.25,-239.665,-36.085
111.28,-241.35,-36.142
111.31,-242.929,-36.234
111.34,-244.438,-36.578
111.38,-246.193,-36.795
111.41,-247.807,-36.818
111.44,-249.071,-37.047
111.47,-250.615,-37.345
111.51,-252.089,-37.54
111.54,-253.387,-37.803
111.57,-254.861,-38.044
111.6,-256.476,-38.227
111.64,-257.88,-38.41
111.67,-259.319,-38.582
111.7,-260.757,-38.651
111.73,-261.951,-38.777
111.77,-263.039,-38.949
111.8,-264.337,-39.098
111.83,-265.39,-39.327
111.86,-266.618,-39.636
111.9,-267.952,-39.774
111.93,-269.11,-39.934
111.96,-270.303,-40.152
112.0,-271.707,-40.266
112.03,-272.865,-40.404
112.06,-274.094,-40.656
112.09,-275.287,-40.679
112.13,-276.129,-40.644
112.16,-276.866,-40.633
112.19,-277.498,-40.633
112.22,-277.954,-40.621
112.26,-278.551,-40.988
112.29,-279.323,-41.251
112.32,-279.99,-41.355
112.35,-280.516,-41.343
112.39,-281.183,-41.412
112.42,-281.779,-41.481
112.45,-281.779,-41.022
112.48,-281.639,-40.77
112.52,-281.674,-41.057
112.55,-281.709,-41.24
112.58,-282.06,-41.4
112.61,-282.025,-41.332
112.65,-281.99,-41.229
112.68,-282.095,-41.274
112.71,-281.639,-40.839
112.74,-280.937,-40.621
112.78,-280.516,-40.747
112.81,-280.2,-40.999
112.84,-279.884,-40.954
112.87,-279.218,-40.702
112.91,-278.621,-40.472
112.94,-277.779,-40.198
112.97,-276.62,-39.865
113.0,-275.497,-39.682
113.04,-274.409,-39.751
113.07,-273.462,-39.854
113.1,-272.585,-39.785
113.13,-271.707,-39.636
113.17,-270.689,-39.327
113.2,-269.391,-38.857
113.23,-267.706,-38.445
113.26,-266.197,-38.262
113.3,-264.653,-38.273
113.33,-263.425,-38.273
113.36,-262.196,-38.181
113.4,-261.073,-38.147
113.43,-260.02,-37.803
113.46,-258.441,-37.07
113.49,-256.721,-36.921
113.53,-255.388,-37.013
113.56,-254.054,-36.784
113.59,-252.405,-36.463
113.62,-251.106,-36.417
113.66,-249.983,-36.452
113.69,-248.579,-36.016
113.72,-246.86,-35.455
113.75,-245.07,-35.077
113.79,-243.14,-34.882
113.82,-241.28,-34.653
113.85,-239.349,-34.367
113.88,-237.384,-34.321
113.92,-235.699,-34.229
113.95,-234.015,-33.92
113.98,-232.155,-33.53
114.01,-230.295,-33.152
114.05,-228.505,-32.935
114.08,-226.715,-32.832
114.11,-225.101,-32.717
114.14,-223.592,-32.545
114.18,-222.188,-32.305
114.21,-220.538,-31.824
114.24,-218.573,-31.274
114.27,-216.432,-30.815
114.31,-214.151,-30.518
114.34,-212.01,-30.266
114.37,-209.799,-30.082
114.4,-207.693,-29.968
114.44,-205.939,-29.819
114.47,-203.868,-29.406
114.5,-201.833,-28.925
114.53,-199.727,-28.536
114.57,-197.586,-28.249
114.6,-195.41,-28.032
114.63,-193.41,-27.734
114.66,-191.374,-27.47
114.7,-189.374,-27.253
114.73,-187.338,-26.795
114.76,-184.952,-26.176
114.8,-182.285,-25.546
114.83,-179.407,-25.03
114.86,-176.564,-24.664
114.89,-173.616,-24.481
114.93,-170.949,-24.286
114.96,-168.317,-23.931
114.99,-165.72,-23.53
115.02,-163.123,-23.117
115.06,-160.455,-22.682
115.09,-157.718,-22.224
115.12,-155.051,-21.857
115.15,-152.419,-21.525
115.19,-149.786,-21.124
115.22,-147.154,-20.757
115.25,-144.627,-20.391
115.28,-141.995,-19.944
115.32,-139.468,-19.589
115.35,-137.117,-19.383
115.38,-134.695,-19.108
115.41,-132.309,-18.776
115.45,-130.028,-18.386
115.48,-127.571,-17.768
115.51,-124.658,-17.057
115.54,-121.5,-16.45
115.58,-118.201,-15.832
115.61,-114.621,-15.316
115.64,-111.182,-14.915
115.67,-107.707,-14.56
115.71,-104.233,-14.113
115.74,-100.723,-13.586
115.77,-97.249,-12.968
115.8,-93.634,-12.383
115.84,-90.089,-11.856
115.87,-86.545,-11.398
115.9,-83.0,-10.974
115.93,-79.666,-10.493
115.97,-76.016,-9.668
116.0,-72.191,-9.142
116.03,-68.646,-8.798
116.06,-65.312,-8.305
116.1,-61.557,-7.675
116.13,-57.802,-6.999
116.16,-54.082,-6.484
116.19,-50.677,-6.197
116.23,-47.659,-6.14
116.26,-44.922,-5.831
116.29,-41.904,-5.224
116.33,-38.85,-4.468
116.36,-35.657,-3.849
116.39,-33.095,-3.861
116.42,-32.112,-5.43
116.46,-32.112,-5.659
116.49,-29.024,-2.165
116.52,-23.479,0.424
116.55,-17.056,0.676
116.59,-11.02,1.008
116.62,-3.334,1.638
116.65,0.632,2.096
