Trigger_Date,2023/06/28
Trigger_Time,T 11:06:31.283 PDT
Samples_Per_Cycle,512
Microseconds_Per_Sample,32.549
Time (ms),Voltage (V),Current (A)
-16.67,-0.983,-2.99
-16.63,-3.931,-3.723
-16.6,-5.826,-3.792
-16.57,-7.896,-4.96
-16.53,-11.757,-5.739
-16.5,-16.811,-5.613
-16.47,-22.145,-5.636
-16.44,-27.55,-5.613
-16.4,-32.533,-5.304
-16.37,-36.604,-4.811
-16.34,-39.166,-4.158
-16.31,-40.254,-3.792
-16.27,-40.746,-3.929
-16.24,-41.272,-4.731
-16.21,-42.395,-6.163
-16.18,-44.957,-7.767
-16.14,-48.502,-9.096
-16.11,-52.538,-10.15
-16.08,-57.065,-10.894
-16.05,-61.908,-11.272
-16.01,-66.365,-11.318
-15.98,-70.471,-11.249
-15.95,-73.911,-11.204
-15.92,-76.508,-11.49
-15.88,-79.42,-11.902
-15.85,-82.018,-12.487
-15.82,-84.544,-13.369
-15.79,-87.738,-14.262
-15.75,-91.107,-14.915
-15.72,-94.406,-15.442
-15.69,-98.021,-15.877
-15.66,-101.53,-16.244
-15.62,-104.759,-16.702
-15.59,-108.234,-17.126
-15.56,-111.673,-17.538
-15.53,-114.621,-17.997
-15.49,-117.885,-18.421
-15.46,-121.149,-18.821
-15.43,-124.026,-19.303
-15.4,-127.01,-19.91
-15.36,-130.449,-20.505
-15.33,-133.748,-21.055
-15.3,-136.942,-21.445
-15.27,-140.381,-21.869
-15.23,-143.013,-21.972
-15.2,-145.575,-22.201
-15.17,-148.523,-22.625
-15.14,-151.05,-23.117
-15.1,-153.752,-23.69
-15.07,-156.735,-24.114
-15.04,-159.473,-24.584
-15.01,-162.07,-24.996
-14.97,-165.053,-25.271
-14.94,-167.65,-25.5
-14.91,-170.036,-25.821
-14.87,-172.528,-26.084
-14.84,-174.844,-26.497
-14.81,-177.161,-27.069
-14.78,-179.968,-27.551
-14.74,-182.6,-27.86
-14.71,-184.917,-28.146
-14.68,-187.303,-28.387
-14.65,-189.584,-28.627
-14.61,-191.62,-28.925
-14.58,-193.831,-29.235
-14.55,-196.077,-29.601
-14.52,-198.148,-29.979
-14.48,-200.288,-30.254
-14.45,-202.324,-30.392
-14.42,-203.973,-30.54
-14.39,-205.763,-30.77
-14.35,-207.623,-31.022
-14.32,-209.308,-31.4
-14.29,-211.238,-31.824
-14.26,-213.274,-32.213
-14.22,-215.239,-32.557
-14.19,-217.274,-32.774
-14.16,-219.275,-32.923
-14.13,-221.135,-33.118
-14.09,-223.03,-33.37
-14.06,-224.855,-33.576
-14.03,-226.505,-33.908
-14.0,-228.329,-34.241
-13.96,-230.19,-34.447
-13.93,-231.734,-34.63
-13.9,-233.243,-34.768
-13.87,-235.068,-35.088
-13.83,-236.717,-35.352
-13.8,-238.297,-35.638
-13.77,-240.051,-35.913
-13.74,-241.806,-36.222
-13.7,-243.701,-36.44
-13.67,-245.386,-36.52
-13.64,-246.754,-36.555
-13.61,-248.193,-36.704
-13.57,-249.632,-36.875
-13.54,-250.861,-37.127
-13.51,-251.949,-37.483
-13.48,-253.352,-37.872
-13.44,-254.897,-38.09
-13.41,-256.195,-38.204
-13.38,-257.669,-38.273
-13.35,-259.003,-38.33
-13.31,-260.231,-38.433
-13.28,-261.459,-38.582
-13.25,-262.758,-38.857
-13.21,-264.091,-39.167
-13.18,-265.355,-39.247
-13.15,-266.583,-39.327
-13.12,-267.706,-39.487
-13.08,-268.794,-39.671
-13.05,-269.917,-39.785
-13.02,-271.005,-40.014
-12.99,-272.163,-40.312
-12.95,-273.392,-40.45
-12.92,-274.445,-40.438
-12.89,-275.322,-40.45
-12.86,-276.164,-40.392
-12.82,-276.585,-40.346
-12.79,-276.971,-40.438
-12.76,-277.463,-40.679
-12.73,-278.059,-40.896
-12.69,-278.586,-40.999
-12.66,-279.147,-40.999
-12.63,-279.674,-41.103
-12.6,-280.446,-41.343
-12.56,-281.078,-41.32
-12.53,-281.323,-40.988
-12.5,-281.534,-40.908
-12.47,-281.885,-41.16
-12.43,-282.025,-41.194
-12.4,-282.025,-41.08
-12.37,-281.955,-40.965
-12.34,-281.744,-40.908
-12.3,-281.323,-40.713
-12.27,-280.832,-40.61
-12.24,-280.411,-40.713
-12.21,-280.2,-40.908
-12.17,-280.025,-40.85
-12.14,-279.568,-40.667
-12.11,-279.042,-40.438
-12.08,-278.27,-40.198
-12.04,-277.428,-39.911
-12.01,-276.34,-39.739
-11.98,-275.287,-39.716
-11.95,-274.304,-39.705
-11.91,-273.357,-39.602
-11.88,-272.304,-39.396
-11.85,-271.005,-39.144
-11.82,-269.637,-38.823
-11.78,-268.163,-38.422
-11.75,-266.408,-38.147
-11.72,-264.828,-38.136
-11.69,-263.39,-38.09
-11.65,-262.091,-38.01
-11.62,-260.968,-37.918
-11.59,-259.599,-37.62
-11.55,-258.16,-37.185
-11.52,-256.581,-36.761
-11.49,-254.791,-36.486
-11.46,-253.107,-36.348
-11.42,-251.598,-36.268
-11.39,-250.159,-36.142
-11.36,-248.544,-35.993
-11.33,-247.07,-35.73
-11.29,-245.456,-35.34
-11.26,-243.701,-34.997
-11.23,-241.982,-34.768
-11.2,-240.402,-34.619
-11.16,-238.718,-34.401
-11.13,-236.963,-34.172
-11.1,-235.313,-33.931
-11.07,-233.594,-33.622
-11.03,-231.804,-33.255
-11.0,-230.049,-32.969
-10.97,-228.154,-32.797
-10.94,-226.294,-32.602
-10.9,-224.574,-32.339
-10.87,-222.82,-32.098
-10.84,-220.924,-31.766
-10.81,-219.099,-31.342
-10.77,-217.099,-30.976
-10.74,-214.888,-30.609
-10.71,-212.782,-30.483
-10.68,-210.957,-30.403
-10.64,-209.203,-30.277
-10.61,-207.623,-30.059
-10.58,-205.939,-29.727
-10.55,-204.008,-29.292
-10.51,-202.043,-28.857
-10.48,-200.008,-28.421
-10.45,-197.797,-28.055
-10.42,-195.656,-27.814
-10.38,-193.515,-27.574
-10.35,-191.304,-27.31
-10.32,-189.198,-27.058
-10.29,-187.128,-26.611
-10.25,-184.706,-26.107
-10.22,-182.214,-25.695
-10.19,-179.723,-25.237
-10.16,-177.09,-24.904
-10.12,-174.634,-24.744
-10.09,-172.353,-24.435
-10.06,-169.896,-24.045
-10.03,-167.299,-23.587
-9.99,-164.842,-23.117
-9.96,-162.07,-22.636
-9.93,-159.122,-22.247
-9.89,-156.595,-21.903
-9.86,-153.928,-21.754
-9.83,-151.12,-21.227
-9.8,-148.488,-20.712
-9.76,-145.61,-20.23
-9.73,-142.697,-19.807
-9.7,-140.1,-19.6
-9.67,-137.328,-19.199
-9.63,-134.555,-19.005
-9.6,-132.169,-18.627
-9.57,-129.572,-18.134
-9.54,-126.834,-17.653
-9.5,-124.132,-17.092
-9.47,-121.254,-16.496
-9.44,-117.885,-15.935
-9.41,-114.691,-15.476
-9.37,-111.462,-15.121
-9.34,-108.128,-14.869
-9.31,-105.251,-14.411
-9.28,-102.197,-13.77
-9.24,-98.582,-13.208
-9.21,-95.284,-12.681
-9.18,-91.879,-11.994
-9.15,-87.984,-11.421
-9.11,-84.369,-10.894
-9.08,-80.824,-10.299
-9.05,-76.964,-9.737
-9.02,-73.138,-9.371
-8.98,-69.769,-8.912
-8.95,-66.014,-8.431
-8.92,-62.575,-7.973
-8.89,-59.171,-7.343
-8.85,-55.45,-6.782
-8.82,-51.836,-6.346
-8.79,-48.607,-5.854
-8.76,-45.062,-5.338
-8.72,-41.447,-4.823
-8.69,-38.113,-4.193
-8.66,-34.323,-3.62
-8.63,-30.989,-3.574
-8.59,-29.515,-4.777
-8.56,-28.883,-5.292
-8.53,-26.181,-2.555
-8.5,-21.654,-0.252
-8.46,-16.46,0.011
-8.43,-11.546,0.023
-8.4,-5.966,0.699
-8.37,-0.316,1.042
-8.33,0.526,1.879
-8.3,2.351,2.956
-8.27,4.984,3.196
-8.23,6.528,4.113
-8.2,9.897,5.659
-8.17,15.196,6.232
-8.14,20.882,5.739
-8.1,26.041,5.247
-8.07,30.814,5.04
-8.04,35.06,4.96
-8.01,38.429,4.88
-7.97,40.781,4.651
-7.94,42.255,4.433
-7.91,42.992,4.857
-7.88,44.08,6.049
-7.84,46.396,7.469
-7.81,49.519,8.718
-7.78,53.029,9.829
-7.75,57.24,10.688
-7.71,61.592,11.238
-7.68,66.049,11.478
-7.65,70.366,11.478
-7.62,73.77,11.478
-7.58,76.508,11.708
-7.55,79.491,12.028
-7.52,82.123,12.475
-7.49,84.544,13.277
-7.45,87.808,14.102
-7.42,91.037,14.732
-7.39,94.125,15.408
-7.36,97.81,15.98
-7.32,101.495,16.45
-7.29,104.97,16.977
-7.26,108.69,17.344
-7.23,112.34,17.607
-7.19,115.112,17.985
-7.16,118.341,18.386
-7.13,121.57,18.604
-7.1,124.062,19.085
-7.06,126.904,19.726
-7.03,130.133,20.311
-7.0,133.186,21.009
-6.97,136.31,21.559
-6.93,139.819,21.914
-6.9,142.662,22.109
-6.87,145.47,22.419
-6.84,148.488,22.579
-6.8,150.664,22.831
-6.77,152.91,23.266
-6.74,155.577,23.69
-6.71,157.964,24.137
-6.67,160.315,24.698
-6.64,163.087,25.156
-6.61,165.72,25.534
-6.57,168.317,25.878
-6.54,171.124,26.187
-6.51,173.756,26.577
-6.48,176.318,27.207
-6.44,179.372,27.631
-6.41,182.039,27.86
-6.38,184.25,27.997
-6.35,186.707,28.02
-6.31,188.672,28.158
-6.28,190.427,28.662
-6.25,192.848,29.235
-6.22,195.375,29.67
-6.18,197.481,30.174
-6.15,200.113,30.667
-6.12,202.464,30.896
-6.09,204.675,31.022
-6.05,206.956,31.228
-6.02,209.378,31.537
-5.99,211.343,31.927
-5.96,213.519,32.259
-5.92,215.52,32.373
-5.89,217.204,32.499
-5.86,218.854,32.614
-5.83,220.538,32.763
-5.79,221.767,33.061
-5.76,223.311,33.393
-5.73,224.925,33.714
-5.7,226.505,34.115
-5.66,228.365,34.481
-5.63,230.33,34.722
-5.6,231.944,34.871
-5.57,233.594,34.917
-5.53,235.349,35.008
-5.5,236.823,35.283
-5.47,238.332,35.673
-5.44,240.051,35.902
-5.4,241.42,36.142
-5.37,242.929,36.44
-5.34,244.649,36.6
-5.31,246.088,36.692
-5.27,247.527,36.91
-5.24,249.281,37.173
-5.21,250.826,37.437
-5.18,252.335,37.666
-5.14,254.054,37.849
-5.11,255.669,38.055
-5.08,256.967,38.227
-5.05,258.266,38.227
-5.01,259.319,38.239
-4.98,260.406,38.399
-4.95,261.67,38.64
-4.91,262.863,38.869
-4.88,263.881,39.144
-4.85,265.215,39.396
-4.82,266.443,39.579
-4.78,267.741,39.751
-4.75,269.04,39.819
-4.72,270.198,39.877
-4.69,271.286,40.083
-4.65,272.514,40.278
-4.62,273.567,40.461
-4.59,274.62,40.61
-4.56,275.603,40.598
-4.52,276.34,40.541
-4.49,276.866,40.507
-4.46,277.322,40.45
-4.43,277.708,40.576
-4.39,278.165,40.942
-4.36,278.726,41.103
-4.33,279.358,41.183
-4.3,279.849,41.16
-4.26,280.516,41.412
-4.23,281.113,41.309
-4.2,281.183,41.022
-4.17,281.464,41.125
-4.13,281.955,41.515
-4.1,282.411,41.561
-4.07,282.516,41.251
-4.04,282.481,41.148
-4.0,282.236,40.931
-3.97,281.85,40.839
-3.94,281.288,40.598
-3.91,280.621,40.598
-3.87,280.025,40.828
-3.84,279.709,40.965
-3.81,279.428,40.862
-3.78,278.831,40.621
-3.74,278.024,40.335
-3.71,277.147,39.968
-3.68,275.989,39.659
-3.65,274.831,39.648
-3.61,273.848,39.774
-3.58,272.935,39.728
-3.55,271.812,39.51
-3.52,270.795,39.235
-3.48,269.672,38.926
-3.45,268.163,38.571
-3.42,266.548,38.193
-3.39,264.934,38.01
-3.35,263.354,38.01
-3.32,261.951,37.998
-3.29,260.547,37.849
-3.25,259.108,37.643
-3.22,257.739,37.425
-3.19,256.406,37.116
-3.16,254.932,36.841
-3.12,253.528,36.669
-3.09,252.159,36.452
-3.06,250.65,36.211
-3.03,249.141,36.016
-2.99,247.667,35.741
-2.96,246.053,35.398
-2.93,244.228,35.088
-2.9,242.613,34.871
-2.86,240.718,34.63
-2.83,238.753,34.401
-2.8,237.138,34.286
-2.77,235.489,33.966
-2.73,233.559,33.553
-2.7,231.664,33.141
-2.67,229.628,32.946
-2.64,227.733,32.82
-2.6,226.013,32.66
-2.57,224.258,32.454
-2.54,222.609,32.167
-2.51,221.1,32.053
-2.47,219.661,31.858
-2.44,217.976,31.48
-2.41,216.362,31.125
-2.38,214.642,30.815
-2.34,212.817,30.552
-2.31,210.957,30.254
-2.28,209.097,29.979
-2.25,207.062,29.658
-2.21,204.921,29.212
-2.18,202.64,28.776
-2.15,200.183,28.387
-2.12,197.832,28.078
-2.08,195.515,27.906
-2.05,193.304,27.78
-2.02,191.269,27.619
-1.99,189.374,27.356
-1.95,187.373,26.955
-1.92,185.303,26.428
-1.89,183.092,25.912
-1.86,180.565,25.397
-1.82,177.933,25.007
-1.79,175.406,24.79
-1.76,172.984,24.492
-1.73,170.422,24.068
-1.69,167.65,23.553
-1.66,164.912,23.117
-1.63,162.14,22.693
-1.59,159.332,22.235
-1.56,156.49,21.857
-1.53,153.577,21.617
-1.5,150.98,21.319
-1.46,148.207,20.78
-1.43,145.294,20.311
-1.4,142.487,19.956
-1.37,139.609,19.394
-1.33,136.836,19.177
-1.3,134.204,18.959
-1.27,131.783,18.753
-1.24,129.396,18.34
-1.2,126.799,17.79
-1.17,124.097,17.241
-1.14,121.184,16.714
-1.11,118.306,16.129
-1.07,115.147,15.591
-1.04,111.989,15.144
-1.01,108.725,14.743
-0.98,105.566,14.308
-0.94,102.303,13.77
-0.91,98.828,13.105
-0.88,95.213,12.487
-0.85,91.423,11.891
-0.81,87.668,11.284
-0.78,83.948,10.848
-0.75,80.298,10.459
-0.72,76.683,10.001
-0.68,73.174,9.474
-0.65,69.664,8.97
-0.62,66.154,8.466
-0.59,62.785,7.939
-0.55,59.451,7.389
-0.52,56.047,6.908
-0.49,52.678,6.472
-0.46,49.309,6.083
-0.42,46.045,5.625
-0.39,42.746,5.144
-0.36,39.307,4.582
-0.33,35.902,3.987
-0.29,32.849,3.861
-0.26,31.305,5.018
-0.23,30.954,5.705
-0.2,28.568,3.047
-0.16,23.865,0.355
-0.13,18.039,-0.218
-0.1,12.424,-0.47
-0.07,5.685,-1.226
-0.03,0.035,-1.558
0.0,-0.667,-2.555
0.03,-3.123,-3.276
0.07,-5.089,-3.311
0.1,-6.703,-4.513
0.13,-10.248,-5.739
0.16,-15.337,-5.865
0.2,-20.847,-5.739
0.23,-26.427,-5.625
0.26,-31.445,-5.212
0.29,-35.587,-4.777
0.33,-38.499,-4.365
0.36,-40.219,-4.113
0.39,-41.167,-4.158
0.42,-41.869,-4.823
0.46,-43.167,-6.117
0.49,-45.518,-7.675
0.52,-48.853,-9.038
0.55,-52.818,-10.081
0.59,-57.17,-10.837
0.62,-61.908,-11.272
0.65,-66.26,-11.433
0.68,-70.401,-11.444
0.72,-73.981,-11.433
0.75,-76.964,-11.627
0.78,-79.631,-11.983
0.81,-82.123,-12.509
0.85,-84.65,-13.231
0.88,-87.563,-14.09
0.91,-90.826,-14.949
0.94,-94.371,-15.66
0.98,-97.986,-16.187
1.01,-101.601,-16.588
1.04,-105.11,-16.943
1.07,-108.655,-17.321
1.11,-112.129,-17.71
1.14,-115.147,-18.065
1.17,-118.06,-18.478
1.2,-121.043,-18.936
1.24,-124.026,-19.406
1.27,-126.869,-19.944
1.3,-130.133,-20.551
1.33,-133.327,-21.25
1.37,-136.555,-21.731
1.4,-139.995,-22.189
1.43,-142.802,-22.132
1.46,-145.364,-22.247
1.5,-148.102,-22.762
1.53,-150.769,-23.301
1.56,-153.331,-23.805
1.59,-155.963,-24.217
1.63,-158.63,-24.813
1.66,-161.473,-25.317
1.69,-164.421,-25.626
1.73,-167.194,-25.844
1.76,-169.65,-26.119
1.79,-172.212,-26.371
1.82,-174.739,-26.68
1.86,-177.126,-27.173
1.89,-179.793,-27.631
1.92,-182.32,-28.043
1.95,-184.741,-28.41
1.99,-187.163,-28.65
2.02,-189.514,-28.834
2.05,-191.585,-29.086
2.08,-193.866,-29.509
2.12,-196.112,-29.91
2.15,-198.077,-30.254
2.18,-200.113,-30.529
2.21,-202.184,-30.667
2.25,-203.938,-30.77
2.28,-205.623,-31.033
2.31,-207.343,-31.331
2.34,-209.097,-31.686
2.38,-210.992,-32.076
2.41,-212.923,-32.476
2.44,-214.853,-32.877
2.47,-216.959,-33.164
2.51,-219.029,-33.301
2.54,-220.854,-33.427
2.57,-222.784,-33.714
2.6,-224.715,-33.966
2.64,-226.54,-34.309
2.67,-228.329,-34.55
2.7,-230.365,-34.825
2.73,-232.014,-35.031
2.77,-233.348,-35.02
2.8,-234.892,-35.306
2.83,-236.542,-35.65
2.86,-238.156,-35.97
2.9,-239.876,-36.245
2.93,-241.631,-36.543
2.96,-243.456,-36.83
2.99,-245.21,-36.956
3.03,-246.649,-37.001
3.06,-248.018,-37.07
3.09,-249.422,-37.219
3.12,-250.72,-37.505
3.16,-252.019,-37.838
3.19,-253.493,-38.124
3.22,-254.967,-38.273
3.25,-256.195,-38.388
3.29,-257.494,-38.548
3.32,-258.687,-38.651
3.35,-259.845,-38.766
3.39,-261.073,-39.018
3.42,-262.267,-39.27
3.45,-263.6,-39.453
3.48,-264.864,-39.625
3.52,-266.092,-39.888
3.55,-267.426,-40.014
3.58,-268.654,-40.094
3.61,-269.742,-40.198
3.65,-270.865,-40.392
3.68,-272.058,-40.621
3.71,-273.216,-40.816
3.74,-274.339,-40.908
3.78,-275.252,-40.885
3.81,-276.024,-40.805
3.84,-276.48,-40.782
3.87,-276.936,-40.816
3.91,-277.428,-41.068
3.94,-278.059,-41.309
3.97,-278.516,-41.423
4.0,-279.077,-41.377
4.04,-279.604,-41.423
4.07,-280.13,-41.618
4.1,-280.446,-41.355
4.13,-280.551,-41.274
4.17,-280.867,-41.515
4.2,-281.288,-41.71
4.23,-281.534,-41.641
4.26,-281.744,-41.675
4.3,-281.92,-41.595
4.33,-281.744,-41.4
4.36,-281.358,-41.137
4.39,-280.867,-41.034
4.43,-280.446,-41.114
4.46,-280.06,-41.194
4.49,-279.709,-41.171
4.52,-279.288,-41.148
4.56,-278.831,-40.931
4.59,-278.059,-40.564
4.62,-277.042,-40.278
4.65,-275.954,-40.117
4.69,-274.971,-40.094
4.72,-274.094,-40.209
4.75,-273.251,-40.209
4.78,-272.374,-39.945
4.82,-271.111,-39.51
4.85,-269.672,-39.121
4.88,-268.092,-38.731
4.91,-266.408,-38.491
4.95,-264.723,-38.422
4.98,-263.249,-38.433
5.01,-261.88,-38.41
5.05,-260.652,-38.319
5.08,-259.389,-38.01
5.11,-257.915,-37.528
5.14,-256.335,-37.208
5.18,-254.756,-37.013
5.21,-253.177,-36.83
5.24,-251.527,-36.578
5.27,-249.983,-36.44
5.31,-248.544,-36.314
5.34,-246.93,-35.993
5.37,-245.105,-35.615
5.4,-243.35,-35.329
5.44,-241.455,-35.065
5.47,-239.665,-34.871
5.5,-238.016,-34.768
5.53,-236.507,-34.63
5.57,-234.962,-34.401
5.6,-233.488,-34.057
5.63,-231.839,-33.656
5.66,-230.014,-33.359
5.7,-228.224,-33.141
5.73,-226.469,-32.889
5.76,-224.644,-32.602
5.79,-222.855,-32.408
5.83,-220.959,-32.179
5.86,-219.064,-31.858
5.89,-217.169,-31.514
5.92,-215.028,-31.01
5.96,-212.923,-30.815
5.99,-211.238,-30.758
6.02,-209.448,-30.563
6.05,-207.623,-30.243
6.09,-205.798,-29.933
6.12,-203.833,-29.498
6.15,-201.657,-29.063
6.18,-199.411,-28.627
6.22,-197.165,-28.284
6.25,-194.954,-28.055
6.28,-192.848,-27.871
6.31,-190.848,-27.734
6.35,-188.918,-27.539
6.38,-186.987,-27.104
6.41,-184.917,-26.52
6.44,-182.46,-25.958
6.48,-179.828,-25.512
6.51,-177.371,-25.168
6.54,-174.844,-24.916
6.57,-172.388,-24.664
6.61,-169.931,-24.274
6.64,-167.194,-23.816
6.67,-164.526,-23.415
6.71,-161.929,-22.98
6.74,-159.122,-22.499
6.77,-156.314,-22.155
6.8,-153.963,-22.063
6.84,-151.225,-21.502
6.87,-148.242,-20.906
6.9,-145.505,-20.402
6.93,-142.451,-19.933
6.97,-139.679,-19.841
7.0,-137.152,-19.429
7.03,-134.45,-19.177
7.06,-131.853,-18.947
7.1,-129.607,-18.512
7.13,-127.185,-17.951
7.16,-124.342,-17.367
7.19,-121.57,-16.714
7.23,-118.341,-16.038
7.26,-114.902,-15.522
7.29,-111.568,-15.098
7.32,-108.199,-14.755
7.36,-104.935,-14.457
7.39,-101.881,-14.056
7.42,-98.653,-13.472
7.45,-95.003,-12.842
7.49,-91.669,-12.166
7.52,-88.159,-11.524
7.55,-84.369,-11.009
7.58,-80.859,-10.493
7.62,-77.139,-9.943
7.65,-73.349,-9.531
7.68,-69.839,-8.993
7.71,-66.19,-8.34
7.75,-62.189,-7.79
7.78,-58.609,-7.309
7.81,-55.17,-6.77
7.84,-51.309,-6.266
7.88,-47.624,-5.865
7.91,-44.395,-5.407
7.94,-40.851,-4.914
7.97,-37.517,-4.422
8.01,-34.358,-3.918
8.04,-31.445,-3.815
8.07,-30.217,-5.029
8.1,-30.147,-5.636
8.14,-27.831,-2.898
8.17,-23.233,-0.504
8.2,-18.004,0.0
8.23,-12.74,0.378
8.27,-6.282,1.272
8.3,-0.211,1.604
8.33,0.842,2.532
8.37,3.299,3.46
8.4,5.58,3.494
8.43,7.089,4.41
8.46,10.634,5.716
8.5,15.828,6.094
8.53,21.338,5.613
8.56,26.392,5.178
8.59,31.129,5.121
8.63,35.622,5.144
8.66,39.307,4.88
8.69,41.132,4.365
8.72,41.974,4.17
8.76,42.746,4.674
8.79,43.694,5.854
8.82,45.624,7.354
8.85,48.782,8.775
8.89,52.502,9.875
8.92,56.714,10.711
8.95,61.206,11.238
8.98,65.663,11.49
9.02,69.839,11.524
9.05,73.524,11.456
9.08,76.262,11.604
9.11,78.894,12.097
9.15,82.053,12.555
9.18,84.79,13.117
9.21,87.317,13.93
9.24,90.651,14.743
9.28,94.02,15.431
9.31,97.389,16.038
9.34,101.285,16.507
9.37,105.005,16.943
9.41,108.339,17.355
9.44,112.059,17.664
9.47,115.253,17.848
9.5,117.885,18.249
9.54,120.903,18.592
9.57,123.781,19.073
9.6,126.448,19.738
9.63,129.536,20.379
9.67,132.835,21.09
9.7,135.924,21.674
9.73,139.468,22.075
9.76,142.697,22.166
9.8,145.259,22.419
9.83,148.137,22.739
9.86,150.874,22.957
9.89,153.015,23.346
9.93,155.542,23.85
9.96,158.35,24.32
9.99,160.806,24.847
10.03,163.368,25.351
10.06,166.351,25.672
10.09,168.808,25.958
10.12,171.405,26.336
10.16,174.283,26.68
10.19,176.845,27.15
10.22,179.512,27.654
10.25,182.46,28.032
10.29,184.846,28.204
10.32,187.057,28.341
10.35,189.479,28.513
10.38,191.55,28.879
10.42,193.655,29.464
10.45,196.182,29.922
10.48,198.499,30.243
10.51,200.674,30.621
10.55,203.131,30.77
10.58,204.921,30.793
10.61,206.535,30.987
10.64,208.501,31.297
10.68,210.396,31.697
10.71,212.08,32.087
10.74,214.081,32.362
10.77,216.151,32.683
10.81,217.976,33.072
10.84,220.222,33.381
10.87,222.258,33.622
10.9,224.258,34.0
10.94,226.469,34.332
10.97,228.716,34.504
11.0,230.611,34.756
11.03,232.822,35.1
11.07,234.998,35.421
11.1,236.893,35.753
11.13,239.104,36.039
11.16,241.28,36.222
11.2,243.069,36.497
11.23,245.105,36.749
11.26,247.07,36.898
11.29,248.579,37.139
11.33,250.369,37.505
11.36,252.37,37.757
11.39,254.16,38.101
11.42,255.984,38.525
11.46,257.95,38.708
11.49,259.354,38.525
11.52,260.442,38.307
11.55,261.389,38.284
11.59,261.88,38.296
11.62,262.267,38.388
11.65,262.828,38.582
11.69,263.39,39.018
11.72,264.337,39.499
11.75,265.565,39.808
11.78,266.864,40.072
11.82,268.338,40.22
11.85,269.742,40.129
11.88,270.76,40.083
11.91,271.848,40.129
11.95,272.9,40.232
11.98,273.848,40.461
12.01,274.831,40.747
12.04,275.848,40.885
12.08,276.656,40.828
12.11,277.112,40.656
12.14,277.463,40.598
12.17,277.814,40.656
12.21,278.024,40.828
12.24,278.516,41.125
12.27,279.253,41.389
12.3,279.955,41.492
12.34,280.516,41.4
12.37,280.972,41.274
12.4,281.393,41.251
12.43,281.604,41.206
12.47,281.779,41.206
12.5,281.92,41.435
12.53,282.446,41.755
12.56,283.008,41.721
12.6,283.008,41.549
12.63,283.008,41.332
12.66,282.797,41.103
12.69,282.236,40.919
12.73,281.674,40.931
12.76,281.358,41.125
12.79,281.218,41.297
12.82,280.972,41.286
12.86,280.481,40.965
12.89,279.744,40.495
12.92,278.551,40.106
12.95,277.252,39.842
12.99,275.883,39.716
13.02,274.62,39.888
13.05,273.778,40.163
13.08,273.006,40.083
13.12,272.058,39.671
13.15,270.654,39.201
13.18,269.25,38.811
13.21,267.601,38.388
13.25,265.846,38.136
13.28,264.232,38.147
13.31,262.863,38.296
13.35,261.494,38.262
13.38,260.301,38.032
13.41,259.003,37.654
13.44,257.494,37.357
13.48,254.51,35.661
13.51,248.158,31.789
13.54,239.49,29.131
13.57,231.313,29.235
13.61,224.364,30.724
13.64,219.31,32.156
13.67,216.327,33.072
13.7,215.45,34.138
13.74,216.292,35.581
13.77,218.959,36.497
13.8,222.995,36.268
13.83,227.066,35.982
13.87,231.172,36.222
13.9,235.033,35.993
13.93,237.665,34.63
13.96,237.63,32.683
14.0,235.419,31.262
14.03,232.646,30.85
14.06,229.733,30.941
14.09,226.469,31.388
14.13,223.627,32.236
14.16,221.837,32.866
14.19,220.433,32.728
14.22,218.889,32.247
14.26,217.31,31.938
14.29,216.116,31.537
14.32,214.642,30.941
14.35,212.642,30.357
14.39,210.466,29.933
14.42,208.22,29.578
14.45,205.658,29.086
14.48,202.956,28.65
14.52,200.359,28.501
14.55,197.972,28.559
14.58,196.077,28.547
14.61,194.322,28.341
14.65,192.638,28.146
14.68,191.199,27.883
14.71,189.619,27.31
14.74,187.444,26.577
14.78,184.952,25.97
14.81,182.46,25.569
14.84,179.758,25.237
14.87,177.02,24.927
14.91,174.283,24.584
14.94,171.37,24.194
14.97,168.562,23.85
15.01,165.755,23.415
15.04,162.947,22.945
15.07,160.104,22.487
15.1,157.297,22.121
15.14,154.349,21.754
15.17,151.401,21.376
15.2,148.663,20.929
15.23,145.891,20.46
15.27,142.802,19.99
15.3,139.749,19.463
15.33,136.696,18.913
15.36,133.537,18.478
15.4,130.659,18.226
15.43,127.957,17.997
15.46,125.29,17.722
15.49,122.728,17.309
15.53,120.131,16.794
15.56,117.218,16.267
15.59,114.445,15.786
15.62,111.708,15.305
15.66,108.69,14.869
15.69,105.742,14.411
15.72,102.689,13.85
15.75,99.319,13.243
15.79,95.88,12.578
15.82,92.265,11.925
15.85,88.44,11.375
15.88,84.65,10.974
15.92,81.07,10.551
15.95,77.315,10.081
15.98,73.84,9.68
16.01,70.647,9.233
16.05,67.207,8.649
16.08,63.698,8.111
16.11,60.364,7.595
16.14,56.924,7.16
16.18,53.625,6.736
16.21,50.572,6.278
16.24,47.343,5.762
16.27,43.974,5.247
16.31,40.781,4.594
16.34,37.271,3.918
16.37,33.937,3.838
16.4,32.217,5.075
16.44,31.796,5.854
16.47,29.164,3.093
16.5,24.005,0.183
16.53,17.828,-0.389
16.57,12.073,-0.435
16.6,5.405,-1.008
16.63,0.035,-1.42
16.67,-0.597,-2.451
16.7,-2.913,-3.15
16.73,-4.808,-3.15
16.76,-6.142,-4.239
16.8,-8.984,-5.361
16.83,-13.547,-5.625
16.86,-18.916,-5.774
16.89,-24.637,-5.751
16.93,-29.831,-5.361
16.96,-34.218,-4.903
16.99,-37.833,-4.766
17.02,-40.57,-4.708
17.06,-42.395,-4.639
17.09,-43.588,-4.903
17.12,-44.606,-5.716
17.15,-46.326,-7.068
17.19,-49.203,-8.546
17.22,-52.818,-9.817
17.25,-56.924,-10.722
17.28,-61.276,-11.272
17.32,-65.628,-11.593
17.35,-69.875,-11.662
17.38,-73.524,-11.627
17.41,-76.543,-11.73
17.45,-79.21,-12.005
17.48,-81.807,-12.487
17.51,-84.334,-13.208
17.54,-87.036,-14.079
17.58,-90.195,-14.858
17.61,-93.459,-15.499
17.64,-96.898,-16.061
17.67,-100.618,-16.519
17.71,-104.198,-16.966
17.74,-107.637,-17.424
17.77,-111.217,-17.813
17.8,-114.481,-18.065
17.84,-117.429,-18.386
17.87,-120.412,-18.764
17.9,-123.289,-19.165
17.93,-125.922,-19.669
17.97,-128.659,-20.276
18.0,-131.818,-20.952
18.03,-134.976,-21.605
18.06,-138.345,-22.155
18.1,-141.609,-22.441
18.13,-144.487,-22.59
18.16,-147.365,-22.842
18.19,-150.032,-23.186
18.23,-152.664,-23.702
18.26,-155.507,-24.171
18.29,-158.35,-24.584
18.33,-160.841,-24.996
18.36,-163.509,-25.466
18.39,-166.316,-25.798
18.42,-168.843,-26.107
18.46,-171.3,-26.416
18.49,-173.792,-26.84
18.52,-176.494,-27.39
18.55,-179.231,-27.906
18.59,-182.074,-28.238
18.62,-184.566,-28.536
18.65,-186.987,-28.834
18.68,-189.584,-29.04
18.72,-191.725,-29.28
18.75,-193.831,-29.704
18.78,-196.042,-30.117
18.81,-198.218,-30.403
18.85,-200.183,-30.655
18.88,-202.184,-30.896
18.91,-204.008,-31.079
18.94,-205.763,-31.319
18.98,-207.658,-31.64
19.01,-209.624,-31.984
19.04,-211.484,-32.373
19.07,-213.414,-32.774
19.11,-215.555,-33.038
19.14,-217.38,-33.278
19.17,-219.485,-33.427
19.2,-221.205,-33.542
19.24,-222.82,-33.828
19.27,-224.68,-34.16
19.3,-226.469,-34.412
19.33,-228.119,-34.664
19.37,-229.803,-34.894
19.4,-231.453,-35.134
19.43,-233.032,-35.375
19.46,-234.787,-35.627
19.5,-236.542,-35.936
19.53,-238.332,-36.291
19.56,-240.227,-36.612
19.59,-242.262,-36.818
19.63,-243.912,-36.933
19.66,-245.351,-36.979
19.69,-246.93,-37.116
19.72,-248.123,-37.173
19.76,-249.211,-37.288
19.79,-250.51,-37.631
19.82,-251.808,-38.021
19.85,-253.212,-38.456
19.89,-254.897,-38.731
19.92,-256.406,-38.823
19.95,-257.634,-38.72
19.99,-258.862,-38.811
20.02,-259.985,-38.949
20.05,-261.073,-39.155
20.08,-262.231,-39.327
20.12,-263.354,-39.522
20.15,-264.478,-39.865
20.18,-265.706,-40.129
20.21,-267.11,-40.278
20.25,-268.338,-40.404
20.28,-269.601,-40.507
20.31,-270.83,-40.644
20.34,-271.988,-40.873
20.38,-273.286,-41.022
20.41,-274.445,-41.057
20.44,-275.287,-41.114
20.47,-276.059,-41.194
20.51,-276.796,-41.16
20.54,-277.252,-41.206
20.57,-277.849,-41.377
20.6,-278.34,-41.481
20.64,-278.937,-41.755
20.67,-279.568,-41.767
20.7,-279.99,-41.744
20.73,-280.516,-41.859
20.77,-280.972,-41.87
20.8,-281.253,-41.71
20.83,-281.323,-41.71
20.86,-281.569,-41.824
20.9,-281.815,-41.824
20.93,-281.85,-41.813
20.96,-281.779,-41.744
20.99,-281.604,-41.561
21.03,-281.113,-41.297
21.06,-280.516,-41.171
21.09,-279.955,-41.229
21.12,-279.463,-41.4
21.16,-279.182,-41.503
21.19,-278.972,-41.469
21.22,-278.516,-41.24
21.25,-277.849,-40.896
21.29,-277.007,-40.576
21.32,-275.954,-40.392
21.35,-274.971,-40.415
21.38,-274.094,-40.472
21.42,-273.251,-40.369
21.45,-272.198,-40.117
21.48,-270.9,-39.774
21.51,-269.566,-39.373
21.55,-267.952,-38.995
21.58,-266.338,-38.823
21.61,-264.828,-38.8
21.64,-263.284,-38.72
21.68,-261.845,-38.651
21.71,-260.652,-38.548
21.74,-259.424,-38.239
21.78,-257.915,-37.803
21.81,-256.371,-37.391
21.84,-254.686,-37.07
21.87,-252.896,-36.83
21.91,-251.176,-36.726
21.94,-249.562,-36.612
21.97,-247.878,-36.474
22.0,-246.333,-36.188
22.04,-244.579,-35.741
22.07,-242.613,-35.443
22.1,-240.929,-35.283
22.13,-239.279,-35.157
22.17,-237.665,-34.985
22.2,-236.226,-34.894
22.23,-234.962,-34.768
22.26,-233.594,-34.481
22.3,-232.12,-33.966
22.33,-230.505,-33.714
22.36,-228.926,-33.53
22.39,-227.171,-33.072
22.43,-225.206,-32.58
22.46,-222.96,-32.167
22.49,-220.644,-31.972
22.52,-218.503,-31.778
22.56,-216.257,-31.526
22.59,-214.291,-31.319
22.62,-212.186,-31.09
22.65,-210.185,-30.804
22.69,-208.22,-30.529
22.72,-206.5,-30.323
22.75,-204.605,-29.991
22.78,-202.499,-29.578
22.82,-200.534,-29.2
22.85,-198.393,-28.914
22.88,-196.393,-28.639
22.91,-194.568,-28.375
22.95,-192.708,-28.146
22.98,-190.813,-27.963
23.01,-189.058,-27.585
23.04,-187.128,-27.092
23.08,-184.846,-26.554
23.11,-182.355,-26.004
23.14,-179.968,-25.855
23.17,-177.687,-25.729
23.21,-175.476,-25.351
23.24,-172.984,-24.813
23.27,-170.387,-24.458
23.3,-167.966,-24.091
23.34,-165.404,-23.621
23.37,-162.28,-22.842
23.4,-159.157,-22.292
23.44,-156.139,-22.029
23.47,-153.366,-22.109
23.5,-150.945,-21.983
23.53,-148.488,-21.605
23.57,-145.786,-20.998
23.6,-143.118,-20.414
23.63,-140.486,-19.887
23.66,-137.679,-19.497
23.7,-134.941,-19.131
23.73,-132.169,-18.65
23.76,-129.256,-18.203
23.79,-126.343,-17.768
23.83,-123.36,-17.309
23.86,-120.306,-16.84
23.89,-117.253,-16.29
23.92,-114.059,-15.751
23.96,-110.831,-15.385
23.99,-107.848,-15.11
24.02,-104.9,-14.686
24.05,-101.881,-14.159
24.09,-98.828,-13.518
24.12,-95.599,-12.796
24.15,-91.949,-12.177
24.18,-88.37,-11.627
24.22,-84.615,-11.043
24.25,-80.719,-10.493
24.28,-77.069,-10.081
24.31,-73.349,-9.646
24.35,-69.629,-9.164
24.38,-65.979,-8.683
24.41,-62.68,-8.225
24.44,-59.416,-7.744
24.48,-56.223,-7.251
24.51,-53.064,-6.644
24.54,-49.519,-6.049
24.57,-46.08,-5.464
24.61,-42.465,-4.788
24.64,-38.57,-4.055
24.67,-34.428,-3.414
24.7,-30.884,-3.253
24.74,-28.883,-4.674
24.77,-28.181,-5.407
24.8,-25.514,-2.52
24.83,-20.706,-0.229
24.87,-15.442,-0.137
24.9,-10.634,-0.115
24.93,-5.194,0.573
24.96,-0.211,0.871
25.0,0.456,1.592
25.03,2.071,2.555
25.06,4.492,2.852
25.1,6.001,3.574
25.13,8.458,5.109
25.16,13.336,6.22
25.19,19.373,6.289
25.23,25.444,5.774
25.26,30.708,5.247
25.29,35.236,5.075
25.32,39.201,5.052
25.36,42.079,4.777
25.39,43.448,4.536
25.42,44.15,4.8
25.45,45.132,5.682
25.49,46.747,6.999
25.52,49.309,8.603
25.55,53.029,10.047
25.58,57.31,10.929
25.62,61.732,11.456
25.65,66.4,11.673
25.68,70.436,11.708
25.71,74.121,11.627
25.75,77.245,11.627
25.78,79.596,11.96
25.81,82.158,12.601
25.84,84.93,13.3
25.88,87.668,13.976
25.91,90.511,14.64
25.94,93.81,15.362
25.97,97.038,15.877
26.01,100.302,16.301
26.04,103.741,16.748
26.07,107.111,17.298
26.1,110.55,17.79
26.14,114.095,18.088
26.17,117.183,18.272
26.2,119.991,18.638
26.23,123.254,19.337
26.27,126.448,19.841
26.3,129.396,20.471
26.33,132.765,20.987
26.36,136.099,21.365
26.4,139.047,21.949
26.43,142.03,22.304
26.46,144.908,22.567
26.49,147.646,22.934
26.53,150.629,23.335
26.56,153.612,23.805
26.59,156.314,24.274
26.62,159.016,24.641
26.66,161.754,24.939
26.69,164.14,25.305
26.72,166.702,25.683
26.76,169.334,26.016
26.79,171.686,26.394
26.82,174.318,26.829
26.85,177.02,27.299
26.89,179.582,27.78
26.92,182.355,28.238
26.95,185.162,28.467
26.98,187.514,28.616
27.02,189.69,28.834
27.05,192.146,29.074
27.08,194.112,29.429
27.11,196.147,29.899
27.15,198.428,30.208
27.18,200.359,30.506
27.21,202.289,30.758
27.24,204.359,30.896
27.28,206.044,31.102
27.31,207.834,31.549
27.34,210.255,32.167
27.37,212.642,32.683
27.41,215.063,33.107
27.44,217.836,33.53
27.47,220.398,33.679
27.5,222.469,33.633
27.54,224.399,33.576
27.57,225.873,33.622
27.6,227.242,33.92
27.63,228.821,34.183
27.67,230.295,34.412
27.7,231.628,34.917
27.73,233.278,35.363
27.76,234.962,35.558
27.8,236.542,35.65
27.83,238.051,35.718
27.86,239.314,35.821
27.89,240.578,35.97
27.93,241.876,36.108
27.96,242.999,36.28
27.99,243.947,36.463
28.02,245.07,36.52
28.06,246.017,36.486
28.09,246.509,36.52
28.12,247.246,36.761
28.15,248.299,37.162
28.19,249.492,37.631
28.22,251.106,38.113
28.25,252.966,38.365
28.28,254.686,38.491
28.32,256.406,38.674
28.35,258.195,38.8
28.38,259.775,38.903
28.42,261.424,39.052
28.45,262.933,39.109
28.48,264.056,39.247
28.51,265.32,39.59
28.55,266.864,39.819
28.58,268.092,40.072
28.61,269.321,40.278
28.64,270.76,40.346
28.68,271.883,40.495
28.71,273.146,40.69
28.74,274.374,40.759
28.77,275.252,40.839
28.81,276.129,40.896
28.84,276.866,40.931
28.87,277.498,40.862
28.9,277.779,40.954
28.94,278.445,41.194
28.97,279.007,41.343
29.0,279.533,41.435
29.03,280.06,41.446
29.07,280.551,41.538
29.1,281.042,41.538
29.13,281.323,41.423
29.16,281.464,41.355
29.2,281.569,41.526
29.23,281.85,41.595
29.26,281.955,41.503
29.29,281.955,41.446
29.33,281.85,41.423
29.36,281.639,41.332
29.39,281.358,41.217
29.42,281.042,41.16
29.46,280.621,41.148
29.49,280.305,41.068
29.52,279.709,40.999
29.55,279.077,40.839
29.59,278.445,40.621
29.62,277.357,40.301
29.65,276.094,40.003
29.68,274.796,39.877
29.72,273.532,39.842
29.75,272.304,39.774
29.78,271.181,39.682
29.81,270.093,39.567
29.85,268.97,39.373
29.88,267.776,39.052
29.91,266.302,38.571
29.94,264.618,38.284
29.98,263.004,38.17
30.01,261.6,38.09
30.04,259.95,37.826
30.08,257.985,37.231
30.11,255.528,36.509
30.14,252.791,36.085
30.17,250.439,36.005
30.21,248.334,36.074
30.24,246.509,36.245
30.27,245.28,36.406
30.3,244.508,36.486
30.34,243.877,36.509
30.37,243.561,36.371
30.4,243.385,36.074
30.43,242.964,35.787
30.47,242.332,35.501
30.5,241.701,35.146
30.53,240.578,34.745
30.56,239.209,34.538
30.6,237.735,34.367
30.63,235.98,34.046
30.66,233.839,33.439
30.69,231.488,32.877
30.73,228.856,32.602
30.76,226.259,32.454
30.79,223.802,32.259
30.82,221.451,32.167
30.86,219.415,32.018
30.89,217.485,31.732
30.92,215.555,31.434
30.95,213.625,31.136
30.99,211.87,30.793
31.02,209.975,30.472
31.05,208.044,30.185
31.08,206.29,29.853
31.12,204.184,29.418
31.15,201.868,28.971
31.18,199.657,28.627
31.21,197.586,28.478
31.25,195.48,28.295
31.28,193.445,28.009
31.31,191.585,27.745
31.34,189.549,27.47
31.38,187.584,27.081
31.41,185.408,26.52
31.44,182.986,25.981
31.47,180.46,25.546
31.51,177.933,25.202
31.54,175.23,24.939
31.57,172.704,24.71
31.6,170.247,24.309
31.64,167.509,23.839
31.67,164.877,23.415
31.7,162.175,22.934
31.74,159.192,22.35
31.77,156.349,22.063
31.8,153.822,21.926
31.83,151.015,21.468
31.87,148.347,21.067
31.9,145.715,20.586
31.93,143.048,20.368
31.96,140.486,19.99
32.0,138.205,19.807
32.03,135.818,19.429
32.06,133.397,18.959
32.09,131.116,18.455
32.13,128.413,17.79
32.16,125.29,17.08
32.19,121.991,16.427
32.22,118.376,15.786
32.26,114.516,15.247
32.29,110.901,14.904
32.32,107.426,14.697
32.35,104.128,14.503
32.39,101.144,14.09
32.42,98.021,13.529
32.45,94.722,12.945
32.48,91.423,12.177
32.52,87.808,11.261
32.55,83.772,10.631
32.58,80.052,10.195
32.61,76.297,9.772
32.65,72.296,9.428
32.68,68.857,9.096
32.71,65.733,8.569
32.74,62.364,8.019
32.78,58.96,7.515
32.81,55.626,7.045
32.84,52.116,6.621
32.87,48.817,6.175
32.91,45.799,5.648
32.94,42.465,5.098
32.97,39.096,4.548
33.0,35.797,3.964
33.04,32.709,3.849
33.07,31.129,5.052
33.1,30.919,5.693
33.13,28.357,2.956
33.17,23.303,0.149
33.2,17.126,-0.458
33.23,11.336,-0.619
33.26,4.492,-1.054
33.3,-0.175,-1.375
33.33,-0.737,-2.509
33.36,-3.334,-3.185
33.4,-5.159,-3.276
33.43,-6.914,-4.651
33.46,-10.739,-5.957
33.49,-16.039,-5.991
33.53,-21.654,-5.762
33.56,-27.129,-5.522
33.59,-31.796,-5.132
33.62,-35.797,-4.8
33.66,-39.026,-4.582
33.69,-41.061,-4.342
33.72,-41.939,-4.33
33.75,-42.816,-4.949
33.79,-44.15,-6.175
33.82,-46.255,-7.687
33.85,-49.414,-9.13
33.88,-53.38,-10.31
33.92,-57.837,-11.146
33.95,-62.575,-11.582
33.98,-67.067,-11.582
34.01,-70.822,-11.433
34.05,-74.191,-11.307
34.08,-76.964,-11.375
34.11,-79.07,-11.811
34.14,-81.561,-12.509
34.18,-84.334,-13.323
34.21,-87.106,-14.148
34.24,-90.195,-14.927
34.27,-93.599,-15.534
34.31,-97.108,-16.129
34.34,-100.793,-16.496
34.37,-104.303,-16.805
34.4,-107.637,-17.183
34.44,-111.041,-17.619
34.47,-114.235,-17.905
34.5,-117.007,-18.352
34.53,-119.885,-18.856
34.57,-122.903,-19.348
34.6,-125.816,-19.921
34.63,-128.94,-20.597
34.66,-132.695,-21.433
34.7,-136.31,-21.903
34.73,-139.854,-22.35
34.76,-143.294,-22.43
34.79,-146.172,-22.476
34.83,-148.593,-22.797
34.86,-151.436,-23.22
34.89,-154.103,-23.679
34.92,-156.49,-24.228
34.96,-159.087,-24.733
34.99,-161.824,-25.133
35.02,-164.281,-25.489
35.06,-166.948,-25.764
35.09,-169.475,-26.061
35.12,-171.756,-26.439
35.15,-174.318,-26.863
35.19,-177.126,-27.379
35.22,-179.723,-27.848
35.25,-182.285,-28.112
35.28,-184.741,-28.261
35.32,-186.847,-28.49
35.35,-188.988,-28.834
35.38,-191.234,-29.2
35.41,-193.375,-29.658
35.45,-195.761,-30.094
35.48,-198.007,-30.357
35.51,-199.973,-30.563
35.54,-202.078,-30.724
35.58,-204.008,-30.827
35.61,-205.553,-31.045
35.64,-207.167,-31.411
35.67,-209.027,-31.812
35.71,-210.992,-32.259
35.74,-212.993,-32.648
35.77,-215.134,-32.912
35.8,-217.134,-33.175
35.84,-219.135,-33.416
35.87,-221.24,-33.576
35.9,-223.03,-33.794
35.93,-224.75,-34.103
35.97,-226.575,-34.286
36.0,-228.259,-34.481
36.03,-229.733,-34.722
36.06,-231.418,-35.008
36.1,-233.102,-35.237
36.13,-234.436,-35.34
36.16,-236.05,-35.65
36.19,-237.84,-36.085
36.23,-239.63,-36.509
36.26,-241.56,-36.726
36.29,-243.315,-36.83
36.32,-244.859,-36.956
36.36,-246.649,-37.047
36.39,-248.158,-37.139
36.42,-249.316,-37.357
36.45,-250.58,-37.643
36.49,-252.124,-37.883
36.52,-253.423,-38.124
36.55,-254.791,-38.445
36.58,-256.23,-38.571
36.62,-257.388,-38.559
36.65,-258.546,-38.651
36.68,-259.705,-38.834
36.72,-260.933,-39.109
36.75,-262.267,-39.441
36.78,-263.67,-39.648
36.81,-265.004,-39.854
36.85,-266.197,-39.991
36.88,-267.566,-40.129
36.91,-268.829,-40.198
36.94,-269.882,-40.301
36.98,-271.075,-40.427
37.01,-272.093,-40.633
37.04,-273.146,-40.919
37.07,-274.339,-40.942
37.11,-275.076,-40.908
37.14,-275.743,-40.954
37.17,-276.34,-40.828
37.2,-276.48,-40.759
37.24,-276.691,-40.908
37.27,-277.393,-41.343
37.3,-278.024,-41.538
37.33,-278.41,-41.332
37.37,-278.796,-41.492
37.4,-279.428,-41.675
37.43,-279.849,-41.664
37.46,-280.235,-41.469
37.5,-280.516,-41.538
37.53,-280.972,-41.755
37.56,-281.358,-41.813
37.59,-281.779,-41.79
37.63,-281.85,-41.721
37.66,-281.85,-41.526
37.69,-281.429,-41.194
37.72,-280.797,-41.011
37.76,-280.235,-41.057
37.79,-279.744,-41.217
37.82,-279.323,-41.297
37.85,-278.937,-41.297
37.89,-278.445,-41.148
37.92,-277.849,-40.839
37.95,-277.077,-40.53
37.98,-276.059,-40.324
38.02,-275.076,-40.22
38.05,-273.953,-40.163
38.08,-272.971,-40.083
38.11,-271.848,-39.877
38.15,-270.584,-39.579
38.18,-269.04,-39.27
38.21,-267.671,-38.914
38.24,-265.987,-38.64
38.28,-264.232,-38.617
38.31,-262.933,-38.594
38.34,-261.565,-38.468
38.38,-260.266,-38.399
38.41,-259.248,-38.181
38.44,-257.809,-37.666
38.47,-255.949,-37.231
38.51,-254.3,-36.875
38.54,-252.51,-36.692
38.57,-250.755,-36.555
38.6,-249.246,-36.463
38.64,-247.772,-36.36
38.67,-246.158,-36.142
38.7,-244.543,-35.753
38.73,-242.964,-35.398
38.77,-241.139,-35.157
38.8,-239.525,-35.008
38.83,-238.086,-34.779
38.86,-236.472,-34.733
38.9,-235.313,-34.802
38.93,-234.225,-34.47
38.96,-232.576,-33.931
38.99,-230.681,-33.485
39.03,-228.821,-33.038
39.06,-226.645,-32.591
39.09,-224.188,-32.27
39.12,-222.083,-32.11
39.16,-219.801,-32.007
39.19,-217.836,-31.789
39.22,-215.871,-31.503
39.25,-213.835,-31.354
39.29,-212.151,-31.262
39.32,-210.677,-30.941
39.35,-208.922,-30.54
39.38,-207.237,-30.392
39.42,-205.798,-30.128
39.45,-204.044,-29.635
39.48,-201.833,-29.12
39.51,-199.797,-28.719
39.55,-197.586,-28.364
39.58,-195.27,-28.123
39.61,-193.199,-27.917
39.64,-190.953,-27.734
39.68,-188.812,-27.482
39.71,-186.847,-27.047
39.74,-184.636,-26.634
39.77,-182.285,-26.256
39.81,-180.003,-25.775
39.84,-177.512,-25.374
39.87,-175.055,-25.099
39.9,-172.668,-24.721
39.94,-170.142,-24.286
39.97,-167.334,-23.805
40.0,-164.667,-23.358
40.04,-161.754,-22.877
40.07,-158.701,-22.533
40.1,-156.068,-22.292
40.13,-153.717,-22.098
40.17,-151.05,-21.892
40.2,-148.593,-21.296
40.23,-145.856,-20.609
40.26,-142.732,-20.047
40.3,-140.135,-19.978
40.33,-137.714,-19.635
40.36,-134.941,-19.188
40.39,-132.344,-18.776
40.43,-129.572,-18.317
40.46,-126.659,-17.882
40.49,-123.851,-17.378
40.52,-121.043,-16.748
40.56,-117.815,-16.187
40.59,-114.551,-15.717
40.62,-111.427,-15.202
40.65,-107.988,-14.823
40.69,-104.865,-14.48
40.72,-101.917,-14.067
40.75,-98.618,-13.575
40.78,-95.213,-12.945
40.82,-91.809,-12.097
40.85,-87.949,-11.398
40.88,-84.053,-10.906
40.91,-80.473,-10.436
40.95,-76.683,-9.966
40.98,-72.998,-9.657
41.01,-69.839,-9.428
41.04,-66.891,-9.164
41.08,-64.049,-8.809
41.11,-61.276,-8.202
41.14,-58.188,-7.446
41.17,-54.819,-6.713
41.21,-51.309,-6.014
41.24,-47.484,-5.304
41.27,-43.413,-4.617
41.3,-39.236,-3.952
41.34,-34.885,-3.471
41.37,-31.129,-3.551
41.4,-29.41,-5.04
41.43,-28.813,-5.602
41.47,-25.935,-2.669
41.5,-21.162,-0.355
41.53,-15.863,-0.172
41.56,-10.915,-0.115
41.6,-5.194,0.642
41.63,0.0,1.1
41.66,0.632,2.062
41.7,2.773,3.093
41.73,5.299,3.414
41.76,7.195,4.548
41.79,10.809,5.808
41.83,15.933,5.923
41.86,21.303,5.544
41.89,26.357,5.281
41.92,31.094,5.098
41.96,35.271,4.869
41.99,38.359,4.559
42.02,40.149,4.17
42.05,41.096,4.17
42.09,41.833,4.88
42.12,43.097,6.186
42.15,45.413,7.606
42.18,48.572,8.878
42.22,52.327,9.921
42.25,56.503,10.768
42.28,61.171,11.364
42.31,65.804,11.639
42.35,70.155,11.685
42.38,73.84,11.662
42.41,76.788,11.834
42.44,79.596,12.235
42.48,82.333,12.681
42.51,85.036,13.311
42.54,87.914,14.125
42.57,90.932,14.892
42.61,94.16,15.602
42.64,97.6,16.164
42.67,101.215,16.645
42.7,104.794,17.16
42.74,108.514,17.607
42.77,112.024,17.962
42.8,115.182,18.249
42.83,118.201,18.489
42.87,121.149,18.879
42.9,124.026,19.509
42.93,127.185,20.208
42.96,130.484,20.861
43.0,133.713,21.41
43.03,137.082,21.983
43.06,140.311,22.224
43.09,143.118,22.247
43.13,145.68,22.327
43.16,147.891,22.613
43.19,149.892,23.003
43.22,152.138,23.495
43.26,154.419,24.16
43.29,156.981,24.824
43.32,159.789,25.374
43.36,162.772,25.729
43.39,165.614,25.981
43.42,168.352,26.256
43.45,171.054,26.543
43.49,173.616,26.966
43.52,176.459,27.39
43.55,179.126,27.791
43.58,181.758,28.284
43.62,184.496,28.685
43.65,187.093,28.902
43.68,189.409,29.109
43.71,191.725,29.452
43.75,194.041,29.888
43.78,196.288,30.266
43.81,198.604,30.54
43.84,200.674,30.758
43.88,202.64,30.999
43.91,204.324,30.987
43.94,205.939,31.067
43.97,207.658,31.732
44.01,209.94,32.614
44.04,212.572,33.313
44.07,215.274,33.645
44.1,217.661,33.656
44.14,219.836,33.542
44.17,221.626,33.599
44.2,223.065,33.439
44.23,224.188,33.347
44.27,225.101,33.691
44.3,226.083,34.069
44.33,227.277,34.504
44.36,228.786,35.088
44.4,230.47,35.489
44.43,232.19,35.661
44.46,234.05,35.879
44.49,235.98,36.085
44.53,237.805,36.28
44.56,239.595,36.497
44.59,241.42,36.681
44.62,243.14,36.83
44.66,244.579,36.944
44.69,245.772,36.967
44.72,247.035,37.036
44.75,248.123,37.276
44.79,249.211,37.735
44.82,250.755,38.227
44.85,252.44,38.571
44.88,254.124,38.903
44.92,255.984,39.086
44.95,257.599,38.983
44.98,258.862,38.892
45.02,260.02,38.926
45.05,261.073,39.098
45.08,262.161,39.384
45.11,263.319,39.671
45.15,264.583,39.945
45.18,265.706,40.232
45.21,267.039,40.45
45.24,268.408,40.495
45.28,269.566,40.564
45.31,270.795,40.736
45.34,271.953,40.965
45.37,273.146,41.194
45.41,274.374,41.309
45.44,275.462,41.309
45.47,276.305,41.32
45.5,277.007,41.274
45.54,277.428,41.217
45.57,277.884,41.355
45.6,278.41,41.618
45.63,279.042,41.721
45.67,279.498,41.79
45.7,279.814,41.836
45.73,280.446,42.019
45.76,281.078,42.191
45.8,281.218,41.755
45.83,281.499,41.95
45.86,282.236,42.5
45.89,282.867,42.466
45.93,283.148,42.099
45.96,283.183,42.007
45.99,283.218,42.065
46.02,283.008,41.733
46.06,282.341,41.332
46.09,281.569,41.32
46.12,281.148,41.801
46.15,280.692,41.767
46.19,279.884,41.32
46.22,278.902,41.137
46.25,278.165,41.171
46.28,277.357,41.057
46.32,276.094,40.392
46.35,274.585,40.094
46.38,273.392,40.243
46.41,272.269,40.312
46.45,271.005,40.026
46.48,269.672,39.682
46.51,268.233,39.51
46.54,266.969,39.361
46.58,265.565,39.063
46.61,264.091,38.892
46.64,262.793,38.892
46.68,261.775,38.823
46.71,260.582,38.559
46.74,259.213,38.181
46.77,257.774,37.723
46.81,255.949,37.322
46.84,254.265,37.139
46.87,252.545,37.047
46.9,250.966,37.059
46.94,249.808,37.299
46.97,249.106,37.368
47.0,248.123,36.99
47.03,246.649,36.222
47.07,245.245,35.902
47.1,243.806,35.787
47.13,242.122,35.421
47.16,240.086,34.836
47.2,237.665,34.321
47.23,235.349,34.264
47.26,233.418,34.275
47.29,231.418,34.069
47.33,229.453,33.863
47.36,227.663,33.748
47.39,226.224,33.576
47.42,224.68,33.324
47.46,223.241,33.015
47.49,221.696,32.625
47.52,219.836,32.19
47.55,217.871,31.732
47.59,215.836,31.377
47.62,213.73,31.079
47.65,211.519,30.793
47.68,209.413,30.609
47.72,207.413,30.495
47.75,205.588,30.277
47.78,203.763,29.922
47.81,201.797,29.487
47.85,199.762,29.109
47.88,197.832,28.799
47.91,195.866,28.57
47.94,193.936,28.341
47.98,192.041,28.078
48.01,190.076,27.688
48.04,187.9,27.195
48.07,185.443,26.737
48.11,183.022,26.359
48.14,180.389,25.947
48.17,177.827,25.603
48.2,175.371,25.34
48.24,172.914,25.065
48.27,170.422,24.664
48.3,167.86,24.171
48.34,165.123,23.702
48.37,162.315,23.197
48.4,159.402,22.648
48.43,156.419,22.27
48.47,153.612,21.949
48.5,150.734,21.662
48.53,147.856,21.261
48.56,145.154,20.723
48.6,142.416,20.379
48.63,139.609,20.013
48.66,136.977,19.646
48.69,134.309,19.463
48.73,131.818,19.131
48.76,129.466,18.65
48.79,127.01,18.065
48.82,124.272,17.435
48.86,121.394,16.817
48.89,118.306,16.187
48.92,114.902,15.66
48.95,111.497,15.236
48.99,108.339,14.961
49.02,105.075,14.594
49.05,101.706,14.079
49.08,98.232,13.495
49.12,94.687,12.922
49.15,91.248,12.326
49.18,87.808,11.765
49.21,84.264,11.261
49.25,80.614,10.757
49.28,77.139,10.207
49.31,73.489,9.611
49.34,69.875,9.027
49.38,66.26,8.5
49.41,62.68,8.042
49.44,59.135,7.629
49.47,55.731,7.217
49.51,52.432,6.701
49.54,49.063,6.232
49.57,45.94,5.751
49.6,42.711,5.178
49.64,39.201,4.513
49.67,35.622,3.895
49.7,32.533,3.78
49.73,30.919,4.96
49.77,30.392,5.487
49.8,27.655,2.749
49.83,22.742,0.355
49.86,17.056,0.034
49.9,11.617,-0.229
49.93,5.159,-0.997
49.96,0.07,-1.26
50.0,-0.526,-2.234
50.03,-2.913,-3.162
50.06,-5.194,-3.368
50.09,-6.808,-4.353
50.13,-10.072,-5.476
50.16,-14.845,-5.67
50.19,-20.18,-5.625
50.22,-25.69,-5.67
50.26,-30.814,-5.338
50.29,-35.165,-4.926
50.32,-38.57,-4.685
50.35,-40.956,-4.479
50.39,-42.36,-4.399
50.42,-43.167,-4.914
50.45,-44.466,-5.923
50.48,-46.396,-7.183
50.52,-48.993,-8.511
50.55,-52.467,-9.657
50.58,-56.363,-10.482
50.61,-60.539,-11.089
50.65,-64.856,-11.387
50.68,-68.857,-11.456
50.71,-72.296,-11.478
50.74,-75.385,-11.662
50.78,-78.438,-12.017
50.81,-81.07,-12.59
50.84,-84.053,-13.3
50.87,-87.247,-14.033
50.91,-90.37,-14.801
50.94,-93.81,-15.476
50.97,-97.389,-16.015
51.0,-100.969,-16.565
51.04,-104.794,-17.092
51.07,-108.62,-17.493
51.1,-112.164,-17.871
51.13,-115.463,-18.283
51.17,-118.832,-18.604
51.2,-121.78,-19.028
51.23,-124.834,-19.532
51.26,-128.133,-20.127
51.3,-131.186,-20.792
51.33,-134.415,-21.422
51.36,-137.889,-21.892
51.39,-141.118,-22.155
51.43,-143.855,-22.338
51.46,-146.768,-22.602
51.49,-149.295,-22.854
51.52,-151.506,-23.175
51.56,-153.928,-23.644
51.59,-156.384,-24.16
51.62,-158.771,-24.698
51.66,-161.543,-25.122
51.69,-164.105,-25.454
51.72,-166.597,-25.809
51.75,-169.229,-26.142
51.79,-171.756,-26.428
51.82,-174.178,-26.852
51.85,-176.88,-27.447
51.88,-179.652,-27.917
51.92,-182.179,-28.421
51.95,-185.057,-28.719
51.98,-187.83,-28.971
52.01,-190.216,-29.28
52.05,-192.567,-29.303
52.08,-194.673,-29.338
52.11,-196.498,-29.727
52.14,-198.499,-30.22
52.18,-200.569,-30.529
52.21,-202.289,-30.827
52.24,-204.184,-31.171
52.27,-205.974,-31.423
52.31,-207.448,-31.4
52.34,-209.132,-31.594
52.37,-211.098,-32.018
52.4,-212.852,-32.568
52.44,-214.853,-32.969
52.47,-217.134,-33.233
52.5,-219.135,-33.404
52.53,-221.1,-33.725
52.57,-223.135,-33.977
52.6,-225.066,-34.218
52.63,-227.031,-34.344
52.66,-228.891,-34.458
52.7,-230.47,-34.825
52.73,-232.155,-35.077
52.76,-233.839,-35.088
52.79,-234.927,-35.191
52.83,-236.226,-35.627
52.86,-238.121,-35.948
52.89,-239.63,-36.177
52.92,-240.858,-36.486
52.96,-242.578,-36.784
52.99,-244.368,-36.979
53.02,-245.807,-37.105
53.05,-247.386,-37.231
53.09,-248.86,-37.391
53.12,-250.229,-37.62
53.15,-251.773,-37.895
53.18,-253.247,-38.147
53.22,-254.721,-38.353
53.25,-256.125,-38.468
53.28,-257.458,-38.536
53.32,-258.511,-38.685
53.35,-259.81,-38.903
53.38,-261.249,-39.189
53.41,-262.477,-39.487
53.45,-263.811,-39.671
53.48,-265.215,-39.819
53.51,-266.513,-39.945
53.54,-267.741,-40.106
53.58,-269.005,-40.163
53.61,-269.987,-40.255
53.64,-271.111,-40.53
53.67,-272.374,-40.759
53.71,-273.462,-40.965
53.74,-274.62,-41.057
53.77,-275.568,-40.942
53.8,-276.059,-40.931
53.84,-276.656,-40.954
53.87,-277.147,-40.919
53.9,-277.603,-41.16
53.93,-278.2,-41.435
53.97,-278.937,-41.584
54.0,-279.568,-41.675
54.03,-280.2,-41.733
54.06,-280.727,-41.721
54.1,-281.042,-41.607
54.13,-281.288,-41.469
54.16,-281.534,-41.549
54.19,-281.709,-41.733
54.23,-281.885,-41.71
54.26,-281.779,-41.549
54.29,-281.604,-41.435
54.32,-281.358,-41.435
54.36,-280.832,-41.068
54.39,-280.165,-40.976
54.42,-279.709,-41.24
54.45,-279.639,-41.526
54.49,-279.498,-41.515
54.52,-279.218,-41.286
54.55,-278.621,-41.034
54.58,-278.024,-40.713
54.62,-277.007,-40.278
54.65,-275.743,-39.991
54.68,-274.48,-39.991
54.71,-273.567,-40.14
54.75,-272.655,-40.152
54.78,-271.637,-40.003
54.81,-270.654,-39.693
54.84,-269.18,-39.304
54.88,-267.601,-38.88
54.91,-266.197,-38.605
54.94,-264.583,-38.571
54.98,-263.179,-38.594
55.01,-261.986,-38.525
55.04,-260.757,-38.433
55.07,-259.459,-38.124
55.11,-258.02,-37.551
55.14,-256.195,-37.139
55.17,-254.475,-37.001
55.2,-252.896,-36.887
55.24,-251.317,-36.795
55.27,-249.878,-36.738
55.3,-248.755,-36.612
55.33,-247.281,-36.268
55.37,-245.491,-35.833
55.4,-243.842,-35.398
55.43,-242.052,-35.008
55.46,-240.086,-34.836
55.5,-238.437,-34.676
55.53,-236.647,-34.504
55.56,-234.962,-34.458
55.59,-233.383,-34.183
55.63,-231.628,-33.702
55.66,-229.698,-33.416
55.69,-227.908,-33.187
55.72,-226.154,-32.889
55.76,-224.153,-32.728
55.79,-222.679,-32.637
55.82,-221.24,-32.442
55.85,-219.38,-32.087
55.89,-217.625,-31.652
55.92,-215.765,-31.193
55.95,-213.589,-30.93
55.98,-211.659,-30.712
56.02,-209.834,-30.495
56.05,-207.869,-30.346
56.08,-206.009,-30.14
56.11,-204.324,-29.67
56.15,-202.078,-29.154
56.18,-199.937,-28.822
56.21,-197.902,-28.524
56.24,-195.656,-28.341
56.28,-193.655,-28.158
56.31,-191.795,-27.894
56.34,-189.69,-27.551
56.37,-187.514,-27.115
56.41,-185.338,-26.588
56.44,-182.916,-26.027
56.47,-180.109,-25.557
56.5,-177.512,-25.225
56.54,-174.844,-24.973
56.57,-172.177,-24.698
56.6,-169.791,-24.297
56.64,-167.159,-23.885
56.67,-164.386,-23.553
56.7,-162.0,-23.117
56.73,-159.192,-22.499
56.77,-156.104,-22.098
56.8,-153.542,-21.834
56.83,-150.769,-21.445
56.86,-147.821,-20.987
56.9,-145.049,-20.505
56.93,-142.136,-19.967
56.96,-139.047,-19.6
56.99,-136.415,-19.394
57.03,-134.064,-19.154
57.06,-131.572,-19.039
57.09,-129.396,-18.569
57.12,-126.974,-17.882
57.16,-123.956,-17.229
57.19,-120.868,-16.53
57.22,-117.709,-15.866
57.25,-114.095,-15.362
57.29,-110.69,-15.053
57.32,-107.532,-14.812
57.35,-104.163,-14.594
57.38,-101.144,-14.136
57.42,-98.196,-13.392
57.45,-94.687,-12.761
57.48,-91.107,-12.257
57.51,-88.019,-11.65
57.55,-84.299,-11.066
57.58,-80.649,-10.665
57.61,-77.49,-10.253
57.64,-74.086,-9.806
57.68,-70.436,-9.256
57.71,-66.997,-8.489
57.74,-63.206,-7.71
57.77,-59.135,-7.114
57.81,-55.415,-6.633
57.84,-51.414,-6.175
57.87,-47.624,-5.831
57.9,-44.22,-5.396
57.94,-40.71,-4.926
57.97,-37.096,-4.502
58.0,-33.902,-4.032
58.03,-31.094,-3.918
58.07,-29.936,-5.189
58.1,-29.761,-5.567
58.13,-27.269,-2.589
58.16,-22.356,-0.321
58.2,-17.091,-0.057
58.23,-11.897,0.218
58.26,-5.791,0.974
58.3,-0.211,1.18
58.33,0.562,2.016
58.36,2.913,3.276
58.39,5.791,3.792
58.43,7.791,4.639
58.46,11.371,5.716
58.49,16.354,6.026
58.52,21.689,5.602
58.56,26.602,5.155
58.59,31.059,5.098
58.62,35.165,5.052
58.65,38.429,4.651
58.69,40.184,4.101
58.72,40.851,4.135
58.75,41.728,4.937
58.78,43.237,6.255
58.82,45.589,7.721
58.85,48.958,9.061
58.88,52.818,10.104
58.91,57.31,10.848
58.95,61.943,11.261
58.98,66.295,11.433
59.01,70.261,11.456
59.04,73.595,11.444
59.08,76.472,11.559
59.11,78.824,12.04
59.14,81.526,12.727
59.17,84.509,13.449
59.21,87.387,14.216
59.24,90.511,15.007
59.27,94.055,15.602
59.3,97.424,16.095
59.34,100.969,16.542
59.37,104.619,17.011
59.4,107.918,17.458
59.43,111.287,17.928
59.47,114.656,18.317
59.5,117.709,18.684
59.53,120.657,19.142
59.56,123.956,19.669
59.6,127.045,20.162
59.63,130.133,20.769
59.66,133.432,21.239
59.69,136.801,21.766
59.73,139.89,22.166
59.76,142.592,22.361
59.79,145.259,22.579
59.82,147.646,22.785
59.86,150.032,23.14
59.89,152.419,23.759
59.92,155.051,24.354
59.96,158.174,25.145
59.99,161.263,25.626
60.02,164.105,25.752
60.05,166.667,25.775
60.09,169.124,26.038
60.12,171.721,26.703
60.15,174.564,27.276
60.18,177.231,27.631
60.22,179.723,27.917
60.25,182.32,28.284
60.28,184.811,28.547
60.31,186.847,28.662
60.35,189.023,28.914
60.38,191.515,29.658
60.41,194.147,30.254
60.44,196.603,30.495
60.48,198.814,30.552
60.51,200.78,30.77
60.54,202.64,30.919
60.57,204.359,30.987
60.61,206.044,31.171
60.64,207.518,31.64
60.67,209.448,32.224
60.7,211.659,32.843
60.74,214.046,33.359
60.77,216.502,33.691
60.8,218.748,33.737
60.83,220.819,33.84
60.87,222.82,33.794
60.9,224.294,33.737
60.93,225.662,34.057
60.96,227.066,34.367
61.0,228.68,34.642
61.03,230.049,35.02
61.06,231.383,35.329
61.09,232.857,35.466
61.13,234.401,35.695
61.16,236.015,36.051
61.19,237.805,36.417
61.22,239.63,36.658
61.26,241.385,36.841
61.29,243.175,37.105
61.32,244.965,37.265
61.35,246.368,37.219
61.39,247.632,37.265
61.42,248.86,37.517
61.45,250.334,37.895
61.48,251.878,38.307
61.52,253.387,38.64
61.55,254.967,38.903
61.58,256.581,38.949
61.62,257.774,38.926
61.65,258.968,38.937
61.68,260.056,39.006
61.71,261.038,39.212
61.75,262.196,39.625
61.78,263.495,39.877
61.81,264.723,40.049
61.84,266.092,40.266
61.88,267.426,40.392
61.91,268.549,40.461
61.94,269.637,40.553
61.97,270.724,40.736
62.01,271.918,40.999
62.04,273.111,41.206
62.07,274.199,41.355
62.1,275.287,41.389
62.14,276.059,41.297
62.17,276.585,41.24
62.2,277.042,41.183
62.23,277.428,41.389
62.27,278.024,41.687
62.3,278.621,41.859
62.33,279.218,41.95
62.36,279.779,41.985
62.4,280.341,42.019
62.43,280.727,41.927
62.46,281.007,41.836
62.49,281.148,41.87
62.53,281.464,42.019
62.56,281.674,42.065
62.59,281.709,42.042
62.62,281.885,42.007
62.66,281.885,41.962
62.69,281.604,41.836
62.72,281.393,41.675
62.75,280.972,41.595
62.79,280.692,41.629
62.82,280.235,41.572
62.85,279.604,41.412
62.88,278.726,41.08
62.92,277.849,41.045
62.95,277.217,41.057
62.98,276.094,40.598
63.01,274.76,40.301
63.05,273.813,40.461
63.08,273.146,40.724
63.11,272.339,40.564
63.14,271.356,40.163
63.18,270.023,39.636
63.21,268.549,39.327
63.24,266.829,38.834
63.28,264.864,38.502
63.31,263.039,38.571
63.34,261.565,38.708
63.37,260.056,38.64
63.41,258.687,38.422
63.44,257.599,38.25
63.47,256.3,37.998
63.5,254.791,37.563
63.54,253.247,37.242
63.57,251.738,37.024
63.6,250.334,37.059
63.63,249.176,36.898
63.67,247.562,36.394
63.7,245.526,35.81
63.73,243.806,35.684
63.76,242.192,35.673
63.8,240.472,35.478
63.83,238.753,35.111
63.86,236.998,34.859
63.89,235.699,35.18
63.93,235.033,35.489
63.96,234.506,35.283
63.99,233.664,34.871
64.02,232.822,34.527
64.06,231.839,34.115
64.09,230.295,33.576
64.12,228.47,33.061
64.15,226.294,32.648
64.19,224.013,32.373
64.22,221.696,32.133
64.25,219.205,31.778
64.28,216.292,31.251
64.32,213.414,30.804
64.35,210.817,30.701
64.38,208.43,30.747
64.41,206.465,30.678
64.45,204.851,30.483
64.48,203.342,30.518
64.51,202.394,30.518
64.54,201.622,30.266
64.58,200.534,29.819
64.61,199.341,29.521
64.64,198.077,28.994
64.67,195.972,28.02
64.71,193.164,27.15
64.74,189.97,26.531
64.77,186.496,26.21
64.8,183.162,25.912
64.84,179.828,25.683
64.87,176.704,25.615
64.9,173.827,25.477
64.93,171.089,24.893
64.97,168.036,24.183
65.0,164.983,23.679
65.03,162.07,23.152
65.07,159.016,22.59
65.1,155.858,22.224
65.13,153.085,21.983
65.16,150.313,21.64
65.2,147.26,21.101
65.23,144.312,20.517
65.26,141.328,20.093
65.29,138.345,19.841
65.33,135.818,19.566
65.36,133.292,19.28
65.39,130.73,19.016
65.42,128.273,18.604
65.46,125.676,17.939
65.49,122.658,17.229
65.52,119.71,16.622
65.55,116.621,16.061
65.59,113.287,15.602
65.62,110.199,15.213
65.65,107.04,14.881
65.68,103.741,14.445
65.72,100.478,13.781
65.75,96.898,13.025
65.78,93.143,12.406
65.81,89.458,11.868
65.85,85.667,11.295
65.88,81.737,10.917
65.91,78.333,10.642
65.94,75.069,10.173
65.98,71.419,9.52
66.01,67.769,8.832
66.04,64.365,8.191
66.07,60.645,7.664
66.11,57.03,7.171
66.14,53.52,6.736
66.17,50.221,6.449
66.2,47.203,6.209
66.24,44.08,5.567
66.27,40.5,4.846
66.3,36.955,4.204
66.33,33.34,3.666
66.37,30.217,3.54
66.4,28.848,4.846
66.43,28.638,5.441
66.46,26.111,2.646
66.5,20.987,-0.16
66.53,14.67,-0.859
66.56,8.528,-0.916
66.59,1.825,-1.077
66.63,-0.632,-1.97
66.66,-2.176,-3.402
66.69,-4.913,-3.356
66.73,-6.212,-3.929
66.76,-9.546,-5.98
66.79,-14.951,-6.53
66.82,-20.461,-5.384
66.86,-25.023,-4.8
66.89,-28.883,-4.365
66.92,-31.691,-3.78
66.95,-33.867,-3.608
66.99,-35.376,-3.723
67.02,-36.464,-3.998
67.05,-37.552,-4.766
67.08,-39.447,-5.923
67.12,-41.974,-7.137
67.15,-45.238,-8.237
67.18,-49.098,-9.176
67.21,-53.204,-9.863
67.25,-57.591,-10.299
67.28,-61.803,-10.539
67.31,-65.523,-10.665
67.34,-68.857,-10.734
67.38,-71.945,-10.997
67.41,-74.753,-11.444
67.44,-77.28,-12.063
67.47,-80.368,-12.83
67.51,-83.562,-13.586
67.54,-86.72,-14.274
67.57,-90.3,-14.915
67.6,-93.81,-15.476
67.64,-97.389,-15.889
67.67,-101.039,-16.118
67.7,-104.233,-16.507
67.73,-107.497,-17.069
67.77,-110.971,-17.573
67.8,-114.024,-17.939
67.83,-116.867,-18.26
67.86,-119.71,-18.684
67.9,-122.588,-19.268
67.93,-125.43,-19.91
67.96,-128.799,-20.494
67.99,-132.098,-21.067
68.03,-135.362,-21.674
68.06,-138.942,-22.052
68.09,-142.206,-22.304
68.12,-145.154,-22.59
68.16,-148.137,-22.877
68.19,-150.734,-23.117
68.22,-153.085,-23.518
68.25,-155.682,-23.999
68.29,-158.279,-24.435
68.32,-160.876,-24.847
68.35,-163.368,-25.214
68.39,-165.79,-25.592
68.42,-168.317,-25.993
68.45,-171.019,-26.371
68.48,-173.476,-26.817
68.52,-176.283,-27.379
68.55,-179.372,-27.86
68.58,-182.074,-28.135
68.61,-184.46,-28.387
68.65,-186.917,-28.582
68.68,-189.339,-28.822
68.71,-191.515,-29.131
68.74,-193.726,-29.475
68.78,-195.901,-29.807
68.81,-197.902,-30.117
68.84,-199.797,-30.323
68.87,-201.482,-30.495
68.91,-202.885,-30.747
68.94,-204.535,-31.022
68.97,-206.36,-31.377
69.0,-208.15,-31.869
69.04,-210.291,-32.385
69.07,-212.642,-32.774
69.1,-214.923,-33.003
69.13,-217.029,-33.095
69.17,-219.029,-33.095
69.2,-220.714,-33.175
69.23,-222.398,-33.439
69.26,-224.048,-33.886
69.3,-225.943,-34.481
69.33,-228.224,-34.974
69.36,-230.54,-35.18
69.39,-232.576,-35.409
69.43,-234.612,-35.695
69.46,-236.612,-35.627
69.49,-238.086,-35.65
69.52,-239.7,-35.993
69.56,-241.525,-36.36
69.59,-243.14,-36.589
69.62,-244.579,-36.807
69.65,-246.017,-36.91
69.69,-247.246,-36.956
69.72,-248.369,-37.105
69.75,-249.667,-37.391
69.78,-251.001,-37.746
69.82,-252.475,-38.067
69.85,-253.914,-38.353
69.88,-255.388,-38.548
69.91,-256.792,-38.559
69.95,-257.915,-38.514
69.98,-258.932,-38.536
70.01,-260.02,-38.685
70.05,-261.073,-38.903
70.08,-262.126,-39.178
70.11,-263.214,-39.407
70.14,-264.372,-39.602
70.18,-265.495,-39.785
70.21,-266.794,-39.945
70.24,-267.882,-40.083
70.27,-269.075,-40.232
70.31,-270.233,-40.427
70.34,-271.461,-40.679
70.37,-272.83,-40.85
70.4,-273.918,-40.965
70.44,-275.006,-40.919
70.47,-275.848,-40.805
70.5,-276.375,-40.85
70.53,-276.866,-40.782
70.57,-277.147,-40.828
70.6,-277.638,-41.16
70.63,-278.13,-41.377
70.66,-278.761,-41.446
70.7,-279.182,-41.435
70.73,-279.533,-41.481
70.76,-279.779,-41.355
70.79,-279.884,-41.263
70.83,-280.13,-41.423
70.86,-280.481,-41.687
70.89,-280.902,-41.744
70.92,-281.183,-41.778
70.96,-281.639,-41.847
70.99,-281.955,-41.733
71.02,-281.92,-41.458
71.05,-281.709,-41.263
71.09,-281.393,-41.251
71.12,-281.113,-41.297
71.15,-280.692,-41.263
71.18,-280.341,-41.16
71.22,-279.498,-40.931
71.25,-278.445,-40.633
71.28,-277.357,-40.358
71.31,-276.234,-40.278
71.35,-275.217,-40.472
71.38,-274.585,-40.553
71.41,-273.848,-40.415
71.44,-272.971,-40.209
71.48,-272.093,-39.854
71.51,-270.83,-39.327
71.54,-269.145,-38.846
71.57,-267.39,-38.605
71.61,-265.706,-38.605
71.64,-264.232,-38.685
71.67,-262.828,-38.628
71.71,-261.565,-38.468
71.74,-260.126,-38.147
71.77,-258.582,-37.677
71.8,-256.932,-37.265
71.84,-255.212,-37.127
71.87,-253.633,-37.116
71.9,-252.299,-36.944
71.93,-250.72,-36.749
71.97,-249.492,-36.669
72.0,-248.123,-36.291
72.03,-246.404,-35.867
72.06,-244.754,-35.627
72.1,-243.175,-35.466
72.13,-241.631,-35.272
72.16,-240.121,-35.1
72.19,-238.577,-34.836
72.23,-236.823,-34.504
72.26,-234.682,-33.966
72.29,-232.506,-33.313
72.32,-230.225,-33.129
72.36,-228.084,-33.118
72.39,-226.224,-32.992
72.42,-224.188,-32.671
72.45,-222.293,-32.637
72.49,-220.959,-32.591
72.52,-219.485,-32.236
72.55,-217.731,-31.72
72.58,-215.906,-31.285
72.62,-214.081,-30.919
72.65,-212.045,-30.678
72.68,-210.185,-30.449
72.71,-208.255,-30.197
72.75,-206.114,-29.956
72.78,-204.044,-29.487
72.81,-201.692,-28.948
72.84,-199.271,-28.65
72.88,-197.06,-28.501
72.91,-194.954,-28.295
72.94,-192.813,-28.123
72.97,-191.058,-27.929
73.01,-189.374,-27.585
73.04,-187.268,-27.104
73.07,-185.057,-26.565
73.1,-182.741,-25.981
73.14,-180.074,-25.477
73.17,-177.512,-25.271
73.2,-175.125,-25.019
73.23,-172.423,-24.721
73.27,-169.896,-24.4
73.3,-167.615,-23.999
73.33,-164.983,-23.61
73.37,-162.315,-23.243
73.4,-159.789,-22.682
73.43,-157.016,-22.258
73.46,-154.349,-22.04
73.5,-151.717,-21.445
73.53,-148.663,-20.849
73.56,-145.435,-20.322
73.59,-142.592,-20.001
73.63,-139.609,-19.749
73.66,-136.731,-19.474
73.69,-134.204,-19.073
73.72,-131.432,-18.65
73.76,-128.589,-18.329
73.79,-126.132,-17.836
73.82,-123.289,-17.206
73.85,-120.341,-16.725
73.89,-117.534,-16.301
73.92,-114.691,-15.866
73.95,-111.497,-15.465
73.98,-108.62,-15.098
74.02,-105.847,-14.629
74.05,-102.829,-14.171
74.08,-99.706,-13.563
74.11,-96.196,-12.75
74.15,-92.195,-11.948
74.18,-88.335,-11.375
74.21,-84.544,-10.963
74.24,-80.719,-10.688
74.28,-77.28,-10.344
74.31,-73.875,-9.772
74.34,-70.085,-9.142
74.37,-66.435,-8.557
74.41,-62.926,-7.859
74.44,-58.995,-7.24
74.47,-55.205,-6.805
74.5,-51.765,-6.369
74.54,-48.08,-5.945
74.57,-44.641,-5.567
74.6,-41.377,-5.052
74.63,-38.078,-4.536
74.67,-34.814,-4.135
74.7,-32.182,-4.078
74.73,-31.129,-5.396
74.76,-31.235,-6.152
74.8,-29.234,-3.219
74.83,-24.637,-0.424
74.86,-18.916,0.183
74.89,-13.266,0.47
74.93,-6.563,1.398
74.96,-0.175,1.799
74.99,0.948,2.83
75.03,3.896,3.883
75.06,6.422,4.124
75.09,8.809,5.098
75.12,13.055,5.968
75.16,18.109,5.705
75.19,22.952,5.189
75.22,27.55,5.132
75.25,31.937,5.063
75.29,35.481,4.685
75.32,37.762,4.09
75.35,38.85,3.723
75.38,39.272,4.032
75.42,39.973,5.109
75.45,41.869,6.53
75.48,44.641,7.893
75.51,48.151,9.142
75.55,52.432,10.15
75.58,56.995,10.825
75.61,61.768,11.158
75.64,66.19,11.204
75.68,70.015,11.169
75.71,73.314,11.215
75.74,76.227,11.478
75.77,78.929,11.971
75.81,81.456,12.681
75.84,84.334,13.472
75.87,87.527,14.193
75.9,90.686,14.892
75.94,94.231,15.522
75.97,97.916,16.015
76.0,101.355,16.439
76.03,104.97,16.897
76.07,108.549,17.264
76.1,111.778,17.63
76.13,115.007,17.974
76.16,118.025,18.329
76.2,120.482,18.718
76.23,123.289,19.303
76.26,126.308,19.852
76.29,129.291,20.448
76.33,132.52,21.181
76.36,136.205,21.846
76.39,139.644,22.258
76.42,142.908,22.441
76.46,146.172,22.797
76.49,149.365,23.175
76.52,152.383,23.621
76.55,155.156,23.816
76.59,157.823,24.102
76.62,160.21,24.412
76.65,162.561,24.824
76.69,164.912,25.259
76.72,167.018,25.683
76.75,169.159,25.993
76.78,171.37,26.313
76.82,173.686,26.817
76.85,176.424,27.47
76.88,179.372,27.997
76.91,182.249,28.398
76.95,185.127,28.639
76.98,187.83,28.742
77.01,190.005,28.834
77.04,192.041,29.005
77.08,194.182,29.303
77.11,196.182,29.727
77.14,198.218,30.243
77.17,200.394,30.701
77.21,202.464,30.941
77.24,204.5,31.045
77.27,206.255,31.171
77.3,207.974,31.491
77.34,209.904,32.03
77.37,212.186,32.476
77.4,214.502,32.866
77.43,216.748,33.21
77.47,218.889,33.255
77.5,220.714,33.21
77.53,222.118,33.278
77.56,223.767,33.553
77.6,225.346,33.828
77.63,226.82,34.115
77.66,228.294,34.344
77.69,229.698,34.573
77.73,231.067,34.848
77.76,232.646,35.077
77.79,234.19,35.363
77.82,235.84,35.684
77.86,237.63,35.948
77.89,239.384,36.177
77.92,241.104,36.463
77.95,242.999,36.772
77.99,244.719,36.818
78.02,246.123,36.761
78.05,247.386,36.944
78.08,248.965,37.253
78.12,250.439,37.643
78.15,252.019,38.01
78.18,253.668,38.239
78.21,255.353,38.491
78.25,256.967,38.605
78.28,258.336,38.514
78.31,259.354,38.422
78.35,260.231,38.64
78.38,261.424,38.949
78.41,262.547,39.293
78.44,263.811,39.579
78.48,265.074,39.739
78.51,266.302,39.854
78.54,267.496,39.945
78.57,268.759,40.026
78.61,269.812,40.152
78.64,270.935,40.381
78.67,272.234,40.633
78.7,273.427,40.816
78.74,274.445,40.954
78.77,275.533,40.919
78.8,276.27,40.839
78.83,276.691,40.839
78.87,277.217,40.862
78.9,277.673,40.965
78.93,278.094,41.263
78.96,278.867,41.481
79.0,279.568,41.607
79.03,280.165,41.721
79.06,280.656,41.572
79.09,281.113,41.458
79.13,281.148,41.286
79.16,281.007,41.183
79.19,281.218,41.32
79.22,281.042,41.366
79.26,281.042,41.446
79.29,281.007,41.481
79.32,280.867,41.24
79.35,280.656,41.297
79.39,280.481,41.183
79.42,280.165,41.057
79.45,279.779,41.08
79.48,279.463,41.16
79.52,279.147,41.091
79.55,278.691,40.896
79.58,277.954,40.667
79.61,277.217,40.495
79.65,276.445,40.346
79.68,275.638,40.369
79.71,274.901,40.381
79.74,273.988,40.175
79.78,273.006,39.9
79.81,271.848,39.545
79.84,270.198,39.052
79.87,268.268,38.605
79.91,266.338,38.319
79.94,264.478,38.376
79.97,262.968,38.617
80.01,261.951,38.708
80.04,260.898,38.536
80.07,259.705,38.17
80.1,258.266,37.746
80.14,257.002,37.276
80.17,255.318,36.956
80.2,253.633,36.761
80.23,252.019,36.509
80.27,250.159,36.314
80.3,248.579,36.245
80.33,247.105,36.051
80.36,245.386,35.959
80.4,243.877,35.684
80.43,242.543,35.34
80.46,241.104,35.352
80.49,240.121,35.501
80.53,239.314,35.317
80.56,237.875,34.722
80.59,235.98,33.908
80.62,233.734,33.244
80.66,231.383,32.843
80.69,228.505,32.488
80.72,225.768,32.236
80.75,223.1,32.236
80.79,220.959,32.373
80.82,219.485,32.522
80.85,218.082,32.396
80.88,216.573,32.121
80.92,215.555,31.824
80.95,214.502,31.514
80.98,213.063,31.182
81.01,211.484,30.689
81.05,209.764,30.094
81.08,207.518,29.624
81.11,204.991,29.063
81.14,202.008,28.387
81.18,198.674,27.894
81.21,195.48,27.516
81.24,192.216,27.195
81.27,188.953,27.047
81.31,186.496,27.058
81.34,184.601,27.161
81.37,182.706,27.173
81.4,181.267,26.921
81.44,179.933,26.359
81.47,178.038,25.752
81.5,176.178,25.317
81.53,174.353,24.927
81.57,172.318,24.549
81.6,170.071,24.183
81.63,167.825,23.805
81.67,165.369,23.438
81.7,162.737,23.014
81.73,160.034,22.59
81.76,157.191,22.247
81.8,154.594,21.949
81.83,152.138,21.491
81.86,149.049,20.895
81.89,145.856,20.391
81.93,142.908,19.921
81.96,139.749,19.532
81.99,136.591,19.211
82.02,133.678,18.776
82.06,130.589,18.352
82.09,127.606,18.123
82.12,125.29,17.836
82.15,122.658,17.435
82.19,119.991,17.046
82.22,117.709,16.553
82.25,115.007,15.923
82.28,111.919,15.339
82.32,109.006,14.743
82.35,105.812,14.171
82.38,102.232,13.735
82.41,98.933,13.277
82.45,95.494,12.716
82.48,91.669,12.166
82.51,88.019,11.49
82.54,84.193,10.848
82.58,80.087,10.356
82.61,76.543,9.978
82.64,73.279,9.554
82.67,69.804,9.21
82.71,66.576,8.867
82.74,63.487,8.351
82.77,60.048,7.847
82.8,56.924,7.32
82.84,53.696,6.679
82.87,50.046,6.14
82.9,46.712,5.636
82.93,43.413,4.983
82.97,39.587,4.342
83.0,35.902,3.872
83.03,32.779,3.883
83.06,31.2,5.178
83.1,30.814,5.831
83.13,28.462,2.978
83.16,23.373,0.389
83.19,17.723,-0.057
83.23,12.354,-0.16
83.26,6.563,-0.722
83.29,0.667,-1.008
83.33,-0.526,-2.005
83.36,-2.737,-3.505
83.39,-5.791,-3.838
83.42,-7.826,-4.662
83.46,-11.301,-5.487
83.49,-15.933,-5.659
83.52,-21.268,-5.739
83.55,-26.637,-5.579
83.59,-31.375,-5.052
83.62,-34.85,-4.468
83.65,-37.376,-4.101
83.68,-38.991,-3.941
83.72,-39.868,-4.181
83.75,-40.851,-5.029
83.78,-42.641,-6.323
83.81,-45.378,-7.87
83.85,-49.028,-9.405
83.88,-53.625,-10.528
83.91,-58.398,-11.158
83.94,-63.347,-11.524
83.98,-67.944,-11.536
84.01,-71.594,-11.375
84.04,-74.788,-11.433
84.07,-77.666,-11.696
84.11,-80.157,-12.212
84.14,-82.719,-12.91
84.17,-85.492,-13.644
84.2,-88.3,-14.274
84.24,-91.212,-14.904
84.27,-94.441,-15.534
84.3,-97.775,-16.129
84.33,-101.25,-16.656
84.37,-104.865,-17.011
84.4,-108.234,-17.332
84.43,-111.497,-17.848
84.46,-115.007,-18.272
84.5,-118.095,-18.638
84.53,-120.938,-18.947
84.56,-123.816,-19.291
84.59,-126.588,-19.887
84.63,-129.536,-20.54
84.66,-132.87,-21.388
84.69,-136.134,-21.754
84.72,-139.153,-22.109
84.76,-142.241,-22.224
84.79,-144.943,-22.419
84.82,-147.646,-23.037
84.85,-150.523,-23.484
84.89,-153.296,-23.999
84.92,-155.963,-24.423
84.95,-159.016,-24.962
84.99,-162.035,-25.408
85.02,-164.667,-25.672
85.05,-167.264,-25.867
85.08,-169.826,-26.142
85.12,-172.037,-26.485
85.15,-174.493,-27.012
85.18,-177.196,-27.539
85.21,-179.933,-28.078
85.25,-182.741,-28.513
85.28,-185.303,-28.753
85.31,-187.689,-28.891
85.34,-190.005,-29.017
85.38,-192.111,-29.131
85.41,-193.831,-29.544
85.44,-195.866,-30.059
85.47,-198.112,-30.426
85.51,-200.113,-30.689
85.54,-202.008,-30.907
85.57,-203.833,-31.079
85.6,-205.518,-31.262
85.64,-207.167,-31.549
85.67,-208.922,-31.904
85.7,-210.677,-32.328
85.73,-212.607,-32.763
85.77,-214.818,-33.061
85.8,-216.853,-33.244
85.83,-218.819,-33.439
85.86,-220.714,-33.622
85.9,-222.398,-33.771
85.93,-224.048,-33.943
85.96,-225.803,-34.286
85.99,-227.452,-34.676
86.03,-229.382,-35.146
86.06,-231.558,-35.524
86.09,-233.629,-35.753
86.12,-235.278,-35.707
86.16,-236.787,-35.673
86.19,-238.332,-35.856
86.22,-239.665,-35.97
86.25,-241.034,-36.337
86.29,-242.438,-36.715
86.32,-243.877,-37.024
86.35,-245.386,-37.253
86.38,-246.895,-37.505
86.42,-248.369,-37.654
86.45,-249.878,-37.815
86.48,-251.387,-38.078
86.51,-252.896,-38.353
86.55,-254.546,-38.525
86.58,-255.949,-38.594
86.61,-257.213,-38.697
86.65,-258.406,-38.869
86.68,-259.599,-39.018
86.71,-260.828,-39.224
86.74,-262.056,-39.522
86.78,-263.319,-39.728
86.81,-264.688,-39.923
86.84,-265.952,-40.117
86.87,-267.32,-40.301
86.91,-268.619,-40.438
86.94,-269.847,-40.553
86.97,-271.04,-40.736
87.0,-272.304,-40.954
87.04,-273.497,-41.148
87.07,-274.655,-41.16
87.1,-275.427,-41.091
87.13,-276.059,-41.045
87.17,-276.48,-41.057
87.2,-276.726,-41.022
87.23,-277.112,-41.217
87.26,-277.673,-41.572
87.3,-278.27,-41.733
87.33,-278.691,-41.595
87.36,-279.218,-41.813
87.39,-279.919,-41.893
87.43,-280.341,-41.836
87.46,-281.007,-41.996
87.49,-281.288,-41.881
87.52,-281.674,-41.927
87.56,-282.271,-42.237
87.59,-282.797,-42.374
87.62,-283.078,-42.007
87.65,-282.973,-41.824
87.69,-282.481,-41.32
87.72,-281.569,-41.034
87.75,-280.656,-41.103
87.78,-280.095,-41.343
87.82,-279.428,-41.412
87.85,-278.586,-41.286
87.88,-277.884,-41.091
87.91,-277.007,-40.931
87.95,-276.164,-40.747
87.98,-275.322,-40.667
88.01,-274.55,-40.656
88.04,-273.848,-40.644
88.08,-273.251,-40.518
88.11,-272.409,-40.266
88.14,-271.251,-39.797
88.17,-269.777,-39.258
88.21,-268.022,-38.823
88.24,-265.952,-38.582
88.27,-264.232,-38.582
88.31,-262.617,-38.685
88.34,-261.249,-38.766
88.37,-260.091,-38.674
88.4,-258.897,-38.365
88.44,-257.458,-37.895
88.47,-255.984,-37.448
88.5,-254.3,-37.105
88.53,-252.51,-36.944
88.57,-250.896,-36.807
88.6,-249.281,-36.658
88.63,-247.842,-36.6
88.66,-246.439,-36.326
88.7,-244.754,-35.856
88.73,-242.999,-35.466
88.76,-241.28,-35.295
88.79,-239.63,-35.169
88.83,-238.086,-34.985
88.86,-236.191,-34.584
88.89,-234.471,-34.355
88.92,-232.751,-34.241
88.96,-231.102,-33.989
88.99,-229.347,-33.656
89.02,-227.522,-33.359
89.05,-225.732,-33.072
89.09,-224.083,-32.866
89.12,-222.433,-32.763
89.15,-220.889,-32.648
89.18,-219.415,-32.316
89.22,-217.59,-31.789
89.25,-215.555,-31.331
89.28,-213.554,-31.01
89.31,-211.519,-30.804
89.35,-209.554,-30.598
89.38,-207.518,-30.334
89.41,-205.482,-30.059
89.44,-203.447,-29.704
89.48,-201.306,-29.303
89.51,-199.2,-28.902
89.54,-197.025,-28.57
89.57,-194.778,-28.33
89.61,-192.638,-28.158
89.64,-190.707,-27.952
89.67,-188.847,-27.619
89.7,-186.812,-27.184
89.74,-184.636,-26.714
89.77,-182.32,-26.199
89.8,-179.793,-25.683
89.83,-177.161,-25.374
89.87,-174.669,-25.156
89.9,-172.212,-24.87
89.93,-169.65,-24.458
89.97,-167.159,-24.011
90.0,-164.561,-23.564
90.03,-161.789,-23.209
90.06,-159.157,-22.808
90.1,-156.63,-22.476
90.13,-154.068,-22.281
90.16,-151.331,-21.582
90.19,-148.383,-20.918
90.23,-145.224,-20.517
90.26,-142.311,-20.07
90.29,-139.503,-19.91
90.32,-136.801,-19.578
90.36,-134.38,-19.452
90.39,-132.063,-19.154
90.42,-129.677,-18.741
90.45,-127.396,-18.329
90.49,-125.009,-17.676
90.52,-122.026,-16.989
90.55,-118.867,-16.439
90.58,-115.709,-15.946
90.62,-112.305,-15.499
90.65,-109.006,-15.121
90.68,-105.812,-14.64
90.71,-102.408,-14.113
90.75,-98.863,-13.506
90.78,-95.284,-12.773
90.81,-91.458,-12.063
90.84,-87.527,-11.536
90.88,-83.878,-11.112
90.91,-80.228,-10.677
90.94,-76.578,-10.218
90.97,-73.033,-9.691
91.01,-69.418,-9.119
91.04,-65.628,-8.5
91.07,-61.978,-7.847
91.1,-58.363,-7.309
91.14,-54.608,-6.942
91.17,-51.239,-6.53
91.2,-47.94,-6.083
91.23,-44.641,-5.613
91.27,-41.553,-5.052
91.3,-38.148,-4.376
91.33,-34.569,-3.815
91.36,-31.41,-3.643
91.4,-29.831,-4.846
91.43,-29.164,-5.258
91.46,-26.321,-2.36
91.49,-21.338,-0.137
91.53,-15.758,0.046
91.56,-10.599,0.115
91.59,-4.738,0.687
91.63,-0.07,0.825
91.66,0.491,1.569
91.69,2.0,2.451
91.72,4.387,2.818
91.76,6.212,3.918
91.79,9.265,5.613
91.82,14.565,6.404
91.85,20.531,6.129
91.89,26.146,5.51
91.92,30.954,5.063
91.95,35.165,4.949
91.98,38.71,4.926
92.02,41.167,4.594
92.05,42.29,4.239
92.08,42.816,4.708
92.11,43.974,5.98
92.15,46.15,7.458
92.18,49.098,8.855
92.21,52.853,10.058
92.24,57.065,10.883
92.28,61.522,11.318
92.31,65.909,11.421
92.34,69.664,11.398
92.37,73.033,11.387
92.41,75.841,11.582
92.44,78.543,12.074
92.47,81.351,12.681
92.5,83.983,13.403
92.54,87.001,14.251
92.57,90.37,14.972
92.6,93.81,15.625
92.63,97.424,16.21
92.67,101.25,16.645
92.7,104.829,17.034
92.73,108.304,17.435
92.76,111.813,17.813
92.8,115.077,18.157
92.83,118.06,18.501
92.86,121.043,18.856
92.89,123.886,19.394
92.93,126.729,20.082
92.96,129.887,20.78
92.99,133.292,21.365
93.02,136.766,22.086
93.06,140.205,22.43
93.09,143.539,22.705
93.12,146.452,22.934
93.15,149.225,23.129
93.19,151.927,23.415
93.22,154.208,23.633
93.25,156.384,24.011
93.29,158.63,24.446
93.32,160.947,24.996
93.35,163.438,25.42
93.38,165.79,25.764
93.42,168.141,26.13
93.45,170.633,26.554
93.48,173.405,27.058
93.51,176.248,27.631
93.55,179.091,28.123
93.58,182.109,28.501
93.61,184.776,28.753
93.64,187.408,28.971
93.68,189.795,29.097
93.71,191.936,29.166
93.74,194.006,29.578
93.77,196.147,30.025
93.81,198.112,30.46
93.84,200.359,30.976
93.87,202.675,31.262
93.9,204.71,31.388
93.94,206.57,31.571
93.97,208.536,31.824
94.0,210.361,32.121
94.03,212.291,32.499
94.07,214.326,32.832
94.1,216.116,33.061
94.13,217.906,33.175
94.16,219.626,33.336
94.2,221.24,33.53
94.23,222.679,33.782
94.26,224.294,34.092
94.29,225.978,34.481
94.33,227.838,34.859
94.36,229.733,35.191
94.39,231.558,35.421
94.42,233.208,35.524
94.46,234.927,35.604
94.49,236.577,35.764
94.52,238.051,36.142
94.55,239.735,36.497
94.59,241.525,36.749
94.62,243.14,36.979
94.65,244.684,37.116
94.68,246.123,37.173
94.72,247.456,37.345
94.75,248.895,37.574
94.78,250.124,37.769
94.81,251.562,38.158
94.85,253.352,38.502
94.88,254.861,38.594
94.91,256.02,38.754
94.95,257.599,38.972
94.98,259.038,39.063
95.01,260.091,39.132
95.04,261.354,39.35
95.08,262.723,39.545
95.11,263.776,39.693
95.14,265.004,40.003
95.17,266.373,40.198
95.21,267.496,40.404
95.24,268.829,40.541
95.27,270.163,40.621
95.3,271.251,40.805
95.34,272.549,41.091
95.37,273.778,41.206
95.4,274.796,41.251
95.43,275.708,41.194
95.47,276.48,41.137
95.5,276.971,41.125
95.53,277.287,41.194
95.56,277.779,41.423
95.6,278.41,41.744
95.63,279.042,41.87
95.66,279.604,41.962
95.69,280.27,41.95
95.73,280.902,42.179
95.76,281.604,42.111
95.79,281.604,41.572
95.82,281.429,41.492
95.86,281.639,41.847
95.89,281.815,42.042
95.92,281.534,41.71
95.95,281.183,41.664
95.99,281.042,41.79
96.02,280.867,41.629
96.05,280.411,41.366
96.08,279.955,41.343
96.12,279.884,41.79
96.15,279.849,41.836
96.18,279.393,41.4
96.21,278.761,40.999
96.25,278.059,40.896
96.28,277.217,40.816
96.31,275.954,40.45
96.34,274.901,40.461
96.38,274.234,40.782
96.41,273.462,40.621
96.44,272.409,40.209
96.47,271.216,39.923
96.51,269.812,39.373
96.54,268.233,39.063
96.57,266.408,38.88
96.61,264.934,38.834
96.64,263.495,38.777
96.67,262.056,38.777
96.7,260.933,38.685
96.74,259.669,38.388
96.77,258.301,38.216
96.8,256.932,37.746
96.83,255.247,37.127
96.87,253.423,37.013
96.9,251.843,36.921
96.93,250.264,36.818
96.96,248.65,36.726
97.0,247.141,36.474
97.03,245.421,35.856
97.06,243.596,35.65
97.09,242.052,35.73
97.13,240.753,35.581
97.16,239.139,35.26
97.19,237.665,35.077
97.22,236.436,34.894
97.26,234.647,34.447
97.29,232.751,33.863
97.32,230.751,33.359
97.35,228.435,33.164
97.39,226.434,33.187
97.42,224.785,33.118
97.45,222.995,32.969
97.48,221.275,32.694
97.52,219.661,32.282
97.55,217.731,31.904
97.58,215.8,31.686
97.61,214.221,31.365
97.65,212.396,30.999
97.68,210.361,30.781
97.71,208.606,30.449
97.74,206.395,30.025
97.78,204.044,29.59
97.81,201.692,29.143
97.84,199.271,28.811
97.87,196.709,28.582
97.91,194.568,28.41
97.94,192.567,28.272
97.97,190.497,28.181
98.0,188.918,27.883
98.04,187.093,27.379
98.07,184.952,27.012
98.1,183.092,26.543
98.13,180.775,25.935
98.17,178.178,25.443
98.2,175.616,25.053
98.23,173.019,24.629
98.27,170.001,24.251
98.3,167.229,23.839
98.33,164.421,23.427
98.36,161.192,23.06
98.4,158.315,22.636
98.43,155.542,22.27
98.46,152.629,22.052
98.49,150.172,21.846
98.53,147.961,21.399
98.56,145.224,20.964
98.59,142.697,20.517
98.62,140.451,20.001
98.66,137.714,19.692
98.69,135.327,19.509
98.72,133.046,18.925
98.75,130.344,18.466
98.79,127.676,18.042
98.82,125.185,17.538
98.85,122.096,17.08
98.88,118.762,16.313
98.92,115.463,15.637
98.95,111.813,15.19
98.98,108.269,14.881
99.01,105.005,14.411
99.05,101.39,13.896
99.08,97.775,13.483
99.11,94.582,12.899
99.14,91.072,12.246
99.18,87.247,11.673
99.21,83.983,11.226
99.24,80.544,10.745
99.27,76.788,10.184
99.31,73.279,9.554
99.34,69.734,8.912
99.37,65.944,8.5
99.4,62.505,8.099
99.44,59.1,7.595
99.47,55.345,7.206
99.5,52.187,6.736
99.53,49.063,6.152
99.57,45.589,5.682
99.6,42.43,5.178
99.63,39.236,4.571
99.66,35.622,4.078
99.7,32.603,3.906
99.73,31.094,4.937
99.76,30.392,5.476
99.79,27.866,2.944
99.83,23.268,0.504
99.86,17.583,0.034
99.89,12.038,-0.309
99.93,5.37,-1.123
99.96,-0.07,-1.432
99.99,-0.632,-2.497
100.02,-3.545,-3.631
100.06,-6.107,-4.044
100.09,-8.563,-5.086
100.12,-12.704,-5.728
100.15,-17.723,-5.613
100.19,-23.022,-5.602
100.22,-28.111,-5.499
100.25,-32.779,-5.098
100.28,-36.218,-4.536
100.32,-38.184,-4.124
100.35,-39.342,-3.883
100.38,-39.903,-4.032
100.41,-40.395,-4.972
100.45,-41.833,-6.404
100.48,-44.395,-7.801
100.51,-47.729,-9.038
100.54,-51.765,-10.058
100.58,-56.293,-10.78
100.61,-60.96,-11.249
100.64,-65.804,-11.433
100.67,-70.12,-11.375
100.71,-73.489,-11.467
100.74,-76.578,-11.811
100.77,-79.842,-12.177
100.8,-82.368,-12.693
100.84,-85.071,-13.495
100.87,-88.264,-14.319
100.9,-91.283,-15.087
100.93,-94.652,-15.763
100.97,-98.442,-16.21
101.0,-101.776,-16.633
101.03,-105.215,-17.08
101.06,-109.076,-17.412
101.1,-112.27,-17.779
101.13,-115.218,-18.26
101.16,-118.446,-18.638
101.19,-121.394,-19.108
101.23,-124.237,-19.669
101.26,-127.641,-20.379
101.29,-131.116,-21.113
101.32,-134.45,-21.766
101.36,-138.135,-22.006
101.39,-141.048,-22.006
101.42,-143.399,-22.063
101.45,-146.031,-22.396
101.49,-148.453,-22.842
101.52,-150.523,-23.209
101.55,-153.05,-23.713
101.59,-155.647,-24.32
101.62,-158.174,-24.881
101.65,-160.947,-25.328
101.68,-163.789,-25.546
101.72,-166.176,-25.844
101.75,-168.808,-26.176
101.78,-171.405,-26.439
101.81,-173.721,-26.863
101.85,-176.353,-27.436
101.88,-179.231,-27.894
101.91,-181.898,-28.352
101.94,-184.601,-28.662
101.98,-187.163,-28.845
102.01,-189.409,-29.086
102.04,-191.62,-29.361
102.07,-193.901,-29.67
102.11,-196.007,-30.014
102.14,-198.148,-30.403
102.17,-200.253,-30.689
102.2,-202.113,-30.861
102.24,-203.798,-30.987
102.27,-205.553,-31.182
102.3,-207.202,-31.491
102.33,-208.992,-32.11
102.37,-211.273,-32.648
102.4,-213.519,-33.003
102.43,-215.695,-33.381
102.46,-217.941,-33.553
102.5,-219.942,-33.553
102.53,-221.696,-33.633
102.56,-223.486,-33.805
102.59,-225.101,-34.16
102.63,-226.645,-34.561
102.66,-228.61,-35.008
102.69,-230.646,-35.34
102.72,-232.436,-35.432
102.76,-233.91,-35.409
102.79,-235.313,-35.455
102.82,-236.612,-35.661
102.85,-237.946,-35.948
102.89,-239.279,-36.326
102.92,-240.858,-36.749
102.95,-242.683,-37.139
102.98,-244.473,-37.311
103.02,-245.947,-37.357
103.05,-247.351,-37.414
103.08,-248.965,-37.54
103.11,-250.439,-37.792
103.15,-251.843,-38.158
103.18,-253.563,-38.468
103.21,-255.142,-38.697
103.25,-256.511,-38.846
103.28,-257.845,-38.777
103.31,-258.897,-38.72
103.34,-259.915,-38.892
103.38,-261.179,-39.247
103.41,-262.442,-39.602
103.44,-263.67,-39.842
103.47,-264.934,-40.037
103.51,-266.162,-40.198
103.54,-267.426,-40.289
103.57,-268.619,-40.358
103.6,-269.601,-40.461
103.64,-270.795,-40.736
103.67,-271.988,-40.999
103.7,-273.181,-41.183
103.73,-274.339,-41.229
103.77,-275.217,-41.183
103.8,-276.024,-41.16
103.83,-276.585,-41.114
103.86,-277.007,-41.103
103.9,-277.533,-41.4
103.93,-278.165,-41.71
103.96,-278.867,-41.893
103.99,-279.463,-41.893
104.03,-279.955,-41.824
104.06,-280.235,-41.698
104.09,-280.411,-41.572
104.12,-280.411,-41.607
104.16,-280.516,-41.767
104.19,-280.762,-41.836
104.22,-280.867,-41.893
104.25,-281.113,-42.007
104.29,-281.429,-42.099
104.32,-281.744,-42.202
104.35,-281.639,-41.755
104.38,-281.148,-41.332
104.42,-280.762,-41.297
104.45,-280.411,-41.515
104.48,-279.955,-41.377
104.51,-279.182,-41.08
104.55,-278.2,-40.908
104.58,-277.182,-40.782
104.61,-276.059,-40.576
104.64,-274.936,-40.404
104.68,-273.883,-40.438
104.71,-273.041,-40.576
104.74,-272.409,-40.553
104.77,-271.672,-40.392
104.81,-270.76,-40.06
104.84,-269.672,-39.648
104.87,-268.303,-39.178
104.91,-266.653,-38.846
104.94,-265.144,-38.697
104.97,-263.6,-38.685
105.0,-262.126,-38.628
105.04,-260.722,-38.536
105.07,-259.283,-38.296
105.1,-257.669,-37.895
105.13,-256.055,-37.494
105.17,-254.335,-37.265
105.2,-252.686,-37.276
105.23,-251.352,-37.219
105.26,-250.089,-36.99
105.3,-248.685,-36.818
105.33,-247.316,-36.532
105.36,-245.702,-35.948
105.39,-243.806,-35.478
105.43,-241.982,-35.329
105.46,-240.332,-35.169
105.49,-238.437,-34.917
105.52,-236.612,-34.756
105.56,-235.033,-34.642
105.59,-233.173,-34.309
105.62,-231.277,-33.886
105.65,-229.558,-33.656
105.69,-227.979,-33.599
105.72,-226.364,-33.427
105.75,-224.82,-33.084
105.78,-223.206,-32.786
105.82,-221.626,-32.637
105.85,-219.977,-32.202
105.88,-217.836,-31.549
105.91,-215.52,-31.125
105.95,-213.274,-30.884
105.98,-211.063,-30.701
106.01,-208.922,-30.609
106.04,-206.992,-30.518
106.08,-205.167,-30.266
106.11,-203.166,-29.83
106.14,-201.131,-29.361
106.17,-199.095,-28.971
106.21,-197.025,-28.662
106.24,-194.989,-28.387
106.27,-192.953,-28.169
106.3,-190.848,-27.974
106.34,-189.058,-27.654
106.37,-186.952,-27.184
106.4,-184.671,-26.737
106.43,-182.32,-26.279
106.47,-179.863,-25.729
106.5,-177.161,-25.34
106.53,-174.669,-25.191
106.57,-172.318,-24.95
106.6,-169.826,-24.561
106.63,-167.334,-24.068
106.66,-164.702,-23.61
106.7,-161.824,-23.152
106.73,-159.052,-22.716
106.76,-156.419,-22.327
106.79,-153.612,-22.121
106.83,-150.98,-21.823
106.86,-148.488,-21.365
106.89,-145.68,-20.838
106.92,-142.697,-20.242
106.96,-139.854,-19.795
106.99,-136.871,-19.383
107.02,-134.204,-19.268
107.05,-131.747,-18.97
107.09,-129.08,-18.569
107.12,-126.448,-18.146
107.15,-124.026,-17.63
107.18,-121.254,-17.092
107.22,-118.236,-16.507
107.25,-115.042,-15.671
107.28,-111.462,-15.018
107.31,-107.742,-14.594
107.35,-104.338,-14.285
107.38,-101.074,-14.045
107.41,-97.81,-13.666
107.44,-94.582,-13.025
107.48,-91.072,-12.292
107.51,-87.422,-11.673
107.54,-83.983,-11.135
107.57,-80.368,-10.596
107.61,-76.613,-10.081
107.64,-73.103,-9.531
107.67,-69.489,-8.947
107.7,-65.523,-8.5
107.74,-61.978,-8.007
107.77,-58.434,-7.446
107.8,-54.749,-7.034
107.83,-51.52,-6.701
107.87,-48.537,-6.301
107.9,-45.308,-5.842
107.93,-42.255,-5.144
107.96,-38.815,-4.319
108.0,-34.99,-3.712
108.03,-31.796,-3.62
108.06,-30.287,-4.914
108.09,-29.585,-5.556
108.13,-26.953,-2.761
108.16,-22.215,-0.412
108.19,-16.811,-0.298
108.22,-11.792,0.011
108.26,-5.334,1.123
108.29,0.105,1.466
108.32,0.562,2.234
108.36,2.878,3.093
108.39,5.299,3.528
108.42,7.37,4.639
108.45,11.16,5.877
108.49,16.53,6.14
108.52,22.04,5.693
108.55,26.988,5.166
108.58,31.41,4.892
108.62,35.201,4.823
108.65,38.148,4.662
108.68,40.114,4.33
108.71,41.026,4.307
108.75,41.693,5.098
108.78,43.272,6.438
108.81,45.799,7.778
108.84,48.958,9.016
108.88,52.783,10.047
108.91,57.065,10.825
108.94,61.557,11.261
108.97,66.049,11.456
109.01,70.085,11.501
109.04,73.454,11.627
109.07,76.543,11.891
109.1,79.561,12.28
109.14,82.123,12.865
109.17,84.93,13.644
109.2,88.089,14.411
109.23,91.248,15.11
109.27,94.547,15.717
109.3,98.196,16.175
109.33,101.566,16.633
109.36,105.005,17.16
109.4,108.62,17.538
109.43,111.919,17.905
109.46,115.112,18.363
109.49,118.306,18.73
109.53,121.184,19.085
109.56,123.816,19.6
109.59,126.869,20.127
109.62,129.782,20.666
109.66,132.765,21.273
109.69,136.169,22.006
109.72,139.363,22.281
109.75,142.451,22.797
109.79,145.961,23.266
109.82,149.014,23.495
109.85,151.822,23.736
109.88,154.63,24.045
109.92,157.051,24.274
109.95,159.402,24.721
109.98,162.0,25.179
110.02,164.386,25.5
110.05,166.597,25.97
110.08,168.808,26.233
110.11,170.984,26.52
110.15,173.3,27.047
110.18,176.003,27.711
110.21,178.775,28.261
110.24,181.583,28.685
110.28,184.46,28.96
110.31,187.198,29.074
110.34,189.479,29.269
110.37,191.83,29.555
110.41,194.147,29.865
110.44,196.217,30.151
110.47,198.358,30.655
110.5,200.569,31.045
110.54,202.429,31.228
110.57,204.359,31.411
110.6,206.219,31.537
110.63,207.799,31.778
110.67,209.554,32.213
110.7,211.484,32.648
110.73,213.449,33.049
110.76,215.625,33.427
110.8,217.555,33.645
110.83,219.38,33.748
110.86,221.17,33.851
110.89,222.995,34.103
110.93,224.644,34.458
110.96,226.399,34.756
110.99,228.224,35.088
111.02,230.049,35.363
111.06,231.769,35.466
111.09,233.208,35.535
111.12,234.682,35.787
111.15,236.191,36.119
111.19,237.946,36.383
111.22,239.384,36.555
111.25,240.929,36.761
111.28,242.683,37.127
111.32,244.263,37.437
111.35,245.772,37.643
111.38,247.281,37.838
111.41,248.965,38.101
111.45,250.79,38.353
111.48,252.545,38.651
111.51,254.3,38.892
111.54,255.879,38.926
111.58,257.072,38.869
111.61,258.09,38.846
111.64,259.038,38.937
111.68,260.02,39.155
111.71,260.933,39.567
111.74,262.196,40.003
111.77,263.67,40.198
111.81,264.828,40.415
111.84,266.267,40.598
111.87,267.636,40.598
111.9,268.759,40.69
111.94,269.917,40.782
111.97,270.97,40.873
112.0,272.058,41.16
112.03,273.216,41.332
112.07,274.199,41.446
112.1,275.146,41.446
112.13,275.848,41.4
112.16,276.27,41.332
112.2,276.761,41.435
112.23,277.217,41.607
112.26,277.744,41.87
112.29,278.445,41.962
112.33,278.937,42.122
112.36,279.568,42.191
112.39,280.2,42.386
112.42,280.867,42.351
112.46,281.042,41.87
112.49,281.007,41.859
112.52,281.429,42.305
112.55,281.885,42.443
112.59,281.674,42.007
112.62,281.253,41.767
112.65,281.148,41.973
112.68,280.937,42.099
112.72,280.551,41.755
112.75,280.025,41.767
112.78,280.165,42.191
112.81,280.376,42.374
112.85,280.025,41.836
112.88,279.288,41.32
112.91,278.586,41.206
112.94,277.779,41.103
112.98,276.375,40.518
113.01,274.901,40.346
113.04,273.567,40.553
113.07,272.444,40.644
113.11,271.356,40.461
113.14,270.093,40.22
113.17,268.689,39.877
113.2,267.25,39.476
113.24,265.671,39.201
113.27,264.197,39.224
113.3,263.144,39.293
113.34,262.161,39.178
113.37,260.933,39.029
113.4,259.88,38.674
113.43,258.441,38.101
113.47,256.616,37.654
113.5,254.897,37.448
113.53,253.247,37.357
113.56,251.633,37.311
113.6,250.159,37.242
113.63,248.685,36.99
113.66,247.0,36.669
113.69,245.21,36.085
113.73,243.385,35.844
113.76,241.806,35.879
113.79,240.367,35.684
113.82,238.683,35.329
113.86,236.893,35.065
113.89,235.349,34.848
113.92,233.629,34.447
113.95,231.628,34.034
113.99,229.698,33.759
114.02,227.803,33.599
114.05,225.908,33.45
114.08,224.223,33.29
114.12,222.644,33.107
114.15,220.995,32.877
114.18,219.275,32.511
114.21,217.555,32.03
114.25,215.52,31.663
114.28,213.554,31.434
114.31,211.8,31.216
114.34,209.904,31.033
114.38,208.15,30.815
114.41,206.465,30.495
114.44,204.395,30.117
114.47,202.289,29.658
114.51,200.148,29.177
114.54,197.762,28.857
114.57,195.48,28.65
114.6,193.375,28.421
114.64,191.409,28.238
114.67,189.444,28.032
114.7,187.479,27.596
114.73,185.338,27.069
114.77,182.846,26.6
114.8,180.53,26.05
114.83,177.898,25.638
114.86,175.23,25.397
114.9,172.774,25.088
114.93,170.107,24.607
114.96,167.264,24.194
115.0,164.632,23.816
115.03,161.929,23.301
115.06,158.841,22.865
115.09,156.104,22.567
115.13,153.401,22.224
115.16,150.734,21.903
115.19,148.242,21.502
115.22,145.68,21.055
115.26,142.697,20.574
115.29,139.89,20.036
115.32,137.257,19.555
115.35,134.344,19.291
115.39,131.642,18.879
115.42,129.01,18.524
115.45,126.132,18.272
115.48,123.57,17.928
115.52,121.184,17.401
115.55,118.095,16.656
115.58,115.077,16.026
115.61,112.129,15.488
115.65,108.795,15.098
115.68,105.426,14.64
115.71,101.811,13.93
115.74,97.916,13.277
115.78,94.196,12.807
115.81,90.756,12.338
115.84,87.141,11.845
115.87,83.492,11.398
115.91,80.263,10.825
115.94,76.613,10.253
115.97,73.068,9.829
116.0,69.91,9.245
116.04,66.295,8.592
116.07,62.54,8.191
116.1,59.416,7.732
116.13,56.012,7.206
116.17,52.573,6.747
116.2,49.484,6.243
116.23,46.08,5.648
116.26,42.535,5.132
116.3,39.096,4.594
116.33,35.551,4.055
116.36,32.358,4.078
116.39,31.059,5.247
116.43,30.779,5.682
116.46,28.041,3.036
116.49,23.338,0.504
116.52,17.793,-0.115
116.56,12.178,-0.447
116.59,5.58,-1.077
116.62,0.14,-1.237
