Trigger_Date,2023/06/28
Trigger_Time,T 10:06:15.201 PDT
Samples_Per_Cycle,512
Microseconds_Per_Sample,32.531
Time (ms),Voltage (V),Current (A)
-16.66,-102.934,-0.653
-16.62,-106.093,-0.573
-16.59,-109.251,-0.619
-16.56,-112.305,-0.561
-16.53,-115.253,-0.561
-16.49,-118.306,-0.596
-16.46,-121.71,-0.699
-16.43,-125.325,-0.676
-16.4,-128.589,-0.573
-16.36,-131.747,-0.63
-16.33,-135.468,-0.779
-16.3,-139.328,-0.676
-16.27,-142.662,-0.607
-16.23,-146.242,-0.745
-16.2,-149.611,-0.561
-16.17,-152.91,-0.687
-16.14,-156.209,-0.55
-16.1,-158.841,-0.458
-16.07,-161.684,-0.584
-16.04,-164.632,-0.515
-16.01,-167.229,-0.481
-15.97,-170.001,-0.584
-15.94,-172.914,-0.527
-15.91,-175.476,-0.447
-15.88,-178.073,-0.55
-15.84,-181.056,-0.561
-15.81,-183.723,-0.481
-15.78,-186.461,-0.573
-15.75,-189.655,-0.63
-15.71,-192.743,-0.55
-15.68,-195.656,-0.561
-15.65,-198.604,-0.561
-15.62,-201.096,-0.378
-15.58,-203.166,-0.424
-15.55,-205.658,-0.481
-15.52,-207.658,-0.298
-15.48,-209.167,-0.263
-15.45,-210.992,-0.401
-15.42,-212.888,-0.321
-15.39,-214.537,-0.298
-15.35,-216.292,-0.355
-15.32,-217.871,-0.252
-15.29,-219.38,-0.286
-15.26,-221.24,-0.412
-15.22,-223.241,-0.332
-15.19,-225.031,-0.355
-15.16,-227.242,-0.47
-15.13,-229.523,-0.367
-15.09,-231.418,-0.355
-15.06,-233.629,-0.481
-15.03,-235.84,-0.344
-15.0,-237.805,-0.389
-14.96,-240.051,-0.447
-14.93,-242.122,-0.355
-14.9,-244.122,-0.412
-14.87,-246.79,-0.561
-14.83,-249.246,-0.367
-14.8,-250.896,-0.286
-14.77,-252.615,-0.344
-14.74,-253.633,-0.034
-14.7,-254.265,-0.195
-14.67,-255.493,-0.263
-14.64,-257.108,-0.344
-14.61,-259.283,-0.447
-14.57,-261.284,-0.309
-14.54,-262.758,-0.241
-14.51,-264.934,-0.561
-14.48,-267.847,-0.504
-14.44,-269.566,-0.183
-14.41,-270.9,-0.321
-14.38,-272.795,-0.401
-14.35,-274.339,-0.183
-14.31,-275.322,-0.16
-14.28,-275.919,-0.069
-14.25,-276.199,-0.023
-14.22,-277.112,-0.309
-14.18,-278.831,-0.321
-14.15,-279.955,-0.126
-14.12,-281.323,-0.344
-14.09,-282.832,-0.218
-14.05,-283.745,-0.149
-14.02,-285.324,-0.424
-13.99,-287.079,-0.241
-13.96,-288.237,-0.183
-13.92,-289.676,-0.344
-13.89,-291.15,-0.195
-13.86,-292.238,-0.195
-13.83,-293.431,-0.241
-13.79,-294.168,-0.023
-13.76,-294.379,-0.046
-13.73,-294.87,-0.103
-13.7,-294.835,0.115
-13.66,-294.589,0.011
-13.63,-295.291,-0.195
-13.6,-295.782,0.023
-13.57,-295.677,0.023
-13.53,-296.204,-0.16
-13.5,-296.449,0.069
-13.47,-297.011,-0.229
-13.44,-298.344,-0.218
-13.4,-298.344,0.218
-13.37,-298.134,-0.092
-13.34,-299.081,-0.241
-13.31,-299.397,0.103
-13.27,-298.695,0.183
-13.24,-298.134,0.069
-13.21,-297.607,0.172
-13.18,-296.66,0.183
-13.14,-296.063,0.115
-13.11,-295.502,0.137
-13.08,-294.87,0.115
-13.05,-294.449,0.126
-13.01,-293.361,0.309
-12.98,-292.133,0.195
-12.95,-291.396,0.137
-12.91,-290.273,0.332
-12.88,-288.974,0.195
-12.85,-288.412,0.092
-12.82,-287.36,0.344
-12.78,-285.815,0.286
-12.75,-284.727,0.195
-12.72,-283.148,0.424
-12.69,-281.007,0.412
-12.65,-279.288,0.321
-12.62,-277.568,0.378
-12.59,-275.989,0.298
-12.56,-274.655,0.252
-12.52,-273.392,0.275
-12.49,-272.198,0.229
-12.46,-270.865,0.309
-12.43,-269.321,0.344
-12.39,-267.847,0.252
-12.36,-266.618,0.252
-12.33,-265.074,0.355
-12.3,-263.46,0.309
-12.26,-262.091,0.252
-12.23,-260.477,0.401
-12.2,-258.301,0.47
-12.17,-256.195,0.389
-12.13,-254.23,0.435
-12.1,-252.194,0.378
-12.07,-250.334,0.401
-12.04,-248.474,0.355
-12.0,-247.386,0.137
-11.97,-246.439,0.275
-11.94,-244.368,0.55
-11.91,-242.122,0.389
-11.87,-240.508,0.275
-11.84,-238.577,0.504
-11.81,-235.735,0.619
-11.78,-233.208,0.412
-11.74,-231.067,0.47
-11.71,-228.294,0.619
-11.68,-225.452,0.515
-11.65,-223.1,0.435
-11.61,-220.995,0.401
-11.58,-219.17,0.378
-11.55,-217.204,0.424
-11.52,-215.625,0.229
-11.48,-214.677,0.172
-11.45,-213.168,0.424
-11.42,-211.168,0.389
-11.39,-209.518,0.298
-11.35,-207.588,0.47
-11.32,-205.202,0.493
-11.29,-202.815,0.447
-11.26,-200.359,0.561
-11.22,-197.832,0.481
-11.19,-195.656,0.412
-11.16,-193.304,0.538
-11.13,-190.637,0.515
-11.09,-188.075,0.515
-11.06,-185.513,0.504
-11.03,-183.337,0.378
-11.0,-181.091,0.515
-10.96,-178.038,0.687
-10.93,-174.809,0.607
-10.9,-171.931,0.561
-10.87,-168.878,0.664
-10.83,-165.439,0.699
-10.8,-162.14,0.664
-10.77,-158.806,0.653
-10.74,-156.209,0.424
-10.7,-153.647,0.596
-10.67,-150.348,0.722
-10.64,-147.33,0.493
-10.61,-145.294,0.344
-10.57,-143.013,0.561
-10.54,-140.24,0.561
-10.51,-137.292,0.642
-10.48,-133.818,0.722
-10.44,-130.905,0.493
-10.41,-127.992,0.687
-10.38,-123.956,0.882
-10.34,-119.955,0.722
-10.31,-116.411,0.71
-10.28,-112.901,0.687
-10.25,-109.532,0.664
-10.21,-106.093,0.71
-10.18,-102.513,0.733
-10.15,-98.547,0.836
-10.12,-94.406,0.825
-10.08,-90.44,0.768
-10.05,-86.334,0.894
-10.02,-81.491,1.02
-9.99,-76.718,0.871
-9.95,-73.244,0.561
-9.92,-69.945,0.768
-9.89,-65.663,0.905
-9.86,-61.873,0.642
-9.82,-58.855,0.596
-9.79,-55.591,0.699
-9.76,-51.871,0.756
-9.73,-48.642,0.573
-9.69,-45.94,0.538
-9.66,-42.992,0.642
-9.63,-39.938,0.607
-9.6,-37.096,0.561
-9.56,-34.183,0.584
-9.53,-30.989,0.699
-9.5,-27.339,0.768
-9.47,-23.338,0.825
-9.43,-19.302,0.802
-9.4,-15.442,0.768
-9.37,-11.441,0.813
-9.34,-7.37,0.825
-9.3,-3.439,0.745
-9.27,0.211,0.71
-9.24,3.825,0.733
-9.21,7.581,0.733
-9.17,11.09,0.676
-9.14,14.038,0.515
-9.11,17.232,0.756
-9.08,21.654,0.997
-9.04,26.181,0.836
-9.01,29.866,0.664
-8.98,33.305,0.699
-8.95,36.85,0.733
-8.91,40.605,0.745
-8.88,44.325,0.756
-8.85,47.975,0.71
-8.82,51.204,0.596
-8.78,54.257,0.619
-8.75,57.521,0.676
-8.72,60.995,0.71
-8.69,64.33,0.63
-8.65,67.172,0.55
-8.62,70.155,0.664
-8.59,73.595,0.699
-8.56,76.823,0.619
-8.52,80.052,0.687
-8.49,83.807,0.779
-8.46,87.598,0.756
-8.43,91.353,0.756
-8.39,95.319,0.813
-8.36,99.355,0.813
-8.33,103.004,0.664
-8.3,106.058,0.596
-8.26,109.041,0.607
-8.23,112.129,0.642
-8.2,115.147,0.596
-8.17,118.06,0.584
-8.13,121.324,0.722
-8.1,124.974,0.733
-8.07,128.484,0.642
-8.04,131.677,0.676
-8.0,135.748,0.928
-7.97,139.468,0.584
-7.94,142.522,0.653
-7.91,146.066,0.745
-7.87,149.33,0.607
-7.84,152.629,0.722
-7.81,155.753,0.538
-7.77,158.139,0.47
-7.74,160.947,0.653
-7.71,164.14,0.63
-7.68,166.983,0.538
-7.64,169.826,0.619
-7.61,172.668,0.573
-7.58,175.371,0.515
-7.55,178.214,0.607
-7.51,180.986,0.538
-7.48,183.337,0.424
-7.45,185.759,0.573
-7.42,188.672,0.607
-7.38,191.339,0.515
-7.35,194.147,0.607
-7.32,196.779,0.481
-7.29,198.534,0.286
-7.25,200.183,0.389
-7.22,202.289,0.447
-7.19,204.184,0.367
-7.16,206.149,0.447
-7.12,208.29,0.424
-7.09,210.22,0.389
-7.06,212.747,0.619
-7.03,215.485,0.481
-6.99,217.239,0.252
-6.96,219.064,0.504
-6.93,222.047,0.676
-6.9,225.241,0.619
-6.86,228.505,0.699
-6.83,231.242,0.412
-6.8,233.243,0.435
-6.77,235.77,0.584
-6.73,237.981,0.355
-6.7,238.823,0.034
-6.67,238.858,0.057
-6.64,239.7,0.298
-6.6,240.964,0.229
-6.57,242.087,0.241
-6.54,243.21,0.241
-6.51,244.649,0.355
-6.47,246.544,0.424
-6.44,248.299,0.344
-6.41,250.299,0.47
-6.38,252.861,0.55
-6.34,255.037,0.367
-6.31,257.002,0.447
-6.28,259.634,0.607
-6.25,261.705,0.275
-6.21,262.758,0.195
-6.18,264.127,0.378
-6.15,265.881,0.344
-6.12,267.461,0.332
-6.08,269.04,0.355
-6.05,270.619,0.309
-6.02,272.62,0.504
-5.99,275.076,0.481
-5.95,276.305,0.08
-5.92,276.971,0.218
-5.89,278.41,0.378
-5.86,279.674,0.172
-5.82,280.656,0.286
-5.79,282.025,0.252
-5.76,282.938,0.149
-5.73,284.166,0.367
-5.69,285.64,0.252
-5.66,286.482,0.137
-5.63,287.57,0.321
-5.6,288.939,0.252
-5.56,289.957,0.195
-5.53,291.325,0.355
-5.5,292.694,0.206
-5.47,293.431,0.137
-5.43,294.203,0.218
-5.4,294.94,0.115
-5.37,295.151,0.034
-5.34,295.607,0.172
-5.3,296.274,0.126
-5.27,296.555,0.057
-5.24,296.8,0.08
-5.21,296.941,0.046
-5.17,297.221,0.103
-5.14,298.169,0.321
-5.11,298.73,-0.046
-5.07,298.344,-0.057
-5.04,299.257,0.389
-5.01,300.485,0.126
-4.98,300.204,-0.115
-4.94,300.134,0.092
-4.91,299.924,-0.115
-4.88,299.081,-0.16
-4.85,298.029,-0.195
-4.81,296.73,-0.241
-4.78,295.782,-0.08
-4.75,295.361,-0.046
-4.72,294.554,-0.229
-4.68,293.291,-0.195
-4.65,292.659,-0.023
-4.62,292.308,-0.092
-4.59,291.29,-0.218
-4.55,290.308,-0.126
-4.52,289.676,-0.103
-4.49,288.763,-0.195
-4.46,287.535,-0.218
-4.42,286.096,-0.321
-4.39,284.201,-0.378
-4.36,282.341,-0.286
-4.33,280.621,-0.355
-4.29,278.551,-0.412
-4.26,276.691,-0.263
-4.23,275.357,-0.195
-4.2,274.129,-0.241
-4.16,272.62,-0.298
-4.13,270.83,-0.355
-4.1,268.864,-0.355
-4.07,267.496,-0.137
-4.03,266.583,-0.172
-4.0,265.25,-0.286
-3.97,264.372,-0.034
-3.94,264.337,0.046
-3.9,263.53,-0.298
-3.87,261.179,-0.55
-3.84,259.108,-0.252
-3.81,258.231,-0.08
-3.77,256.546,-0.481
-3.74,253.001,-0.813
-3.71,249.246,-0.653
-3.68,247.141,-0.16
-3.64,245.947,-0.252
-3.61,243.385,-0.653
-3.58,240.367,-0.458
-3.55,238.507,-0.241
-3.51,237.068,-0.252
-3.48,235.594,-0.263
-3.45,233.875,-0.367
-3.42,231.979,-0.344
-3.38,230.365,-0.252
-3.35,228.4,-0.458
-3.32,225.768,-0.481
-3.29,223.732,-0.309
-3.25,221.696,-0.447
-3.22,219.064,-0.481
-3.19,216.994,-0.298
-3.16,215.169,-0.389
-3.12,212.958,-0.401
-3.09,211.028,-0.321
-3.06,208.992,-0.435
-3.03,206.781,-0.389
-2.99,205.026,-0.252
-2.96,203.166,-0.401
-2.93,201.06,-0.378
-2.9,199.2,-0.332
-2.86,196.954,-0.481
-2.83,194.427,-0.447
-2.8,192.041,-0.424
-2.77,189.304,-0.596
-2.73,186.356,-0.504
-2.7,183.969,-0.424
-2.67,181.267,-0.561
-2.64,178.284,-0.573
-2.6,175.301,-0.55
-2.57,172.247,-0.584
-2.54,169.159,-0.573
-2.5,165.825,-0.687
-2.47,162.21,-0.687
-2.44,159.157,-0.481
-2.41,156.349,-0.573
-2.37,152.875,-0.699
-2.34,149.751,-0.493
-2.31,147.33,-0.424
-2.28,144.522,-0.63
-2.24,141.434,-0.515
-2.21,139.188,-0.321
-2.18,137.012,-0.481
-2.15,134.169,-0.561
-2.11,131.186,-0.573
-2.08,127.922,-0.642
-2.05,124.728,-0.573
-2.02,121.429,-0.687
-1.98,117.464,-0.768
-1.95,113.533,-0.756
-1.92,109.883,-0.619
-1.89,106.689,-0.584
-1.85,103.215,-0.745
-1.82,99.109,-0.768
-1.79,95.284,-0.687
-1.76,91.599,-0.699
-1.72,87.633,-0.79
-1.69,83.456,-0.768
-1.66,79.736,-0.664
-1.63,75.946,-0.756
-1.59,71.91,-0.756
-1.56,68.576,-0.527
-1.53,65.663,-0.584
-1.5,62.259,-0.71
-1.46,58.609,-0.653
-1.43,55.486,-0.55
-1.4,52.467,-0.584
-1.37,49.063,-0.699
-1.33,45.448,-0.664
-1.3,42.114,-0.607
-1.27,38.71,-0.687
-1.24,35.13,-0.664
-1.2,31.621,-0.676
-1.17,27.585,-0.836
-1.14,23.303,-0.813
-1.11,19.408,-0.676
-1.07,15.793,-0.699
-1.04,11.827,-0.79
-1.01,7.756,-0.745
-0.98,4.071,-0.676
-0.94,0.386,-0.733
-0.91,-3.159,-0.607
-0.88,-6.598,-0.664
-0.85,-10.178,-0.722
-0.81,-13.933,-0.687
-0.78,-17.267,-0.573
-0.75,-20.39,-0.63
-0.72,-24.005,-0.756
-0.68,-28.217,-0.836
-0.65,-31.902,-0.596
-0.62,-34.674,-0.481
-0.59,-37.868,-0.71
-0.55,-41.939,-0.848
-0.52,-46.08,-0.745
-0.49,-49.765,-0.676
-0.46,-53.38,-0.676
-0.42,-57.1,-0.733
-0.39,-60.925,-0.745
-0.36,-64.68,-0.642
-0.33,-67.558,-0.493
-0.29,-70.436,-0.584
-0.26,-73.595,-0.607
-0.23,-76.472,-0.493
-0.2,-79.28,-0.573
-0.16,-82.509,-0.653
-0.13,-85.843,-0.642
-0.1,-89.352,-0.699
-0.07,-93.353,-0.825
-0.03,-97.635,-0.825
0.0,-101.601,-0.699
0.03,-105.145,-0.653
0.07,-108.725,-0.71
0.1,-112.41,-0.699
0.13,-115.814,-0.584
0.16,-118.832,-0.584
0.2,-122.272,-0.699
0.23,-125.781,-0.642
0.26,-129.08,-0.63
0.29,-132.73,-0.733
0.33,-136.029,-0.527
0.36,-139.012,-0.584
0.39,-142.838,-0.871
0.42,-146.803,-0.642
0.46,-149.962,-0.596
0.49,-153.401,-0.722
0.52,-156.7,-0.527
0.55,-159.578,-0.561
0.59,-162.491,-0.55
0.62,-164.737,-0.321
0.65,-166.737,-0.447
0.68,-169.65,-0.653
0.72,-172.493,-0.435
0.75,-174.669,-0.401
0.78,-177.196,-0.527
0.81,-179.898,-0.493
0.85,-182.881,-0.63
0.88,-185.548,-0.389
0.91,-187.338,-0.298
0.94,-189.935,-0.664
0.98,-193.796,-0.779
1.01,-196.779,-0.389
1.04,-199.06,-0.47
1.07,-202.078,-0.664
1.11,-205.096,-0.481
1.14,-207.378,-0.401
1.17,-209.518,-0.401
1.2,-211.414,-0.344
1.24,-213.344,-0.367
1.27,-215.063,-0.263
1.3,-216.327,-0.195
1.33,-217.731,-0.309
1.37,-219.24,-0.229
1.4,-220.503,-0.218
1.43,-222.293,-0.435
1.46,-224.434,-0.378
1.5,-226.329,-0.344
1.53,-228.751,-0.561
1.56,-231.488,-0.47
1.59,-233.594,-0.344
1.63,-235.735,-0.447
1.66,-238.051,-0.424
1.69,-240.262,-0.401
1.72,-242.473,-0.412
1.76,-244.228,-0.241
1.79,-245.947,-0.401
1.82,-248.123,-0.401
1.85,-249.457,-0.115
1.89,-250.369,-0.229
1.92,-252.124,-0.401
1.95,-254.124,-0.344
1.98,-255.809,-0.321
2.02,-257.634,-0.367
2.05,-259.283,-0.252
2.08,-260.933,-0.344
2.11,-262.828,-0.367
2.15,-264.302,-0.183
2.18,-265.285,-0.195
2.21,-266.829,-0.355
2.24,-268.829,-0.378
2.28,-270.549,-0.309
2.31,-272.198,-0.298
2.34,-273.743,-0.298
2.37,-275.427,-0.321
2.41,-276.866,-0.218
2.44,-277.919,-0.149
2.47,-279.042,-0.252
2.5,-280.586,-0.321
2.54,-281.885,-0.172
2.57,-283.043,-0.229
2.6,-284.482,-0.298
2.64,-285.815,-0.218
2.67,-287.044,-0.218
2.7,-288.237,-0.229
2.73,-289.36,-0.195
2.77,-290.588,-0.241
2.8,-291.852,-0.229
2.83,-292.975,-0.183
2.86,-293.782,-0.115
2.9,-294.449,-0.115
2.93,-295.01,-0.08
2.96,-295.326,-0.023
2.99,-295.712,-0.103
3.03,-296.484,-0.149
3.06,-296.976,-0.046
3.09,-297.362,-0.057
3.12,-297.607,-0.046
3.16,-297.958,-0.057
3.19,-298.239,-0.034
3.22,-298.274,0.046
3.25,-298.344,-0.046
3.29,-298.906,-0.126
3.32,-299.257,0.023
3.35,-299.046,0.08
3.38,-298.976,0.0
3.42,-298.766,0.115
3.45,-297.818,0.252
3.48,-296.695,0.195
3.51,-296.063,0.08
3.55,-295.607,0.137
3.58,-294.835,0.195
3.61,-294.554,-0.034
3.64,-294.098,0.218
3.68,-293.045,0.206
3.71,-291.957,0.229
3.74,-290.729,0.252
3.77,-289.992,0.069
3.81,-289.465,0.172
3.84,-288.272,0.309
3.87,-286.974,0.229
3.9,-285.64,0.321
3.94,-283.85,0.401
3.97,-281.955,0.367
4.0,-279.814,0.47
4.03,-277.884,0.321
4.07,-276.761,0.183
4.1,-275.427,0.344
4.13,-273.988,0.252
4.16,-273.006,0.172
4.2,-271.672,0.389
4.23,-269.917,0.321
4.26,-268.654,0.195
4.29,-267.39,0.298
4.33,-266.092,0.252
4.36,-264.723,0.332
4.39,-263.319,0.241
4.42,-262.161,0.241
4.46,-260.406,0.458
4.49,-258.125,0.447
4.52,-256.02,0.412
4.55,-254.124,0.367
4.59,-252.194,0.458
4.62,-250.053,0.389
4.65,-247.983,0.447
4.68,-245.491,0.55
4.72,-243.14,0.401
4.75,-241.209,0.389
4.78,-238.963,0.481
4.81,-236.928,0.367
4.85,-235.208,0.332
4.88,-233.524,0.355
4.91,-232.26,0.195
4.94,-231.102,0.309
4.98,-228.996,0.504
5.01,-226.855,0.344
5.04,-225.206,0.344
5.07,-223.346,0.412
5.11,-221.275,0.412
5.14,-219.099,0.458
5.17,-216.924,0.401
5.21,-215.134,0.344
5.24,-212.888,0.538
5.27,-210.255,0.538
5.3,-207.904,0.412
5.34,-205.728,0.481
5.37,-203.447,0.447
5.4,-201.376,0.412
5.43,-199.236,0.458
5.47,-196.814,0.493
5.5,-194.357,0.538
5.53,-191.62,0.573
5.56,-188.918,0.538
5.6,-186.11,0.584
5.63,-183.302,0.55
5.66,-180.775,0.493
5.69,-178.178,0.573
5.73,-175.125,0.642
5.76,-172.072,0.584
5.79,-169.124,0.619
5.82,-165.79,0.71
5.86,-162.315,0.676
5.89,-159.227,0.573
5.92,-156.349,0.573
5.95,-153.296,0.653
5.99,-150.278,0.573
6.02,-147.61,0.538
6.05,-144.662,0.63
6.08,-141.75,0.55
6.12,-139.433,0.401
6.15,-137.328,0.481
6.18,-134.415,0.664
6.21,-131.256,0.619
6.25,-128.448,0.515
6.28,-125.536,0.63
6.31,-122.096,0.733
6.34,-118.306,0.779
6.38,-114.551,0.722
6.41,-111.006,0.699
6.44,-107.356,0.756
6.47,-103.496,0.779
6.51,-99.67,0.756
6.54,-95.845,0.768
6.57,-91.949,0.768
6.6,-87.703,0.916
6.64,-83.211,0.894
6.67,-79.21,0.699
6.7,-75.665,0.756
6.73,-71.419,0.916
6.77,-67.067,0.802
6.8,-63.768,0.596
6.83,-60.68,0.607
6.86,-57.591,0.653
6.9,-54.433,0.607
6.93,-51.66,0.538
6.96,-48.782,0.619
6.99,-45.834,0.596
7.03,-42.957,0.607
7.06,-39.658,0.71
7.09,-36.008,0.745
7.12,-32.358,0.699
7.16,-28.568,0.779
7.19,-24.321,0.894
7.22,-19.969,0.859
7.25,-15.968,0.745
7.29,-12.283,0.733
7.32,-8.388,0.813
7.35,-4.422,0.779
7.38,-0.737,0.699
7.42,2.808,0.71
7.45,6.598,0.802
7.48,10.844,0.905
7.51,15.056,0.825
7.55,19.092,0.779
7.58,23.163,0.836
7.61,27.199,0.768
7.64,30.322,0.515
7.68,32.709,0.424
7.71,35.201,0.561
7.74,37.973,0.584
7.77,40.71,0.515
7.81,43.272,0.515
7.84,46.01,0.619
7.87,49.519,0.768
7.91,53.485,0.836
7.94,57.591,0.802
7.97,61.522,0.802
8.0,65.804,0.894
8.04,70.155,0.871
8.07,74.016,0.687
8.1,77.525,0.722
8.13,81.14,0.699
8.17,84.369,0.607
8.2,87.457,0.642
8.23,90.862,0.71
8.26,94.406,0.687
8.3,97.495,0.596
8.33,100.443,0.584
8.36,103.531,0.676
8.39,106.9,0.676
8.43,110.234,0.642
8.46,113.498,0.676
8.49,117.078,0.768
8.52,120.868,0.733
8.56,124.588,0.745
8.59,128.484,0.825
8.62,132.133,0.653
8.65,135.503,0.699
8.69,139.328,0.848
8.72,143.153,0.676
8.75,146.347,0.619
8.78,149.4,0.642
8.82,152.629,0.664
8.85,155.331,0.447
8.88,157.227,0.344
8.91,158.841,0.344
8.95,160.701,0.435
8.98,162.596,0.367
9.01,164.281,0.367
9.04,166.878,0.676
9.08,170.949,0.951
9.11,174.844,0.607
9.14,177.441,0.493
9.17,180.319,0.664
9.21,184.601,1.008
9.24,189.233,0.859
9.27,192.006,0.309
9.3,193.304,0.252
9.34,195.901,0.733
9.37,199.622,0.71
9.4,201.797,0.241
9.43,202.85,0.218
9.47,204.675,0.515
9.5,207.588,0.63
9.53,210.326,0.481
9.56,212.431,0.412
9.6,214.713,0.515
9.63,217.415,0.561
9.66,219.696,0.401
9.69,221.556,0.332
9.73,223.17,0.378
9.76,225.031,0.389
9.79,227.066,0.458
9.82,229.242,0.424
9.86,230.891,0.286
9.89,232.436,0.367
9.92,234.225,0.378
9.95,235.77,0.286
9.99,237.103,0.298
10.02,238.683,0.355
10.05,240.437,0.401
10.08,242.262,0.355
10.12,243.982,0.367
10.15,245.807,0.389
10.18,247.456,0.321
10.21,248.93,0.309
10.25,250.615,0.412
10.28,252.721,0.458
10.31,254.721,0.367
10.34,256.581,0.424
10.38,258.932,0.515
10.41,261.319,0.47
10.44,263.214,0.298
10.48,264.478,0.275
10.51,265.987,0.367
10.54,267.987,0.447
10.57,269.847,0.332
10.61,271.181,0.229
10.64,272.62,0.378
10.67,274.409,0.367
10.7,275.568,0.126
10.74,276.129,0.149
10.77,276.901,0.195
10.8,277.919,0.229
10.83,279.323,0.355
10.87,280.832,0.275
10.9,281.85,0.195
10.93,283.078,0.332
10.96,284.552,0.298
11.0,285.956,0.321
11.03,287.535,0.355
11.06,288.974,0.252
11.09,290.308,0.309
11.13,291.852,0.332
11.16,293.01,0.195
11.19,293.887,0.195
11.22,294.695,0.16
11.26,295.116,0.069
11.29,295.361,0.08
11.32,295.607,0.046
11.35,295.782,0.08
11.39,296.274,0.137
11.42,296.555,0.034
11.45,296.519,0.023
11.48,296.906,0.149
11.52,297.327,0.069
11.55,297.256,-0.023
11.58,297.572,0.16
11.61,298.274,0.137
11.65,298.59,0.046
11.68,298.801,0.103
11.71,299.257,0.092
11.74,299.467,0.046
11.78,299.503,0.023
11.81,299.187,-0.069
11.84,298.836,-0.023
11.87,299.081,0.126
11.91,299.397,0.046
11.94,298.309,-0.412
11.97,296.414,-0.252
12.0,295.396,-0.115
12.04,294.659,-0.126
12.07,292.729,-0.573
12.1,289.325,-0.687
12.13,287.325,-0.092
12.17,287.36,0.137
12.2,286.517,-0.378
12.23,284.341,-0.401
12.26,282.938,-0.126
12.3,281.955,-0.195
12.33,280.727,-0.218
12.36,279.147,-0.355
12.39,277.322,-0.332
12.43,276.094,-0.115
12.46,275.322,-0.137
12.49,273.988,-0.332
12.52,272.269,-0.321
12.56,270.689,-0.252
12.59,269.391,-0.206
12.62,268.198,-0.206
12.65,266.794,-0.298
12.69,265.144,-0.321
12.72,263.811,-0.149
12.75,262.758,-0.206
12.78,260.617,-0.584
12.82,257.494,-0.584
12.85,255.704,-0.115
12.88,254.721,-0.218
12.91,252.545,-0.584
12.95,249.597,-0.527
12.98,248.053,-0.023
13.01,248.755,0.298
13.05,248.86,-0.16
13.08,247.281,-0.378
13.11,246.193,-0.057
13.14,245.842,0.0
13.18,245.07,-0.252
13.21,242.964,-0.47
13.24,240.086,-0.607
13.27,237.138,-0.504
13.31,234.471,-0.493
13.34,231.523,-0.619
13.37,227.698,-0.79
13.4,223.381,-0.848
13.44,219.696,-0.573
13.47,217.836,-0.149
13.5,216.537,-0.332
13.53,213.87,-0.642
13.57,211.729,-0.16
13.6,212.08,0.309
13.63,212.782,0.046
13.66,211.659,-0.389
13.7,209.589,-0.389
13.73,208.115,-0.16
13.76,206.676,-0.355
13.79,203.587,-0.768
13.83,199.341,-0.825
13.86,195.515,-0.653
13.89,191.971,-0.699
13.92,188.216,-0.71
13.96,184.706,-0.63
13.99,181.583,-0.573
14.02,178.494,-0.596
14.05,175.16,-0.664
14.09,171.826,-0.584
14.12,169.019,-0.493
14.15,165.825,-0.676
14.18,161.929,-0.768
14.22,158.771,-0.447
14.25,156.63,-0.367
14.28,153.717,-0.699
14.31,149.962,-0.722
14.35,146.944,-0.424
14.38,144.768,-0.378
14.41,142.381,-0.493
14.44,139.468,-0.584
14.48,136.415,-0.573
14.51,133.923,-0.378
14.54,131.642,-0.504
14.57,128.098,-0.79
14.61,124.202,-0.687
14.64,120.833,-0.584
14.67,117.464,-0.676
14.7,113.603,-0.779
14.74,109.848,-0.664
14.77,106.584,-0.573
14.8,103.32,-0.664
14.83,99.425,-0.779
14.87,95.529,-0.71
14.9,91.844,-0.699
14.93,87.878,-0.813
14.96,83.421,-0.871
15.0,79.42,-0.676
15.03,75.841,-0.687
15.06,72.015,-0.745
15.09,68.295,-0.664
15.13,64.821,-0.664
15.16,61.171,-0.687
15.19,57.661,-0.664
15.22,54.292,-0.63
15.26,51.099,-0.561
15.29,48.08,-0.584
15.32,44.817,-0.676
15.35,41.096,-0.71
15.39,37.727,-0.584
15.42,34.499,-0.63
15.45,30.743,-0.779
15.48,26.497,-0.848
15.52,22.531,-0.676
15.55,18.916,-0.699
15.58,14.951,-0.813
15.62,10.774,-0.79
15.65,6.808,-0.699
15.68,3.229,-0.676
15.71,-0.491,-0.722
15.75,-4.317,-0.722
15.78,-7.826,-0.619
15.81,-11.055,-0.573
15.84,-14.178,-0.63
15.88,-17.723,-0.71
15.91,-21.373,-0.653
15.94,-24.637,-0.596
15.97,-28.006,-0.687
16.01,-31.551,-0.653
16.04,-34.499,-0.447
16.07,-37.096,-0.504
16.1,-40.184,-0.63
16.14,-43.272,-0.55
16.17,-45.905,-0.458
16.2,-48.572,-0.55
16.23,-51.836,-0.676
16.27,-55.486,-0.699
16.3,-59.206,-0.687
16.33,-62.926,-0.722
16.36,-66.786,-0.756
16.4,-71.103,-0.871
16.43,-75.139,-0.687
16.46,-78.508,-0.607
16.49,-81.877,-0.699
16.53,-85.562,-0.699
16.56,-89.142,-0.676
16.59,-92.722,-0.664
16.62,-96.091,-0.653
16.66,-99.46,-0.619
16.69,-102.689,-0.607
16.72,-105.952,-0.653
16.75,-109.392,-0.63
16.79,-112.55,-0.596
16.82,-115.955,-0.687
16.85,-119.78,-0.79
16.88,-123.676,-0.687
16.92,-126.939,-0.573
16.95,-130.344,-0.722
16.98,-134.099,-0.676
17.01,-136.906,-0.447
17.05,-139.539,-0.55
17.08,-142.627,-0.584
17.11,-145.575,-0.55
17.14,-148.698,-0.642
17.18,-151.822,-0.515
17.21,-154.665,-0.573
17.24,-158.244,-0.756
17.27,-161.824,-0.607
17.31,-164.737,-0.527
17.34,-167.931,-0.699
17.37,-171.44,-0.63
17.4,-174.353,-0.493
17.44,-176.915,-0.47
17.47,-179.301,-0.424
17.5,-181.618,-0.435
17.53,-183.934,-0.435
17.57,-186.005,-0.355
17.6,-188.286,-0.515
17.63,-191.269,-0.596
17.66,-194.006,-0.47
17.7,-196.603,-0.493
17.73,-199.411,-0.561
17.76,-202.008,-0.447
17.79,-204.395,-0.435
17.83,-206.57,-0.401
17.86,-208.711,-0.378
17.89,-210.887,-0.447
17.92,-213.098,-0.355
17.96,-214.642,-0.218
17.99,-216.257,-0.378
18.02,-218.257,-0.367
18.05,-219.836,-0.241
18.09,-221.521,-0.378
18.12,-223.697,-0.424
18.15,-225.838,-0.401
18.19,-228.154,-0.481
18.22,-230.576,-0.424
18.25,-232.611,-0.344
18.28,-234.576,-0.401
18.32,-236.612,-0.389
18.35,-238.823,-0.435
18.38,-241.209,-0.458
18.41,-243.596,-0.424
18.45,-245.842,-0.435
18.48,-248.123,-0.412
18.51,-249.983,-0.298
18.54,-251.562,-0.298
18.58,-253.352,-0.378
18.61,-255.283,-0.344
18.64,-256.932,-0.286
18.67,-258.582,-0.332
18.71,-260.442,-0.367
18.74,-262.337,-0.367
18.77,-264.021,-0.252
18.8,-265.179,-0.183
18.84,-266.408,-0.252
18.87,-267.952,-0.321
18.9,-269.426,-0.229
18.93,-270.584,-0.206
18.97,-271.883,-0.241
19.0,-273.146,-0.229
19.03,-274.304,-0.183
19.06,-275.182,-0.137
19.1,-275.954,-0.149
19.13,-276.971,-0.206
19.16,-278.235,-0.286
19.19,-279.814,-0.309
19.23,-281.148,-0.195
19.26,-282.271,-0.206
19.29,-283.569,-0.298
19.32,-285.114,-0.298
19.36,-286.693,-0.286
19.39,-288.272,-0.286
19.42,-289.746,-0.252
19.45,-291.22,-0.263
19.49,-292.659,-0.263
19.52,-293.852,-0.183
19.55,-294.73,-0.126
19.58,-295.432,-0.103
19.62,-295.818,-0.023
19.65,-295.888,0.011
19.68,-296.169,-0.08
19.71,-296.59,-0.069
19.75,-296.8,-0.023
19.78,-296.976,0.0
19.81,-297.011,0.023
19.84,-297.151,-0.034
19.88,-297.292,0.023
19.91,-297.116,0.057
19.94,-297.432,-0.149
19.97,-298.169,-0.115
20.01,-298.415,0.046
20.04,-298.66,-0.092
20.07,-299.117,-0.069
20.1,-299.117,0.08
20.14,-298.766,0.103
20.17,-298.204,0.126
20.2,-297.713,0.092
20.23,-297.537,0.034
20.27,-297.046,0.183
20.3,-295.993,0.241
20.33,-295.045,0.149
20.36,-293.958,0.286
20.4,-292.343,0.389
20.43,-290.869,0.218
20.46,-289.851,0.206
20.49,-288.623,0.309
20.53,-287.43,0.206
20.56,-286.272,0.275
20.59,-284.587,0.412
20.62,-282.832,0.286
20.66,-281.288,0.367
20.69,-279.428,0.378
20.72,-278.2,0.149
20.76,-277.217,0.252
20.79,-275.883,0.298
20.82,-274.936,0.126
20.85,-273.848,0.321
20.89,-271.988,0.401
20.92,-270.479,0.241
20.95,-269.145,0.309
20.98,-267.636,0.321
21.02,-266.197,0.298
21.05,-264.513,0.378
21.08,-263.004,0.275
21.11,-261.53,0.321
21.15,-259.459,0.504
21.18,-257.248,0.389
21.21,-255.704,0.298
21.24,-253.738,0.47
21.28,-251.668,0.401
21.31,-249.983,0.298
21.34,-248.404,0.344
21.37,-246.404,0.458
21.41,-243.982,0.538
21.44,-241.806,0.344
21.47,-240.297,0.275
21.5,-238.437,0.481
21.54,-235.84,0.55
21.57,-233.664,0.332
21.6,-231.909,0.401
21.63,-229.663,0.515
21.67,-227.347,0.435
21.7,-225.206,0.447
21.73,-222.89,0.481
21.76,-221.03,0.298
21.8,-219.485,0.344
21.83,-217.485,0.447
21.86,-215.66,0.309
21.89,-213.87,0.435
21.93,-211.308,0.573
21.96,-208.922,0.424
21.99,-206.676,0.458
22.02,-204.149,0.55
22.06,-201.692,0.447
22.09,-199.551,0.435
22.12,-197.375,0.447
22.15,-195.129,0.47
22.19,-192.638,0.515
22.22,-190.216,0.47
22.25,-187.97,0.458
22.28,-185.513,0.515
22.32,-182.951,0.504
22.35,-180.389,0.504
22.38,-177.652,0.607
22.41,-174.599,0.607
22.45,-171.616,0.607
22.48,-168.387,0.699
22.51,-164.807,0.722
22.54,-161.578,0.55
22.58,-158.946,0.504
22.61,-155.682,0.802
22.64,-152.032,0.676
22.67,-149.049,0.55
22.71,-146.382,0.504
22.74,-143.61,0.619
22.77,-140.451,0.642
22.8,-137.503,0.515
22.84,-135.011,0.504
22.87,-132.274,0.596
22.9,-129.291,0.607
22.93,-126.167,0.63
22.97,-122.798,0.687
23.0,-119.218,0.756
23.03,-115.533,0.722
23.06,-112.024,0.687
23.1,-108.549,0.745
23.13,-104.724,0.745
23.16,-101.215,0.676
23.19,-97.775,0.699
23.23,-94.16,0.756
23.26,-90.23,0.802
23.29,-86.334,0.779
23.32,-82.404,0.802
23.36,-78.473,0.802
23.39,-74.437,0.813
23.42,-70.787,0.664
23.46,-67.523,0.63
23.49,-64.189,0.71
23.52,-60.75,0.664
23.55,-57.697,0.573
23.59,-54.889,0.573
23.62,-51.66,0.71
23.65,-48.01,0.745
23.68,-44.711,0.596
23.72,-41.693,0.596
23.75,-38.464,0.71
23.78,-34.744,0.779
23.81,-30.954,0.745
23.85,-27.234,0.745
23.88,-23.058,0.871
23.91,-18.53,0.951
23.94,-13.828,0.916
23.98,-9.37,0.871
24.01,-4.984,0.871
24.04,-0.772,0.836
24.07,3.018,0.687
24.11,6.317,0.664
24.14,9.616,0.664
24.17,12.88,0.642
24.2,16.074,0.63
24.24,19.408,0.699
24.27,22.987,0.71
24.3,26.427,0.676
24.33,29.796,0.664
24.37,32.814,0.573
24.4,35.622,0.596
24.43,38.64,0.619
24.46,41.518,0.584
24.5,44.676,0.653
24.53,48.361,0.825
24.56,52.257,0.733
24.59,55.486,0.584
24.63,58.749,0.733
24.66,62.961,0.916
24.69,67.418,0.871
24.72,70.963,0.573
24.76,73.946,0.653
24.79,77.806,0.859
24.82,81.667,0.71
24.85,84.966,0.642
24.89,88.44,0.733
24.92,92.195,0.779
24.95,95.915,0.71
24.98,99.214,0.619
25.02,102.478,0.676
25.05,105.917,0.687
25.08,109.181,0.63
25.11,112.305,0.619
25.15,115.674,0.733
25.18,119.289,0.722
25.21,122.693,0.664
25.24,126.343,0.779
25.28,130.168,0.779
25.31,133.292,0.493
25.34,136.591,0.813
25.37,140.697,0.848
25.41,143.82,0.424
25.44,146.558,0.664
25.47,150.348,0.825
25.5,153.928,0.63
25.54,156.911,0.584
25.57,160.034,0.664
25.6,162.982,0.55
25.63,165.755,0.596
25.67,168.703,0.596
25.7,171.475,0.538
25.73,173.862,0.447
25.76,176.213,0.493
25.8,178.74,0.55
25.83,181.232,0.47
25.86,183.092,0.321
25.89,185.057,0.481
25.93,187.9,0.642
25.96,190.778,0.55
25.99,193.41,0.538
26.03,196.498,0.71
26.06,199.937,0.664
26.09,202.991,0.596
26.12,205.974,0.596
26.16,208.746,0.538
26.19,211.203,0.504
26.22,213.625,0.458
26.25,215.485,0.355
26.29,217.239,0.378
26.32,218.924,0.321
26.35,219.521,0.011
26.38,220.152,0.286
26.42,222.398,0.607
26.45,224.294,0.218
26.48,225.417,0.252
26.51,227.487,0.55
26.55,230.084,0.538
26.58,232.085,0.332
26.61,234.085,0.47
26.64,236.191,0.389
26.68,237.7,0.275
26.71,239.56,0.493
26.74,241.876,0.447
26.77,243.806,0.355
26.81,245.596,0.389
26.84,247.316,0.344
26.87,248.86,0.332
26.9,250.685,0.424
26.94,252.686,0.378
26.97,254.37,0.332
27.0,256.125,0.378
27.03,257.915,0.378
27.07,259.81,0.424
27.1,261.775,0.389
27.13,263.214,0.229
27.16,264.583,0.332
27.2,266.513,0.47
27.23,268.549,0.355
27.26,269.952,0.252
27.29,271.602,0.424
27.33,273.637,0.424
27.36,275.287,0.252
27.39,276.305,0.183
27.42,277.077,0.172
27.46,278.059,0.241
27.49,279.674,0.401
27.52,281.113,0.218
27.55,281.92,0.149
27.59,283.218,0.389
27.62,284.727,0.241
27.65,285.815,0.229
27.68,287.289,0.355
27.72,288.553,0.183
27.75,289.465,0.229
27.78,290.939,0.367
27.81,292.203,0.183
27.85,292.975,0.183
27.88,293.887,0.218
27.91,294.414,0.046
27.94,294.624,0.092
27.98,295.081,0.149
28.01,295.432,0.057
28.04,295.853,0.172
28.07,296.555,0.149
28.11,296.941,0.057
28.14,297.432,0.183
28.17,297.923,0.057
28.2,297.958,0.034
28.24,297.993,0.046
28.27,297.993,-0.023
28.3,297.958,0.069
28.33,298.52,0.16
28.37,298.134,-0.218
28.4,296.941,-0.172
28.43,296.8,0.126
28.46,297.678,0.229
28.5,297.502,-0.218
28.53,296.414,-0.115
28.56,296.66,0.206
28.6,297.221,0.069
28.63,296.976,-0.103
28.66,296.063,-0.218
28.69,294.624,-0.263
28.73,293.536,-0.115
28.76,292.484,-0.252
28.79,290.694,-0.378
28.82,289.43,-0.092
28.86,288.448,-0.229
28.89,286.447,-0.47
28.92,284.622,-0.195
28.95,283.429,-0.263
28.99,281.323,-0.481
29.02,279.428,-0.229
29.05,278.235,-0.172
29.08,276.971,-0.252
29.12,275.813,-0.16
29.15,274.655,-0.229
29.18,273.111,-0.309
29.21,271.672,-0.218
29.25,270.198,-0.309
29.28,268.478,-0.321
29.31,267.11,-0.195
29.34,265.706,-0.298
29.38,264.127,-0.241
29.41,263.039,-0.137
29.44,261.705,-0.332
29.47,259.564,-0.447
29.51,257.458,-0.344
29.54,256.16,-0.137
29.57,255.142,-0.218
29.6,253.703,-0.286
29.64,252.37,-0.195
29.67,251.071,-0.229
29.7,249.457,-0.332
29.73,247.281,-0.493
29.77,244.579,-0.493
29.8,242.017,-0.47
29.83,239.244,-0.573
29.86,236.226,-0.561
29.9,233.594,-0.447
29.93,231.313,-0.412
29.96,228.856,-0.481
29.99,226.61,-0.344
30.03,225.066,-0.218
30.06,223.872,-0.206
30.09,222.328,-0.321
30.12,220.538,-0.298
30.16,218.748,-0.401
30.19,215.836,-0.664
30.22,212.221,-0.687
30.25,208.325,-0.813
30.29,204.044,-0.825
30.32,199.551,-0.894
30.35,195.305,-0.687
30.38,192.427,-0.401
30.42,190.637,-0.263
30.45,189.444,-0.149
30.48,188.988,0.011
30.51,188.953,0.046
30.55,189.128,0.057
30.58,189.128,0.0
30.61,188.496,-0.183
30.64,187.022,-0.344
30.68,184.987,-0.424
30.71,182.285,-0.596
30.74,178.775,-0.722
30.77,175.055,-0.699
30.81,170.949,-0.836
30.84,166.176,-0.962
30.87,161.543,-0.813
30.9,158.139,-0.515
30.94,155.331,-0.515
30.97,152.103,-0.676
31.0,148.558,-0.63
31.03,146.101,-0.321
31.07,144.347,-0.321
31.1,141.925,-0.584
31.13,138.38,-0.745
31.17,135.152,-0.493
31.2,132.344,-0.573
31.23,128.87,-0.722
31.26,125.571,-0.527
31.3,122.482,-0.607
31.33,119.183,-0.642
31.36,116.095,-0.515
31.39,113.358,-0.504
31.43,110.48,-0.561
31.46,107.391,-0.619
31.49,104.198,-0.596
31.52,100.793,-0.687
31.56,96.477,-0.928
31.59,91.809,-0.871
31.62,87.492,-0.768
31.65,83.176,-0.848
31.69,78.262,-1.008
31.72,73.595,-0.756
31.75,70.647,-0.389
31.78,68.12,-0.561
31.82,64.856,-0.642
31.85,61.908,-0.458
31.88,59.521,-0.435
31.91,56.714,-0.596
31.95,53.31,-0.687
31.98,49.87,-0.619
32.01,46.501,-0.676
32.04,42.535,-0.825
32.08,38.464,-0.745
32.11,34.709,-0.664
32.14,31.094,-0.71
32.17,26.988,-0.813
32.21,22.882,-0.779
32.24,19.092,-0.664
32.27,15.652,-0.653
32.3,11.897,-0.733
32.34,8.037,-0.733
32.37,4.317,-0.687
32.4,0.632,-0.699
32.43,-3.123,-0.722
32.47,-6.879,-0.722
32.5,-10.388,-0.607
32.53,-13.512,-0.584
32.56,-17.197,-0.779
32.6,-21.303,-0.813
32.63,-25.304,-0.733
32.66,-29.094,-0.699
32.69,-32.568,-0.63
32.73,-35.727,-0.561
32.76,-38.745,-0.596
32.79,-42.22,-0.722
32.82,-46.15,-0.756
32.86,-49.765,-0.63
32.89,-52.888,-0.55
32.92,-56.223,-0.699
32.95,-60.188,-0.825
32.99,-64.575,-0.836
33.02,-68.365,-0.642
33.05,-71.805,-0.676
33.08,-75.665,-0.79
33.12,-79.245,-0.573
33.15,-82.579,-0.699
33.18,-86.545,-0.756
33.21,-89.984,-0.573
33.25,-92.932,-0.55
33.28,-96.056,-0.642
33.31,-99.495,-0.664
33.34,-102.654,-0.573
33.38,-105.426,-0.47
33.41,-108.093,-0.561
33.44,-111.287,-0.642
33.47,-114.621,-0.63
33.51,-117.85,-0.584
33.54,-121.219,-0.699
33.57,-125.22,-0.79
33.6,-128.87,-0.607
33.64,-131.958,-0.584
33.67,-135.222,-0.653
33.7,-138.837,-0.71
33.74,-142.171,-0.561
33.77,-145.364,-0.664
33.8,-148.628,-0.573
33.83,-151.366,-0.47
33.87,-154.138,-0.584
33.9,-157.472,-0.664
33.93,-160.841,-0.607
33.96,-163.719,-0.504
34.0,-166.527,-0.573
34.03,-169.896,-0.699
34.06,-173.511,-0.653
34.09,-176.494,-0.493
34.13,-179.021,-0.458
34.16,-181.618,-0.504
34.19,-184.18,-0.458
34.22,-186.496,-0.412
34.26,-188.847,-0.458
34.29,-191.269,-0.47
34.32,-193.936,-0.55
34.35,-197.025,-0.63
34.39,-199.762,-0.424
34.42,-201.973,-0.401
34.45,-204.57,-0.561
34.48,-206.992,-0.378
34.52,-208.711,-0.298
34.55,-210.747,-0.435
34.58,-212.923,-0.378
34.61,-214.677,-0.298
34.65,-216.327,-0.298
34.68,-217.731,-0.229
34.71,-219.17,-0.321
34.74,-220.995,-0.344
34.78,-222.328,-0.183
34.81,-223.697,-0.321
34.84,-225.978,-0.515
34.87,-228.435,-0.389
34.91,-230.295,-0.344
34.94,-232.436,-0.47
34.97,-234.752,-0.389
35.0,-236.717,-0.378
35.04,-238.858,-0.424
35.07,-240.858,-0.344
35.1,-243.034,-0.447
35.13,-245.491,-0.47
35.17,-247.737,-0.367
35.2,-249.597,-0.367
35.23,-251.773,-0.447
35.26,-253.072,-0.069
35.3,-254.019,-0.252
35.33,-255.879,-0.412
35.36,-257.774,-0.298
35.39,-259.389,-0.332
35.43,-260.477,-0.08
35.46,-260.968,-0.08
35.49,-262.512,-0.47
35.52,-264.583,-0.321
35.56,-265.495,-0.046
35.59,-266.653,-0.355
35.62,-268.935,-0.504
35.65,-271.286,-0.389
35.69,-273.462,-0.435
35.72,-275.638,-0.367
35.75,-277.042,-0.195
35.78,-278.551,-0.355
35.82,-280.27,-0.263
35.85,-281.218,-0.092
35.88,-282.481,-0.355
35.91,-284.236,-0.263
35.95,-285.184,-0.115
35.98,-286.517,-0.344
36.01,-287.746,-0.126
36.04,-288.202,-0.034
36.08,-289.22,-0.298
36.11,-290.518,-0.183
36.14,-291.325,-0.126
36.17,-292.448,-0.263
36.21,-293.291,-0.069
36.24,-293.677,-0.046
36.27,-294.273,-0.149
36.3,-294.695,0.034
36.34,-294.835,-0.046
36.37,-295.712,-0.229
36.4,-296.379,-0.023
36.44,-296.519,-0.023
36.47,-297.116,-0.149
36.5,-297.678,-0.034
36.53,-297.748,0.034
36.57,-297.783,-0.023
36.6,-297.923,0.0
36.63,-298.309,-0.103
36.66,-298.941,-0.092
36.7,-299.327,-0.034
36.73,-299.573,-0.057
36.76,-300.275,-0.172
36.79,-300.204,0.229
36.83,-298.52,0.412
36.86,-297.818,-0.057
36.89,-298.169,-0.057
36.92,-297.432,0.355
36.96,-295.361,0.481
36.99,-293.431,0.321
37.02,-292.448,0.126
37.05,-291.606,0.241
37.09,-289.676,0.515
37.12,-287.781,0.241
37.15,-287.465,-0.057
37.18,-287.219,0.183
37.22,-286.061,0.252
37.25,-284.938,0.229
37.28,-283.499,0.378
37.31,-281.885,0.298
37.35,-280.586,0.241
37.38,-279.077,0.378
37.41,-277.287,0.321
37.44,-275.989,0.241
37.48,-274.725,0.298
37.51,-273.357,0.286
37.54,-271.777,0.367
37.57,-269.812,0.412
37.61,-268.163,0.275
37.64,-266.969,0.218
37.67,-265.601,0.344
37.7,-263.986,0.321
37.74,-262.653,0.252
37.77,-261.143,0.355
37.8,-259.143,0.47
37.83,-256.792,0.47
37.87,-254.686,0.389
37.9,-252.826,0.367
37.93,-250.826,0.458
37.96,-248.334,0.538
38.0,-246.474,0.252
38.03,-245.421,0.206
38.06,-243.561,0.504
38.09,-241.174,0.458
38.13,-239.595,0.172
38.16,-238.402,0.344
38.19,-236.366,0.458
38.22,-234.576,0.321
38.26,-232.787,0.378
38.29,-230.751,0.447
38.32,-228.575,0.424
38.35,-226.259,0.493
38.39,-223.802,0.481
38.42,-221.732,0.389
38.45,-219.626,0.447
38.48,-217.485,0.424
38.52,-215.59,0.378
38.55,-213.449,0.481
38.58,-211.098,0.447
38.61,-209.097,0.389
38.65,-206.886,0.504
38.68,-204.465,0.47
38.71,-202.394,0.378
38.74,-200.253,0.458
38.78,-198.183,0.389
38.81,-196.358,0.389
38.84,-193.971,0.538
38.87,-191.55,0.458
38.91,-189.304,0.47
38.94,-186.671,0.584
38.97,-184.18,0.458
39.01,-181.863,0.481
39.04,-179.056,0.63
39.07,-176.108,0.584
39.1,-173.23,0.573
39.14,-170.036,0.687
39.17,-166.632,0.676
39.2,-163.228,0.687
39.23,-160.139,0.561
39.27,-157.332,0.596
39.3,-153.401,0.951
39.33,-149.646,0.573
39.36,-147.435,0.378
39.4,-144.978,0.584
39.43,-141.609,0.745
39.46,-138.802,0.378
39.49,-137.503,0.195
39.53,-135.222,0.687
39.56,-131.958,0.619
39.59,-129.677,0.367
39.62,-126.799,0.745
39.66,-122.939,0.779
39.69,-119.078,0.779
39.72,-114.972,0.859
39.75,-110.69,0.848
39.79,-106.619,0.768
39.82,-103.18,0.63
39.85,-99.706,0.768
39.88,-95.599,0.859
39.92,-91.669,0.722
39.95,-88.229,0.687
39.98,-84.404,0.836
40.01,-80.298,0.813
40.05,-76.648,0.676
40.08,-72.858,0.859
40.11,-68.506,0.848
40.14,-65.102,0.573
40.18,-61.978,0.664
40.21,-58.223,0.825
40.24,-54.292,0.756
40.27,-51.099,0.561
40.31,-48.221,0.619
40.34,-44.711,0.768
40.37,-41.061,0.687
40.4,-37.903,0.596
40.44,-34.779,0.653
40.47,-31.235,0.745
40.5,-27.48,0.779
40.53,-23.584,0.756
40.57,-19.899,0.733
40.6,-16.425,0.687
40.63,-13.126,0.653
40.66,-9.686,0.71
40.7,-5.966,0.779
40.73,-2.351,0.687
40.76,1.263,0.756
40.79,5.44,0.882
40.83,9.862,0.894
40.86,14.143,0.848
40.89,18.425,0.859
40.92,22.636,0.836
40.96,26.602,0.756
40.99,29.831,0.55
41.02,32.147,0.389
41.05,34.253,0.493
41.09,37.096,0.653
41.12,40.254,0.607
41.15,43.062,0.515
41.18,45.869,0.63
41.22,49.73,0.894
41.25,54.257,0.916
41.28,58.504,0.802
41.31,62.61,0.836
41.35,66.716,0.848
41.38,70.857,0.813
41.41,74.507,0.676
41.44,77.631,0.584
41.48,80.473,0.584
41.51,83.456,0.619
41.54,86.615,0.653
41.58,89.809,0.653
41.61,93.002,0.664
41.64,96.512,0.745
41.67,100.232,0.733
41.71,103.741,0.687
41.74,107.181,0.71
41.77,110.796,0.733
41.8,114.34,0.699
41.84,117.709,0.664
41.87,121.219,0.733
41.9,124.904,0.733
41.93,128.273,0.63
41.97,131.326,0.607
42.0,134.731,0.756
42.03,138.17,0.642
42.06,141.504,0.71
42.1,145.154,0.745
42.13,148.769,0.71
42.16,152.173,0.642
42.19,154.98,0.55
42.23,158.244,0.756
42.26,161.929,0.71
42.29,164.561,0.378
42.32,166.281,0.367
42.36,168.808,0.653
42.39,172.072,0.653
42.42,174.529,0.389
42.45,176.143,0.309
42.49,178.038,0.435
42.52,180.319,0.493
42.55,182.951,0.561
42.58,185.548,0.493
42.62,188.075,0.538
42.65,191.234,0.745
42.68,195.024,0.756
42.71,198.463,0.653
42.75,201.622,0.63
42.78,204.43,0.515
42.81,207.378,0.664
42.84,210.536,0.607
42.88,212.466,0.206
42.91,213.344,0.183
42.94,215.485,0.653
42.97,218.292,0.47
43.01,219.24,0.0
43.04,219.696,0.218
43.07,221.275,0.424
43.1,223.276,0.401
43.14,225.346,0.435
43.17,226.926,0.275
43.2,228.4,0.321
43.23,230.681,0.607
43.27,233.138,0.401
43.3,234.892,0.355
43.33,236.647,0.355
43.36,238.086,0.241
43.4,239.7,0.424
43.43,242.332,0.63
43.46,244.789,0.378
43.49,246.228,0.252
43.53,247.842,0.389
43.56,249.738,0.389
43.59,251.808,0.447
43.62,253.879,0.424
43.66,255.423,0.241
43.69,257.037,0.401
43.72,259.248,0.538
43.75,261.389,0.367
43.79,262.898,0.298
43.82,264.442,0.355
43.85,266.022,0.309
43.88,267.531,0.344
43.92,269.18,0.355
43.95,270.724,0.286
43.98,272.234,0.344
44.01,273.848,0.344
44.05,275.076,0.183
44.08,276.129,0.275
44.11,277.463,0.286
44.15,278.445,0.16
44.18,279.709,0.355
44.21,281.393,0.344
44.24,282.446,0.149
44.28,283.745,0.378
44.31,285.429,0.332
44.34,286.552,0.195
44.37,287.816,0.321
44.41,289.255,0.275
44.44,290.237,0.195
44.47,291.501,0.332
44.5,292.799,0.218
44.54,293.536,0.126
44.57,294.273,0.195
44.6,294.905,0.115
44.63,295.116,0.011
44.67,295.432,0.149
44.7,296.098,0.149
44.73,296.555,0.092
44.76,296.976,0.103
44.8,297.432,0.103
44.83,297.713,0.08
44.86,298.52,0.275
44.89,298.871,-0.103
44.93,297.853,-0.195
44.96,297.923,0.252
44.99,299.432,0.355
45.02,299.432,-0.252
45.06,298.029,-0.229
45.09,297.678,0.126
45.12,298.555,0.218
45.15,298.064,-0.321
45.19,296.098,-0.389
45.22,295.502,0.16
45.25,296.835,0.378
45.28,297.081,-0.195
45.32,295.081,-0.493
45.35,293.466,-0.126
45.38,293.115,0.034
45.41,292.87,-0.069
45.45,291.536,-0.367
45.48,289.816,-0.263
45.51,288.693,-0.137
45.54,287.991,-0.08
45.58,286.938,-0.263
45.61,284.903,-0.458
45.64,282.727,-0.344
45.67,281.113,-0.252
45.71,279.428,-0.344
45.74,277.779,-0.229
45.77,276.55,-0.195
45.8,275.217,-0.298
45.84,273.813,-0.183
45.87,272.83,-0.16
45.9,271.707,-0.229
45.93,269.987,-0.378
45.97,268.092,-0.298
46.0,266.794,-0.195
46.03,265.601,-0.206
46.06,264.372,-0.229
46.1,262.653,-0.367
46.13,260.582,-0.389
46.16,258.301,-0.447
46.19,256.546,-0.206
46.23,255.318,-0.206
46.26,253.352,-0.504
46.29,250.755,-0.435
46.32,249.316,-0.092
46.36,248.334,-0.263
46.39,245.877,-0.607
46.42,243.105,-0.447
46.45,240.999,-0.355
46.49,238.823,-0.435
46.52,236.507,-0.401
46.55,234.12,-0.481
46.58,231.699,-0.424
46.62,229.979,-0.229
46.65,228.154,-0.412
46.68,225.732,-0.458
46.72,224.013,-0.206
46.75,222.433,-0.355
46.78,220.293,-0.424
46.81,218.327,-0.286
46.85,216.467,-0.401
46.88,214.011,-0.47
46.91,211.729,-0.389
46.94,209.203,-0.527
46.98,206.5,-0.481
47.01,204.359,-0.355
47.04,202.324,-0.389
47.07,200.464,-0.298
47.11,199.025,-0.206
47.14,197.481,-0.332
47.17,195.761,-0.332
47.2,193.901,-0.332
47.24,191.725,-0.47
47.27,188.988,-0.527
47.3,186.145,-0.527
47.33,183.057,-0.642
47.37,179.688,-0.63
47.4,176.283,-0.664
47.43,172.598,-0.699
47.46,169.264,-0.573
47.5,166.176,-0.607
47.53,162.701,-0.676
47.56,159.648,-0.47
47.59,157.297,-0.435
47.63,154.489,-0.596
47.66,151.506,-0.55
47.69,148.734,-0.47
47.72,146.066,-0.515
47.76,143.75,-0.355
47.79,141.82,-0.367
47.82,139.293,-0.573
47.85,136.099,-0.619
47.89,133.467,-0.389
47.92,131.116,-0.493
47.95,127.992,-0.664
47.98,124.132,-0.825
48.02,119.429,-0.962
48.05,115.077,-0.71
48.08,111.638,-0.607
48.11,107.918,-0.779
48.15,103.145,-1.008
48.18,98.442,-0.825
48.21,94.933,-0.504
48.24,92.16,-0.561
48.28,88.651,-0.768
48.31,84.544,-0.768
48.34,81.0,-0.573
48.37,78.017,-0.573
48.41,74.648,-0.676
48.44,71.068,-0.699
48.47,67.453,-0.676
48.5,63.943,-0.642
48.54,60.715,-0.607
48.57,57.416,-0.63
48.6,53.976,-0.664
48.63,50.397,-0.664
48.67,46.992,-0.63
48.7,43.694,-0.642
48.73,40.219,-0.687
48.76,36.604,-0.664
48.8,33.2,-0.607
48.83,29.971,-0.642
48.86,26.111,-0.813
48.89,21.724,-0.848
48.93,17.723,-0.71
48.96,13.863,-0.768
48.99,9.581,-0.848
49.02,5.229,-0.836
49.06,1.299,-0.642
49.09,-1.895,-0.584
49.12,-5.51,-0.779
49.15,-9.721,-0.79
49.19,-13.757,-0.745
49.22,-17.688,-0.745
49.25,-21.654,-0.768
49.29,-25.725,-0.768
49.32,-29.515,-0.676
49.35,-32.323,-0.435
49.38,-34.604,-0.401
49.42,-37.447,-0.63
49.45,-40.71,-0.607
49.48,-43.413,-0.435
49.51,-45.905,-0.527
49.55,-49.239,-0.687
49.58,-52.853,-0.687
49.61,-56.328,-0.653
49.64,-59.802,-0.664
49.68,-63.347,-0.699
49.71,-67.313,-0.79
49.74,-71.489,-0.825
49.77,-75.385,-0.653
49.81,-78.894,-0.699
49.84,-82.825,-0.779
49.87,-86.966,-0.79
49.9,-91.002,-0.733
49.94,-94.757,-0.71
49.97,-98.512,-0.722
50.0,-102.127,-0.664
50.03,-105.321,-0.573
50.07,-108.234,-0.55
50.1,-111.217,-0.55
50.13,-114.024,-0.515
50.16,-116.797,-0.515
50.2,-119.815,-0.619
50.23,-122.974,-0.584
50.26,-126.027,-0.607
50.29,-129.782,-0.779
50.33,-133.537,-0.642
50.36,-136.696,-0.584
50.39,-140.662,-0.916
50.42,-145.154,-0.79
50.46,-148.839,-0.619
50.49,-152.208,-0.664
50.52,-155.261,-0.504
50.55,-157.928,-0.515
50.59,-160.771,-0.527
50.62,-162.912,-0.263
50.65,-164.316,-0.286
50.68,-166.597,-0.561
50.72,-169.58,-0.55
50.75,-172.107,-0.435
50.78,-174.493,-0.47
50.81,-177.196,-0.515
50.85,-180.179,-0.607
50.88,-183.302,-0.584
50.91,-186.11,-0.515
50.94,-189.198,-0.653
50.98,-192.638,-0.653
51.01,-195.586,-0.47
51.04,-198.183,-0.515
51.07,-201.025,-0.504
51.11,-203.236,-0.355
51.14,-205.272,-0.378
51.17,-207.378,-0.412
51.2,-209.413,-0.355
51.24,-211.414,-0.401
51.27,-213.449,-0.332
51.3,-214.923,-0.241
51.33,-216.608,-0.378
51.37,-218.538,-0.332
51.4,-220.082,-0.241
51.43,-221.907,-0.435
51.46,-224.294,-0.447
51.5,-226.364,-0.355
51.53,-228.68,-0.493
51.56,-231.348,-0.493
51.59,-233.629,-0.367
51.63,-235.524,-0.367
51.66,-237.56,-0.389
51.69,-239.63,-0.389
51.72,-241.806,-0.435
51.76,-243.631,-0.252
51.79,-245.21,-0.355
51.82,-247.491,-0.47
51.85,-249.211,-0.16
51.89,-250.018,-0.149
51.92,-251.457,-0.355
51.95,-253.212,-0.298
51.99,-254.616,-0.218
52.02,-255.914,-0.263
52.05,-257.423,-0.298
52.08,-259.003,-0.298
52.12,-260.512,-0.263
52.15,-261.916,-0.229
52.18,-263.39,-0.332
52.21,-265.425,-0.412
52.25,-267.601,-0.401
52.28,-269.812,-0.435
52.31,-272.269,-0.47
52.34,-274.48,-0.367
52.38,-276.024,-0.218
52.41,-277.007,-0.137
52.44,-277.814,-0.126
52.47,-278.726,-0.172
52.51,-279.919,-0.252
52.54,-281.148,-0.183
52.57,-282.025,-0.149
52.6,-283.113,-0.241
52.64,-284.447,-0.229
52.67,-285.71,-0.229
52.7,-287.079,-0.252
52.73,-288.342,-0.229
52.77,-289.711,-0.252
52.8,-291.185,-0.309
52.83,-292.659,-0.218
52.86,-293.712,-0.16
52.9,-294.554,-0.16
52.93,-295.256,-0.103
52.96,-295.712,-0.034
52.99,-295.958,-0.046
53.03,-296.484,-0.115
53.06,-296.941,-0.069
53.09,-297.327,-0.057
53.12,-297.678,-0.057
53.16,-297.853,-0.023
53.19,-298.099,-0.046
53.22,-298.204,0.046
53.25,-297.888,0.103
53.29,-297.993,-0.103
53.32,-298.45,-0.057
53.35,-298.555,0.034
53.38,-298.73,-0.057
53.42,-299.081,-0.057
53.45,-298.976,0.115
53.48,-298.134,0.206
53.51,-297.467,0.092
53.55,-296.906,0.149
53.58,-296.379,0.103
53.61,-295.607,0.229
53.64,-294.168,0.332
53.68,-292.799,0.241
53.71,-291.641,0.275
53.74,-290.132,0.332
53.77,-288.904,0.195
53.81,-288.026,0.195
53.84,-287.009,0.206
53.87,-286.482,0.069
53.9,-285.921,0.183
53.94,-284.692,0.309
53.97,-283.499,0.206
54.0,-282.201,0.344
54.03,-280.341,0.401
54.07,-279.042,0.16
54.1,-277.954,0.309
54.13,-276.129,0.435
54.16,-274.409,0.286
54.2,-273.006,0.321
54.23,-271.286,0.367
54.26,-269.637,0.321
54.29,-267.952,0.389
54.33,-266.302,0.275
54.36,-265.144,0.218
54.39,-263.705,0.344
54.42,-262.196,0.275
54.46,-260.757,0.355
54.49,-258.441,0.573
54.52,-256.055,0.378
54.56,-254.581,0.252
54.59,-252.721,0.481
54.62,-250.439,0.47
54.65,-248.544,0.309
54.69,-247.0,0.321
54.72,-245.28,0.401
54.75,-242.999,0.504
54.78,-240.472,0.493
54.82,-238.788,0.218
54.85,-237.454,0.344
54.88,-235.349,0.481
54.91,-233.453,0.275
54.95,-232.471,0.183
54.98,-230.856,0.458
55.01,-228.435,0.515
55.04,-226.083,0.435
55.08,-223.907,0.447
55.11,-221.696,0.458
55.14,-219.205,0.55
55.17,-216.502,0.504
55.21,-214.397,0.355
55.24,-212.361,0.47
55.27,-209.834,0.538
55.3,-207.483,0.401
55.34,-205.658,0.378
55.37,-203.728,0.389
55.4,-201.938,0.367
55.43,-200.183,0.378
55.47,-198.253,0.412
55.5,-196.112,0.458
55.53,-193.655,0.515
55.56,-191.058,0.55
55.6,-188.216,0.584
55.63,-185.408,0.573
55.66,-182.741,0.493
55.69,-180.144,0.561
55.73,-177.126,0.642
55.76,-174.037,0.607
55.79,-171.159,0.561
55.82,-168.106,0.653
55.86,-164.807,0.699
55.89,-161.578,0.584
55.92,-158.946,0.481
55.95,-156.279,0.584
55.99,-153.296,0.63
56.02,-150.278,0.584
56.05,-147.295,0.619
56.08,-144.276,0.619
56.12,-141.083,0.664
56.15,-138.205,0.481
56.18,-135.643,0.573
56.21,-132.274,0.745
56.25,-128.87,0.607
56.28,-126.308,0.435
56.31,-123.886,0.55
56.34,-120.587,0.779
56.38,-116.306,0.928
56.41,-112.375,0.664
56.44,-109.286,0.596
56.47,-105.882,0.745
56.51,-102.022,0.825
56.54,-98.056,0.756
56.57,-94.476,0.676
56.6,-91.072,0.687
56.64,-87.141,0.859
56.67,-82.719,0.905
56.7,-78.333,0.848
56.73,-74.297,0.768
56.77,-70.682,0.676
56.8,-67.032,0.768
56.83,-63.066,0.813
56.86,-59.381,0.664
56.9,-56.363,0.561
56.93,-53.485,0.596
56.96,-50.362,0.642
56.99,-46.992,0.699
57.03,-43.553,0.664
57.06,-40.57,0.561
57.09,-37.692,0.619
57.13,-34.218,0.745
57.16,-30.112,0.859
57.19,-26.111,0.779
57.22,-22.285,0.745
57.26,-18.53,0.768
57.29,-14.319,0.905
57.32,-10.002,0.802
57.35,-6.317,0.699
57.39,-2.702,0.745
57.42,1.123,0.779
57.45,4.913,0.733
57.48,8.493,0.699
57.52,12.038,0.722
57.55,15.547,0.71
57.58,19.057,0.699
57.61,22.531,0.699
57.65,25.935,0.687
57.68,29.059,0.55
57.71,31.375,0.435
57.74,33.902,0.573
57.78,37.201,0.756
57.81,41.096,0.779
57.84,44.781,0.71
57.87,48.466,0.802
57.91,52.783,0.905
57.94,57.17,0.848
57.97,61.276,0.768
58.0,65.172,0.802
58.04,69.243,0.825
58.07,72.752,0.63
58.1,75.876,0.63
58.13,79.385,0.733
58.17,82.719,0.642
58.2,85.808,0.619
58.23,89.142,0.699
58.26,92.757,0.756
58.3,96.407,0.687
58.33,99.565,0.607
58.36,102.689,0.664
58.39,106.023,0.664
58.43,109.146,0.596
58.46,112.059,0.607
58.49,115.218,0.676
58.52,118.517,0.653
58.56,121.64,0.63
58.59,125.29,0.802
58.62,129.221,0.756
58.65,132.52,0.584
58.69,135.783,0.745
58.72,139.468,0.733
58.75,142.943,0.642
58.78,146.207,0.687
58.82,149.857,0.768
58.85,153.436,0.664
58.88,156.454,0.584
58.91,159.543,0.687
58.95,162.737,0.596
58.98,165.474,0.538
59.01,167.966,0.481
59.04,170.107,0.401
59.08,172.423,0.561
59.11,175.511,0.653
59.14,177.968,0.389
59.17,180.109,0.493
59.21,182.46,0.47
59.24,184.952,0.55
59.27,188.04,0.687
59.3,191.199,0.584
59.34,193.901,0.515
59.37,196.709,0.619
59.4,199.973,0.687
59.43,202.57,0.412
59.47,204.71,0.481
59.5,207.764,0.722
59.53,210.536,0.424
59.56,211.905,0.183
59.6,213.309,0.401
59.63,216.081,0.687
59.66,218.503,0.344
59.7,219.345,0.057
59.73,220.047,0.275
59.76,221.872,0.47
59.79,224.083,0.458
59.83,226.013,0.367
59.86,227.628,0.321
59.89,229.488,0.447
59.92,231.699,0.458
59.96,234.015,0.47
59.99,236.121,0.389
60.02,237.56,0.241
60.05,239.209,0.424
60.09,241.595,0.504
60.12,243.736,0.401
60.15,245.491,0.355
60.18,247.141,0.332
60.22,248.65,0.309
60.25,250.404,0.401
60.28,252.37,0.401
60.31,254.124,0.344
60.35,255.879,0.367
60.38,257.739,0.412
60.41,259.81,0.435
60.44,261.916,0.435
60.48,263.635,0.309
60.51,265.109,0.309
60.54,266.864,0.424
60.57,268.864,0.389
60.61,270.444,0.298
60.64,272.023,0.367
60.67,273.953,0.424
60.7,275.603,0.286
60.74,276.55,0.149
60.77,277.112,0.16
60.8,278.059,0.218
60.83,279.533,0.378
60.87,281.007,0.252
60.9,281.885,0.126
60.93,282.903,0.321
60.96,284.341,0.275
61.0,285.394,0.218
61.03,286.693,0.332
61.06,287.956,0.218
61.09,288.939,0.206
61.13,290.273,0.344
61.16,291.641,0.218
61.19,292.554,0.195
61.22,293.501,0.206
61.26,294.098,0.092
61.29,294.554,0.126
61.32,295.01,0.115
61.35,295.256,0.046
61.39,295.712,0.172
61.42,296.379,0.126
61.45,296.73,0.046
61.48,297.081,0.126
61.52,297.713,0.183
61.55,298.38,0.115
61.58,298.204,-0.126
61.61,297.958,0.092
61.65,298.836,0.286
61.68,299.818,0.149
61.71,299.432,-0.206
61.74,298.66,-0.057
61.78,298.555,0.046
61.81,298.555,0.023
61.84,297.713,-0.263
61.87,296.449,-0.16
61.91,296.274,0.103
61.94,296.484,0.011
61.97,296.239,-0.057
62.0,295.537,-0.149
62.04,294.449,-0.218
62.07,293.536,-0.115
62.1,292.519,-0.206
62.13,291.15,-0.263
62.17,289.992,-0.137
62.2,288.834,-0.252
62.23,287.044,-0.367
62.27,285.464,-0.206
62.3,283.955,-0.344
62.33,281.744,-0.458
62.36,279.674,-0.309
62.4,278.094,-0.263
62.43,276.585,-0.252
62.46,275.392,-0.183
62.49,274.199,-0.229
62.53,272.865,-0.229
62.56,271.602,-0.183
62.59,270.268,-0.252
62.62,268.97,-0.218
62.66,267.776,-0.183
62.69,266.513,-0.252
62.72,265.285,-0.172
62.75,264.021,-0.252
62.79,262.126,-0.424
62.82,259.599,-0.481
62.85,257.494,-0.321
62.88,255.914,-0.252
62.92,253.879,-0.47
62.95,251.457,-0.435
62.98,249.457,-0.298
63.01,248.158,-0.172
63.05,246.754,-0.321
63.08,244.298,-0.561
63.11,241.806,-0.412
63.14,239.981,-0.263
63.18,238.051,-0.412
63.21,235.594,-0.493
63.24,233.173,-0.401
63.27,231.242,-0.321
63.31,229.417,-0.367
63.34,227.171,-0.447
63.37,224.995,-0.367
63.4,223.346,-0.263
63.44,221.732,-0.309
63.47,219.731,-0.389
63.5,217.731,-0.367
63.53,215.941,-0.309
63.57,214.081,-0.367
63.6,211.659,-0.504
63.63,208.992,-0.493
63.66,206.641,-0.389
63.7,204.535,-0.389
63.73,202.394,-0.367
63.76,200.569,-0.309
63.79,198.709,-0.344
63.83,196.744,-0.389
63.86,194.638,-0.378
63.89,192.462,-0.424
63.92,189.865,-0.515
63.96,187.057,-0.561
63.99,184.145,-0.55
64.02,181.232,-0.55
64.05,178.108,-0.607
64.09,174.774,-0.653
64.12,171.616,-0.561
64.15,168.597,-0.561
64.18,165.334,-0.676
64.22,162.035,-0.584
64.25,159.367,-0.458
64.28,156.665,-0.515
64.31,153.787,-0.584
64.35,150.769,-0.573
64.38,147.821,-0.527
64.41,144.978,-0.527
64.44,141.995,-0.596
64.48,139.153,-0.47
64.51,136.591,-0.504
64.54,133.292,-0.722
64.57,130.133,-0.481
64.61,127.817,-0.389
64.64,125.15,-0.584
64.67,121.465,-0.825
64.7,117.358,-0.745
64.74,113.884,-0.573
64.77,110.796,-0.596
64.8,107.04,-0.813
64.83,102.583,-0.894
64.87,98.372,-0.722
64.9,94.617,-0.687
64.93,90.791,-0.745
64.97,86.685,-0.79
65.0,82.755,-0.71
65.03,78.894,-0.745
65.06,74.998,-0.71
65.1,71.84,-0.515
65.13,68.962,-0.584
65.16,65.698,-0.642
65.19,62.575,-0.515
65.23,59.802,-0.515
65.26,56.749,-0.63
65.29,53.45,-0.619
65.32,50.291,-0.596
65.36,46.747,-0.733
65.39,42.711,-0.79
65.42,39.026,-0.619
65.45,35.938,-0.584
65.49,32.112,-0.825
65.52,27.795,-0.848
65.55,23.654,-0.722
65.58,20.004,-0.676
65.62,16.179,-0.756
65.65,11.967,-0.848
65.68,7.791,-0.768
65.71,3.931,-0.676
65.75,0.632,-0.596
65.78,-2.808,-0.71
65.81,-6.808,-0.79
65.84,-10.634,-0.653
65.88,-13.933,-0.607
65.91,-17.548,-0.756
65.94,-21.654,-0.836
65.97,-25.9,-0.779
66.01,-29.655,-0.642
66.04,-32.744,-0.515
66.07,-35.481,-0.515
66.1,-38.535,-0.642
66.14,-42.079,-0.676
66.17,-45.554,-0.653
66.2,-48.747,-0.573
66.23,-51.801,-0.584
66.27,-55.275,-0.722
66.3,-59.171,-0.756
66.33,-62.996,-0.699
66.36,-66.505,-0.63
66.4,-69.91,-0.676
66.43,-73.665,-0.745
66.46,-77.174,-0.619
66.49,-80.403,-0.619
66.53,-83.842,-0.676
66.56,-87.492,-0.699
66.59,-91.037,-0.687
66.62,-94.687,-0.687
66.66,-98.442,-0.733
66.69,-102.127,-0.687
66.72,-105.496,-0.596
66.75,-108.62,-0.607
66.79,-111.848,-0.619
66.82,-115.042,-0.596
66.85,-118.06,-0.561
66.88,-121.254,-0.676
66.92,-125.816,-1.042
66.95,-131.361,-1.077
66.98,-136.31,-0.859
67.01,-140.346,-0.687
67.05,-144.382,-0.871
67.08,-149.155,-0.916
67.11,-152.91,-0.55
67.14,-155.331,-0.367
67.18,-157.507,-0.424
67.21,-159.543,-0.321
67.24,-161.122,-0.286
67.27,-162.982,-0.389
67.31,-165.158,-0.424
67.34,-167.615,-0.493
67.37,-170.493,-0.596
67.4,-173.651,-0.63
67.44,-177.161,-0.699
67.47,-180.67,-0.664
67.5,-183.794,-0.515
67.54,-186.566,-0.493
67.57,-189.374,-0.573
67.6,-192.252,-0.527
67.63,-194.989,-0.47
67.67,-197.235,-0.389
67.7,-199.376,-0.435
67.73,-201.797,-0.458
67.76,-203.973,-0.344
67.8,-205.588,-0.286
67.83,-207.448,-0.401
67.86,-209.624,-0.389
67.89,-211.694,-0.389
67.93,-213.66,-0.355
67.96,-215.485,-0.355
67.99,-217.625,-0.401
68.02,-219.556,-0.344
68.06,-220.995,-0.206
68.09,-222.749,-0.424
68.12,-225.241,-0.493
68.15,-227.312,-0.321
68.19,-229.102,-0.344
68.22,-231.348,-0.47
68.25,-233.524,-0.378
68.28,-235.349,-0.332
68.32,-236.998,-0.286
68.35,-238.753,-0.367
68.38,-240.999,-0.47
68.41,-243.14,-0.344
68.45,-244.649,-0.252
68.48,-246.509,-0.424
68.51,-248.615,-0.355
68.54,-250.229,-0.241
68.58,-251.633,-0.286
68.61,-253.387,-0.378
68.64,-255.563,-0.424
68.67,-257.564,-0.344
68.71,-259.213,-0.298
68.74,-261.143,-0.424
68.77,-263.39,-0.389
68.8,-264.969,-0.195
68.84,-265.987,-0.172
68.87,-267.461,-0.378
68.9,-269.531,-0.344
68.93,-271.146,-0.241
68.97,-272.549,-0.286
69.0,-273.918,-0.229
69.03,-275.217,-0.252
69.06,-276.585,-0.229
69.1,-277.533,-0.126
69.13,-278.586,-0.252
69.16,-280.27,-0.355
69.19,-281.604,-0.172
69.23,-282.762,-0.229
69.26,-284.306,-0.309
69.29,-285.71,-0.229
69.32,-286.903,-0.206
69.36,-288.026,-0.195
69.39,-289.149,-0.218
69.42,-290.448,-0.252
69.45,-291.641,-0.172
69.49,-292.659,-0.218
69.52,-293.747,-0.206
69.55,-294.624,-0.092
69.58,-295.081,-0.103
69.62,-295.537,0.0
69.65,-289.711,2.222
69.68,-275.603,3.139
69.71,-266.864,0.481
69.75,-267.039,-0.355
69.78,-264.021,1.409
69.81,-256.651,1.443
69.84,-255.072,-0.653
69.88,-262.231,-1.993
69.91,-271.286,-1.558
69.94,-277.919,-1.054
69.97,-284.552,-1.466
70.01,-292.484,-1.581
70.04,-297.923,-0.573
70.07,-299.889,-0.218
70.11,-301.784,-0.447
70.14,-303.223,-0.115
70.17,-303.117,0.16
70.2,-301.819,0.389
70.24,-299.959,0.389
70.27,-298.274,0.298
70.3,-296.695,0.344
70.33,-295.01,0.355
70.37,-293.326,0.367
70.4,-291.431,0.401
70.43,-289.851,0.252
70.46,-289.255,0.034
70.5,-288.974,0.115
70.53,-288.132,0.206
70.56,-287.43,0.103
70.59,-286.763,0.195
70.63,-285.57,0.309
70.66,-284.096,0.309
70.69,-282.341,0.412
70.72,-280.551,0.321
70.76,-279.218,0.252
70.79,-277.638,0.389
70.82,-275.848,0.309
70.85,-274.48,0.286
70.89,-272.62,0.447
70.92,-270.619,0.367
70.95,-269.18,0.241
70.98,-267.987,0.252
71.02,-266.724,0.252
71.05,-265.285,0.332
71.08,-263.881,0.275
71.11,-262.933,0.149
71.15,-261.67,0.378
71.18,-259.529,0.447
71.21,-257.809,0.275
71.24,-256.546,0.252
71.28,-254.967,0.389
71.31,-253.142,0.367
71.34,-251.282,0.378
71.37,-249.316,0.424
71.41,-247.035,0.515
71.44,-244.263,0.561
71.47,-241.701,0.481
71.5,-239.384,0.458
71.54,-236.963,0.515
71.57,-234.541,0.447
71.6,-232.751,0.298
71.63,-230.927,0.447
71.67,-228.61,0.493
71.7,-226.364,0.412
71.73,-224.434,0.367
71.76,-222.679,0.344
71.8,-220.995,0.355
71.83,-219.099,0.401
71.86,-217.59,0.241
71.89,-216.116,0.378
71.93,-213.695,0.573
71.96,-211.168,0.447
71.99,-209.097,0.401
72.02,-206.641,0.55
72.06,-204.079,0.493
72.09,-201.727,0.447
72.12,-199.551,0.435
72.15,-197.375,0.458
72.19,-194.884,0.515
72.22,-192.287,0.515
72.25,-189.9,0.47
72.28,-187.338,0.55
72.32,-184.706,0.504
72.35,-182.285,0.493
72.38,-179.652,0.561
72.41,-176.88,0.584
72.45,-174.002,0.584
72.48,-170.914,0.642
72.51,-167.58,0.687
72.54,-164.281,0.653
72.58,-161.192,0.573
72.61,-158.42,0.573
72.64,-155.437,0.619
72.68,-152.524,0.573
72.71,-149.857,0.504
72.74,-147.26,0.55
72.77,-144.382,0.607
72.81,-141.539,0.515
72.84,-138.977,0.561
72.87,-135.713,0.756
72.9,-131.818,0.779
72.94,-128.098,0.699
72.97,-124.588,0.722
73.0,-120.868,0.756
73.03,-117.148,0.722
73.07,-113.849,0.607
73.1,-110.971,0.573
73.13,-108.023,0.619
73.16,-104.935,0.619
73.2,-101.776,0.653
73.23,-98.267,0.745
73.26,-94.336,0.836
73.29,-90.125,0.871
73.33,-85.843,0.859
73.36,-81.561,0.871
73.39,-77.209,0.859
73.42,-73.033,0.825
73.46,-69.348,0.653
73.49,-66.19,0.63
73.52,-62.856,0.699
73.55,-59.416,0.664
73.59,-56.433,0.561
73.62,-53.59,0.596
73.65,-50.362,0.71
73.68,-46.817,0.687
73.72,-43.623,0.607
73.75,-40.395,0.687
73.78,-36.955,0.71
73.81,-33.446,0.687
73.85,-30.042,0.699
73.88,-26.321,0.768
73.91,-22.426,0.825
73.94,-18.285,0.825
73.98,-14.143,0.848
74.01,-9.792,0.894
74.04,-5.44,0.882
74.07,-1.123,0.859
74.11,3.123,0.825
74.14,7.124,0.802
74.17,11.02,0.745
74.2,14.529,0.687
74.24,17.828,0.642
74.27,21.198,0.699
74.3,24.602,0.687
74.33,27.831,0.596
74.37,30.498,0.504
74.4,33.06,0.55
74.43,36.148,0.699
74.46,39.763,0.745
74.5,43.413,0.722
74.53,47.273,0.825
74.56,51.695,0.939
74.59,56.047,0.825
74.63,60.013,0.756
74.66,63.768,0.733
74.69,67.523,0.768
74.72,70.998,0.619
74.76,73.56,0.435
74.79,76.157,0.607
74.82,79.42,0.687
74.85,82.544,0.573
74.89,85.352,0.596
74.92,88.861,0.779
74.95,92.862,0.813
74.98,96.652,0.722
75.02,99.986,0.63
75.05,103.25,0.71
75.08,106.83,0.71
75.11,110.129,0.642
75.15,113.112,0.561
75.18,116.13,0.676
75.21,119.675,0.71
75.25,123.149,0.699
75.28,126.729,0.722
75.31,130.133,0.642
75.34,133.397,0.687
75.38,137.082,0.768
75.41,140.24,0.538
75.44,142.943,0.584
75.47,146.347,0.756
75.51,149.681,0.607
75.54,152.559,0.561
75.57,155.226,0.538
75.6,158.069,0.607
75.64,161.263,0.687
75.67,164.351,0.573
75.7,167.053,0.515
75.73,169.931,0.63
75.77,172.984,0.619
75.8,175.897,0.561
75.83,178.6,0.573
75.86,181.337,0.515
75.9,183.829,0.504
75.93,186.707,0.653
75.96,189.83,0.63
75.99,192.708,0.561
76.03,195.621,0.619
76.06,198.639,0.607
76.09,201.306,0.493
76.12,203.763,0.493
76.16,206.009,0.435
76.19,208.22,0.458
76.22,210.536,0.47
76.25,212.466,0.355
76.29,214.116,0.344
76.32,215.976,0.435
76.35,217.731,0.298
76.38,218.959,0.229
76.42,220.258,0.344
76.45,222.083,0.401
76.48,224.013,0.401
76.51,226.083,0.458
76.55,228.294,0.458
76.58,230.751,0.55
76.61,232.927,0.355
76.64,234.541,0.321
76.68,236.963,0.653
76.71,239.665,0.481
76.74,241.56,0.321
76.77,243.35,0.412
76.81,245.561,0.504
76.84,247.632,0.367
76.87,249.141,0.286
76.9,250.615,0.355
76.94,251.913,0.195
76.97,252.931,0.241
77.0,254.826,0.515
77.03,257.143,0.424
77.07,258.757,0.286
77.1,260.406,0.401
77.13,262.372,0.412
77.16,264.021,0.309
77.2,265.53,0.332
77.23,267.32,0.389
77.26,269.005,0.332
77.29,270.619,0.355
77.33,272.479,0.412
77.36,274.199,0.309
77.39,275.287,0.183
77.42,276.094,0.183
77.46,276.901,0.183
77.49,277.884,0.241
77.52,279.253,0.332
77.55,280.692,0.286
77.59,281.815,0.218
77.62,282.973,0.286
77.65,284.096,0.229
77.68,285.429,0.321
77.72,287.044,0.332
77.75,288.237,0.218
77.78,289.465,0.332
77.82,291.08,0.344
77.85,292.273,0.206
77.88,293.256,0.218
77.91,294.168,0.183
77.95,294.835,0.126
77.98,295.326,0.115
78.01,295.537,0.023
78.04,295.747,0.115
78.08,296.695,0.298
78.11,296.835,-0.172
78.14,295.888,-0.103
78.17,296.414,0.309
78.21,297.081,0.011
78.24,296.765,-0.069
78.27,296.695,0.092
78.3,297.327,0.16
78.34,297.958,0.137
78.37,298.59,0.149
78.4,299.081,0.08
78.43,299.257,0.057
78.47,299.397,0.046
78.5,299.011,-0.149
78.53,298.099,-0.149
78.56,297.853,0.103
78.6,297.818,-0.057
78.63,296.906,-0.218
78.66,295.747,-0.16
78.69,294.659,-0.218
78.73,293.361,-0.252
78.76,291.957,-0.241
78.79,290.343,-0.332
78.82,289.044,-0.126
78.86,288.518,-0.046
78.89,287.43,-0.321
78.92,285.851,-0.241
78.95,284.763,-0.149
78.99,283.289,-0.355
79.02,281.429,-0.309
79.05,279.99,-0.218
79.08,278.516,-0.309
79.12,277.007,-0.218
79.15,275.883,-0.183
79.18,274.585,-0.263
79.21,273.076,-0.252
79.25,271.637,-0.263
79.28,270.093,-0.263
79.31,268.935,-0.172
79.34,267.776,-0.229
79.38,266.232,-0.321
79.41,264.864,-0.172
79.44,263.846,-0.195
79.47,262.091,-0.401
79.51,259.705,-0.447
79.54,257.564,-0.355
79.57,255.949,-0.252
79.6,254.265,-0.367
79.64,251.808,-0.515
79.67,249.387,-0.389
79.7,247.737,-0.218
79.73,245.702,-0.504
79.77,242.613,-0.63
79.8,240.543,-0.183
79.83,239.174,-0.298
79.86,236.717,-0.573
79.9,234.155,-0.389
79.93,232.751,-0.149
79.96,231.453,-0.298
79.99,229.312,-0.458
80.03,226.926,-0.424
80.06,224.925,-0.298
80.09,223.241,-0.332
80.12,221.24,-0.401
80.16,219.135,-0.389
80.19,217.134,-0.332
80.22,215.239,-0.367
80.25,213.063,-0.435
80.29,210.677,-0.458
80.32,208.325,-0.401
80.35,206.114,-0.412
80.38,203.903,-0.412
80.42,201.727,-0.378
80.45,199.797,-0.344
80.48,197.797,-0.378
80.52,195.621,-0.412
80.55,193.34,-0.447
80.58,190.883,-0.47
80.61,188.181,-0.527
80.65,185.338,-0.515
80.68,182.635,-0.481
80.71,179.968,-0.515
80.74,176.915,-0.63
80.78,173.686,-0.584
80.81,170.808,-0.504
80.84,167.825,-0.619
80.87,164.421,-0.664
80.91,161.298,-0.515
80.94,157.964,-0.722
80.97,154.7,-0.515
81.0,152.313,-0.355
81.04,149.821,-0.573
81.07,146.523,-0.664
81.1,143.504,-0.481
81.13,141.048,-0.458
81.17,138.275,-0.584
81.2,135.222,-0.573
81.23,131.783,-0.722
81.26,128.133,-0.642
81.3,125.114,-0.515
81.33,122.166,-0.596
81.36,118.938,-0.642
81.39,115.463,-0.642
81.43,112.375,-0.527
81.46,109.673,-0.47
81.49,106.725,-0.619
81.52,103.426,-0.642
81.56,99.916,-0.687
81.59,96.161,-0.745
81.62,92.195,-0.745
81.65,88.054,-0.813
81.69,83.632,-0.894
81.72,78.894,-0.916
81.75,74.612,-0.722
81.78,70.927,-0.699
81.82,66.856,-0.825
81.85,62.996,-0.664
81.88,59.943,-0.493
81.91,57.065,-0.584
81.95,53.696,-0.699
81.98,50.221,-0.607
82.01,47.273,-0.504
82.04,44.29,-0.63
82.08,40.921,-0.642
82.11,37.692,-0.573
82.14,34.569,-0.63
82.17,30.989,-0.71
82.21,27.058,-0.768
82.24,22.917,-0.813
82.27,18.6,-0.836
82.3,14.354,-0.813
82.34,10.072,-0.836
82.37,5.826,-0.779
82.4,2.036,-0.664
82.43,-1.439,-0.699
82.47,-5.229,-0.722
82.5,-8.879,-0.664
82.53,-12.318,-0.63
82.56,-15.688,-0.664
82.6,-19.373,-0.722
82.63,-23.128,-0.699
82.66,-26.532,-0.584
82.69,-29.094,-0.412
82.73,-31.34,-0.424
82.76,-34.042,-0.573
82.79,-37.306,-0.653
82.82,-40.781,-0.653
82.86,-44.29,-0.699
82.89,-48.151,-0.745
82.92,-52.257,-0.848
82.95,-56.924,-0.939
82.99,-61.803,-0.916
83.02,-66.19,-0.768
83.05,-69.734,-0.596
83.09,-73.314,-0.733
83.12,-77.139,-0.71
83.15,-80.333,-0.527
83.18,-83.105,-0.515
83.22,-86.124,-0.63
83.25,-89.598,-0.664
83.28,-92.967,-0.63
83.31,-96.161,-0.607
83.35,-99.67,-0.699
83.38,-103.11,-0.642
83.41,-106.409,-0.619
83.44,-109.673,-0.607
83.48,-112.901,-0.653
83.51,-116.13,-0.573
83.54,-119.078,-0.561
83.57,-122.342,-0.653
83.61,-125.887,-0.676
83.64,-129.361,-0.676
83.67,-133.327,-0.79
83.7,-137.328,-0.733
83.74,-141.364,-0.813
83.77,-145.961,-0.939
83.8,-150.418,-0.79
83.83,-154.173,-0.653
83.87,-157.542,-0.619
83.9,-160.49,-0.527
83.93,-163.333,-0.515
83.96,-165.79,-0.401
84.0,-167.194,-0.149
84.03,-168.562,-0.332
84.06,-170.633,-0.47
84.09,-172.739,-0.321
84.13,-174.248,-0.263
84.16,-176.318,-0.481
84.19,-179.126,-0.573
84.22,-181.828,-0.458
84.26,-184.25,-0.458
84.29,-187.093,-0.619
84.32,-190.497,-0.664
84.35,-193.761,-0.596
84.39,-196.709,-0.527
84.42,-199.657,-0.573
84.45,-202.71,-0.584
84.48,-205.412,-0.458
84.52,-207.448,-0.321
84.55,-209.378,-0.401
84.58,-211.554,-0.412
84.61,-213.239,-0.241
84.65,-214.713,-0.286
84.68,-216.327,-0.332
84.71,-217.836,-0.241
84.74,-219.415,-0.321
84.78,-221.205,-0.367
84.81,-222.96,-0.309
84.84,-225.136,-0.493
84.87,-227.908,-0.515
84.91,-230.049,-0.321
84.94,-232.155,-0.493
84.97,-234.752,-0.47
85.0,-236.858,-0.309
85.04,-238.718,-0.378
85.07,-240.718,-0.367
85.1,-242.368,-0.263
85.13,-244.193,-0.378
85.17,-246.053,-0.309
85.2,-247.562,-0.252
85.23,-249.001,-0.263
85.26,-250.615,-0.344
85.3,-252.615,-0.378
85.33,-254.546,-0.344
85.36,-256.125,-0.252
85.39,-257.599,-0.298
85.43,-259.669,-0.47
85.46,-261.775,-0.332
85.49,-263.284,-0.252
85.52,-264.934,-0.344
85.56,-266.548,-0.252
85.59,-268.127,-0.321
85.62,-270.023,-0.389
85.66,-271.567,-0.206
85.69,-272.76,-0.229
85.72,-274.445,-0.344
85.75,-275.778,-0.16
85.79,-276.691,-0.172
85.82,-277.954,-0.263
85.85,-279.042,-0.137
85.88,-280.235,-0.286
85.92,-281.85,-0.309
85.95,-282.867,-0.103
85.98,-284.201,-0.367
86.01,-286.201,-0.378
86.05,-287.535,-0.16
86.08,-288.728,-0.252
86.11,-290.308,-0.298
86.14,-291.431,-0.149
86.18,-292.554,-0.241
86.21,-293.396,-0.092
86.24,-293.361,0.149
86.27,-292.834,0.08
86.31,-292.624,0.034
86.34,-292.203,0.172
86.37,-292.097,-0.092
86.4,-293.08,-0.229
86.44,-293.501,0.057
86.47,-293.607,-0.069
86.5,-294.484,-0.218
86.53,-295.677,-0.206
86.57,-296.976,-0.263
86.6,-298.169,-0.172
86.63,-299.467,-0.298
86.66,-300.836,-0.229
86.7,-302.415,-0.344
86.73,-303.609,-0.092
86.76,-303.644,0.092
86.79,-304.065,-0.183
86.83,-303.819,0.286
86.86,-301.959,0.458
86.89,-300.31,0.218
86.92,-299.538,0.137
86.96,-298.134,0.412
86.99,-295.537,0.619
87.02,-293.045,0.389
87.05,-291.782,0.16
87.09,-290.483,0.355
87.12,-288.658,0.378
87.15,-287.64,0.069
87.18,-287.5,0.023
87.22,-287.079,0.16
87.25,-286.377,0.149
87.28,-285.359,0.252
87.31,-283.99,0.332
87.35,-282.516,0.298
87.38,-280.797,0.389
87.41,-278.937,0.378
87.44,-277.322,0.309
87.48,-275.638,0.378
87.51,-273.813,0.332
87.54,-272.409,0.298
87.57,-270.689,0.378
87.61,-268.9,0.367
87.64,-267.32,0.286
87.67,-265.952,0.286
87.7,-264.583,0.298
87.74,-263.284,0.275
87.77,-261.916,0.298
87.8,-260.196,0.389
87.83,-258.125,0.458
87.87,-256.055,0.401
87.9,-254.089,0.412
87.93,-252.054,0.401
87.96,-249.983,0.447
88.0,-247.737,0.447
88.03,-246.088,0.229
88.06,-244.649,0.367
88.09,-242.368,0.515
88.13,-240.332,0.355
88.16,-238.753,0.298
88.19,-236.963,0.447
88.23,-234.506,0.515
88.26,-232.611,0.286
88.29,-231.348,0.241
88.32,-229.803,0.401
88.36,-227.522,0.504
88.39,-225.381,0.367
88.42,-224.048,0.218
88.45,-222.433,0.424
88.49,-220.082,0.538
88.52,-217.976,0.332
88.55,-216.467,0.321
88.58,-214.326,0.504
88.62,-211.905,0.481
88.65,-209.448,0.504
88.68,-206.886,0.504
88.71,-204.605,0.412
88.75,-202.464,0.458
88.78,-200.113,0.481
88.81,-197.972,0.378
88.84,-195.831,0.481
88.88,-193.445,0.504
88.91,-191.093,0.435
88.94,-188.531,0.573
88.97,-185.794,0.55
89.01,-183.408,0.424
89.04,-180.916,0.584
89.07,-177.722,0.653
89.1,-174.704,0.573
89.14,-171.756,0.607
89.17,-168.633,0.664
89.2,-165.158,0.733
89.23,-161.403,0.745
89.27,-158.385,0.481
89.3,-155.858,0.573
89.33,-152.348,0.802
89.36,-149.049,0.561
89.4,-146.909,0.344
89.43,-144.803,0.515
89.46,-141.855,0.642
89.49,-139.223,0.412
89.53,-136.942,0.515
89.56,-134.134,0.596
89.59,-131.221,0.596
89.62,-127.782,0.756
89.66,-124.097,0.687
89.69,-120.833,0.653
89.72,-117.323,0.745
89.75,-113.568,0.745
89.79,-109.953,0.722
89.82,-106.409,0.676
89.85,-103.004,0.687
89.88,-99.355,0.768
89.92,-95.494,0.768
89.95,-91.599,0.768
89.98,-87.703,0.802
90.01,-83.562,0.871
90.05,-79.456,0.756
90.08,-75.7,0.768
90.11,-71.524,0.871
90.14,-67.769,0.642
90.18,-64.68,0.607
90.21,-61.171,0.779
90.24,-57.416,0.733
90.27,-54.292,0.573
90.31,-51.45,0.596
90.34,-48.116,0.733
90.37,-44.501,0.699
90.4,-41.447,0.55
90.44,-38.675,0.573
90.47,-35.411,0.722
90.5,-31.621,0.779
90.53,-27.866,0.733
90.57,-24.11,0.768
90.6,-19.934,0.894
90.63,-15.407,0.916
90.66,-11.02,0.848
90.7,-6.808,0.848
90.73,-2.597,0.836
90.76,1.439,0.768
90.8,5.054,0.699
90.83,8.528,0.699
90.86,12.003,0.687
90.89,15.091,0.584
90.93,18.109,0.642
90.96,21.478,0.71
90.99,24.988,0.699
91.02,28.252,0.653
91.06,31.235,0.561
91.09,34.042,0.584
91.12,37.236,0.699
91.15,40.781,0.733
91.19,44.501,0.722
91.22,48.08,0.733
91.25,51.941,0.825
91.28,56.117,0.836
91.32,60.329,0.848
91.35,64.33,0.756
91.38,68.05,0.733
91.41,71.735,0.733
91.45,75.209,0.664
91.48,78.368,0.619
91.51,81.421,0.619
91.54,84.509,0.63
91.58,87.668,0.642
91.61,90.862,0.642
91.64,94.125,0.687
91.67,97.635,0.71
91.71,101.039,0.664
91.74,104.268,0.653
91.77,107.672,0.699
91.8,111.147,0.71
91.84,114.621,0.687
91.87,118.13,0.71
91.9,121.745,0.733
91.93,125.36,0.722
91.97,128.835,0.676
92.0,132.379,0.745
92.03,136.029,0.71
92.06,139.258,0.607
92.1,142.627,0.768
92.13,146.277,0.664
92.16,149.506,0.653
92.19,153.261,0.825
92.23,156.384,0.47
92.26,158.665,0.47
92.29,161.543,0.664
92.32,164.491,0.561
92.36,166.878,0.435
92.39,169.405,0.584
92.42,172.002,0.493
92.45,174.458,0.493
92.49,177.196,0.584
92.52,179.828,0.481
92.55,181.934,0.435
92.58,184.601,0.596
92.62,187.514,0.596
92.65,190.497,0.607
92.68,193.55,0.653
92.71,196.603,0.584
92.75,199.516,0.619
92.78,202.57,0.607
92.81,205.061,0.412
92.84,207.132,0.47
92.88,209.624,0.538
92.91,211.589,0.298
92.94,212.993,0.309
92.97,214.888,0.447
93.01,216.608,0.275
93.04,217.696,0.229
93.07,219.17,0.367
93.1,220.644,0.275
93.14,222.363,0.435
93.17,224.68,0.493
93.2,226.399,0.229
93.23,228.365,0.584
93.27,231.313,0.596
93.3,233.348,0.286
93.33,235.313,0.504
93.36,237.7,0.447
93.4,239.42,0.309
93.43,241.315,0.481
93.46,243.947,0.561
93.5,245.982,0.321
93.53,247.281,0.286
93.56,248.755,0.309
93.59,250.264,0.355
93.63,252.159,0.424
93.66,253.809,0.252
93.69,255.002,0.286
93.72,257.108,0.561
93.76,259.529,0.458
93.79,261.284,0.298
93.82,262.863,0.367
93.85,264.583,0.367
93.89,266.443,0.389
93.92,268.443,0.447
93.95,270.268,0.309
93.98,271.672,0.309
94.02,273.532,0.458
94.05,275.182,0.241
94.08,275.848,0.092
94.11,276.62,0.241
94.15,277.638,0.195
94.18,278.586,0.218
94.21,280.06,0.389
94.24,281.429,0.195
94.28,282.166,0.172
94.31,283.534,0.355
94.34,284.868,0.218
94.37,286.061,0.298
94.41,287.535,0.344
94.44,288.834,0.218
94.47,289.922,0.298
94.5,291.466,0.344
94.54,292.659,0.172
94.57,293.466,0.183
94.6,294.238,0.172
94.63,294.73,0.057
94.67,294.905,0.069
94.7,295.291,0.126
94.73,295.712,0.115
94.76,296.239,0.126
94.8,296.449,0.011
94.83,296.519,0.057
94.86,296.519,0.0
94.89,296.695,0.149
94.93,297.362,0.126
94.96,297.607,0.046
94.99,298.274,0.241
95.02,299.187,0.172
95.06,299.748,0.092
95.09,300.029,0.103
95.12,300.204,0.034
95.15,299.818,-0.103
95.19,299.046,-0.183
95.22,298.169,-0.126
95.25,297.643,-0.046
95.28,297.151,-0.115
95.32,295.993,-0.263
95.35,294.695,-0.229
95.38,293.642,-0.115
95.41,292.729,-0.206
95.45,291.255,-0.286
95.48,290.062,-0.149
95.51,289.22,-0.115
95.54,288.307,-0.195
95.58,287.289,-0.16
95.61,285.991,-0.298
95.64,284.306,-0.332
95.67,282.832,-0.229
95.71,281.113,-0.367
95.74,279.147,-0.344
95.77,277.779,-0.16
95.8,276.48,-0.298
95.84,274.725,-0.321
95.87,273.427,-0.16
95.9,272.163,-0.298
95.93,270.479,-0.321
95.97,269.145,-0.149
96.0,267.917,-0.252
96.03,266.267,-0.309
96.07,264.934,-0.183
96.1,263.741,-0.229
96.13,262.196,-0.321
96.16,260.582,-0.298
96.2,258.546,-0.447
96.23,256.265,-0.367
96.26,254.651,-0.252
96.29,252.545,-0.493
96.33,250.124,-0.424
96.36,248.334,-0.252
96.39,246.298,-0.458
96.42,243.666,-0.493
96.46,241.525,-0.321
96.49,239.349,-0.447
96.52,237.068,-0.412
96.55,235.349,-0.229
96.59,233.173,-0.504
96.62,230.927,-0.355
96.65,229.698,-0.126
96.68,227.943,-0.435
96.72,225.662,-0.412
96.75,224.048,-0.218
96.78,222.469,-0.344
96.81,220.714,-0.298
96.85,219.135,-0.298
96.88,217.134,-0.412
96.91,215.134,-0.321
96.94,213.063,-0.447
96.98,210.291,-0.596
97.01,207.553,-0.412
97.04,205.342,-0.424
97.07,202.921,-0.458
97.11,200.815,-0.321
97.14,198.814,-0.412
97.17,196.393,-0.47
97.2,194.252,-0.344
97.24,192.181,-0.424
97.27,189.479,-0.527
97.3,186.847,-0.47
97.33,184.32,-0.481
97.37,181.653,-0.504
97.4,178.951,-0.504
97.43,175.862,-0.63
97.46,172.668,-0.573
97.5,169.896,-0.47
97.53,166.878,-0.676
97.56,163.298,-0.653
97.59,160.42,-0.435
97.63,157.823,-0.55
97.66,154.665,-0.642
97.69,151.541,-0.561
97.72,148.698,-0.527
97.76,145.61,-0.596
97.79,142.802,-0.47
97.82,139.749,-0.676
97.85,136.24,-0.642
97.89,133.397,-0.458
97.92,130.449,-0.63
97.95,126.939,-0.687
97.98,123.851,-0.493
98.02,121.078,-0.55
98.05,117.85,-0.676
98.08,114.445,-0.63
98.11,111.533,-0.493
98.15,108.76,-0.573
98.18,105.286,-0.71
98.21,101.601,-0.676
98.24,98.021,-0.664
98.28,94.231,-0.768
98.31,89.984,-0.859
98.34,85.632,-0.825
98.37,81.491,-0.768
98.41,77.139,-0.871
98.44,72.787,-0.779
98.47,69.383,-0.561
98.5,66.154,-0.619
98.54,62.61,-0.722
98.57,59.206,-0.584
98.6,56.328,-0.493
98.64,53.275,-0.63
98.67,49.73,-0.71
98.7,46.185,-0.653
98.73,42.886,-0.596
98.77,39.798,-0.584
98.8,36.394,-0.699
98.83,32.603,-0.71
98.86,28.989,-0.676
98.9,25.233,-0.71
98.93,21.303,-0.813
98.96,17.056,-0.825
98.99,12.915,-0.756
99.03,9.019,-0.733
99.06,5.089,-0.745
99.09,1.228,-0.733
99.12,-2.562,-0.699
99.16,-6.071,-0.653
99.19,-9.581,-0.676
99.22,-13.196,-0.676
99.25,-16.6,-0.63
99.29,-19.899,-0.63
99.32,-23.409,-0.699
99.35,-27.234,-0.733
99.38,-30.779,-0.596
99.42,-33.727,-0.561
99.45,-37.061,-0.687
99.48,-40.851,-0.756
99.51,-44.852,-0.745
99.55,-48.607,-0.71
99.58,-52.538,-0.779
99.61,-56.784,-0.825
99.64,-60.82,-0.722
99.68,-64.189,-0.561
99.71,-67.137,-0.573
99.74,-70.576,-0.71
99.77,-73.84,-0.55
99.81,-76.543,-0.493
99.84,-79.771,-0.687
99.87,-83.281,-0.642
99.9,-86.58,-0.619
99.94,-89.984,-0.676
99.97,-93.81,-0.768
100.0,-97.74,-0.722
100.03,-101.215,-0.607
100.07,-104.478,-0.63
100.1,-107.848,-0.664
100.13,-111.147,-0.596
100.16,-114.165,-0.561
100.2,-117.253,-0.63
100.23,-120.622,-0.642
100.26,-123.711,-0.55
100.29,-127.01,-0.71
100.33,-131.081,-0.813
100.36,-134.555,-0.55
100.39,-137.924,-0.745
100.42,-142.311,-0.894
100.46,-146.242,-0.653
100.49,-150.032,-0.779
100.52,-153.542,-0.55
100.55,-155.717,-0.298
100.59,-157.964,-0.527
100.62,-161.087,-0.642
100.65,-163.228,-0.195
100.68,-164.386,-0.229
100.72,-166.702,-0.596
100.75,-169.826,-0.596
100.78,-172.528,-0.47
100.81,-175.02,-0.458
100.85,-177.827,-0.573
100.88,-181.091,-0.664
100.91,-184.074,-0.47
100.94,-186.566,-0.47
100.98,-189.76,-0.71
101.01,-193.164,-0.596
101.04,-195.831,-0.447
101.07,-198.569,-0.573
101.11,-201.447,-0.515
101.14,-203.903,-0.424
101.17,-206.184,-0.435
101.21,-208.15,-0.309
101.24,-209.904,-0.355
101.27,-212.01,-0.435
101.3,-213.835,-0.229
101.34,-215.134,-0.241
101.37,-216.959,-0.401
101.4,-218.748,-0.241
101.43,-220.117,-0.252
101.47,-222.047,-0.458
101.5,-224.153,-0.344
101.53,-226.189,-0.435
101.56,-228.645,-0.481
101.6,-230.54,-0.229
101.63,-232.155,-0.355
101.66,-234.471,-0.493
101.69,-236.472,-0.298
101.73,-237.981,-0.263
101.76,-240.016,-0.481
101.79,-242.403,-0.424
101.82,-244.649,-0.435
101.86,-247.141,-0.481
101.89,-249.001,-0.218
101.92,-250.264,-0.241
101.95,-252.721,-0.642
101.99,-255.353,-0.367
102.02,-256.686,-0.149
102.05,-257.845,-0.263
102.08,-259.389,-0.309
102.12,-261.179,-0.355
102.15,-262.863,-0.286
102.18,-264.021,-0.137
102.21,-265.109,-0.252
102.25,-266.969,-0.424
102.28,-269.005,-0.332
102.31,-270.689,-0.298
102.34,-272.479,-0.378
102.38,-274.304,-0.309
102.41,-275.813,-0.241
102.44,-277.112,-0.229
102.47,-277.989,-0.115
102.51,-278.691,-0.126
102.54,-279.99,-0.332
102.57,-281.358,-0.183
102.6,-282.201,-0.126
102.64,-283.359,-0.286
102.67,-284.727,-0.218
102.7,-285.921,-0.241
102.73,-287.36,-0.263
102.77,-288.553,-0.149
102.8,-289.676,-0.263
102.83,-291.255,-0.321
102.86,-292.484,-0.149
102.9,-293.115,-0.08
102.93,-293.571,-0.057
102.96,-293.607,0.069
102.99,-293.256,0.103
103.03,-293.256,-0.034
103.06,-293.642,-0.092
103.09,-294.028,-0.069
103.12,-294.589,-0.103
103.16,-295.081,-0.08
103.19,-295.818,-0.183
103.22,-297.081,-0.252
103.25,-298.169,-0.137
103.29,-299.011,-0.16
103.32,-300.275,-0.309
103.35,-301.328,-0.08
103.38,-301.784,-0.069
103.42,-302.24,-0.069
103.45,-302.415,0.023
103.48,-302.065,0.149
103.51,-300.415,0.504
103.55,-298.169,0.401
103.58,-297.151,0.069
103.61,-296.59,0.183
103.64,-294.695,0.55
103.68,-292.729,0.252
103.71,-292.027,0.08
103.74,-291.01,0.332
103.78,-289.641,0.241
103.81,-288.869,0.115
103.84,-288.026,0.229
103.87,-287.395,0.034
103.91,-287.254,0.069
103.94,-285.921,0.435
103.97,-284.271,0.252
104.0,-283.394,0.149
104.04,-281.709,0.504
104.07,-279.498,0.355
104.1,-278.2,0.206
104.13,-276.585,0.412
104.17,-274.866,0.298
104.2,-273.672,0.229
104.23,-272.023,0.424
104.26,-270.338,0.275
104.3,-269.11,0.241
104.33,-267.671,0.332
104.36,-266.302,0.218
104.39,-265.074,0.286
104.43,-263.565,0.321
104.46,-262.477,0.183
104.49,-260.828,0.458
104.52,-258.02,0.642
104.56,-256.23,0.149
104.59,-255.072,0.332
104.62,-252.475,0.676
104.65,-249.983,0.389
104.69,-248.299,0.309
104.72,-246.579,0.401
104.75,-244.719,0.355
104.78,-242.578,0.504
104.82,-240.121,0.458
104.85,-238.753,0.137
104.88,-237.349,0.435
104.91,-234.752,0.584
104.95,-233.067,0.126
104.98,-232.19,0.275
105.01,-229.909,0.607
105.04,-227.347,0.435
105.08,-225.381,0.367
105.11,-223.486,0.412
105.14,-221.591,0.378
105.17,-219.415,0.481
105.21,-217.099,0.412
105.24,-215.45,0.298
105.27,-213.379,0.55
105.3,-210.501,0.596
105.34,-207.974,0.435
105.37,-205.693,0.481
105.4,-203.307,0.481
105.43,-201.096,0.435
105.47,-198.885,0.47
105.5,-196.674,0.424
105.53,-194.568,0.447
105.56,-192.146,0.538
105.6,-189.549,0.504
105.63,-186.987,0.515
105.66,-184.32,0.55
105.69,-181.828,0.481
105.73,-179.231,0.538
105.76,-176.318,0.63
105.79,-173.3,0.596
105.82,-170.493,0.55
105.86,-167.509,0.653
105.89,-164.035,0.722
105.92,-160.771,0.573
105.95,-158.174,0.493
105.99,-155.261,0.642
106.02,-152.103,0.63
106.05,-149.049,0.607
106.08,-146.277,0.504
106.12,-143.68,0.561
106.15,-140.732,0.619
106.18,-138.029,0.481
106.21,-135.643,0.493
106.25,-132.625,0.676
106.28,-129.221,0.687
106.31,-126.202,0.538
106.35,-123.184,0.687
106.38,-119.324,0.859
106.41,-115.358,0.722
106.44,-111.919,0.653
106.48,-108.549,0.699
106.51,-104.829,0.779
106.54,-101.039,0.733
106.57,-97.424,0.71
106.61,-93.739,0.768
106.64,-89.703,0.802
106.67,-85.808,0.768
106.7,-81.877,0.802
106.74,-77.736,0.859
106.77,-73.595,0.802
106.8,-70.226,0.596
106.83,-66.962,0.71
106.87,-63.347,0.745
106.9,-60.013,0.607
106.93,-57.03,0.584
106.96,-54.012,0.653
107.0,-50.432,0.745
107.03,-46.852,0.676
107.06,-43.729,0.607
107.09,-40.324,0.756
107.13,-36.359,0.802
107.16,-32.603,0.722
107.19,-29.024,0.71
107.22,-25.198,0.779
107.26,-21.303,0.802
107.29,-17.477,0.745
107.32,-13.792,0.722
107.35,-10.143,0.733
107.39,-6.422,0.756
107.42,-2.562,0.768
107.45,1.228,0.733
107.48,4.948,0.768
107.52,8.809,0.802
107.55,12.704,0.745
107.58,16.389,0.722
107.61,20.215,0.802
107.65,23.9,0.71
107.68,27.094,0.561
107.71,29.866,0.596
107.74,32.884,0.607
107.78,35.797,0.561
107.81,38.499,0.573
107.84,41.798,0.756
107.87,45.869,0.859
107.91,50.221,0.859
107.94,54.117,0.722
107.97,57.767,0.745
108.0,61.803,0.836
108.04,66.154,0.905
108.07,70.155,0.71
108.1,72.963,0.458
108.13,75.911,0.71
108.17,79.701,0.779
108.2,82.965,0.573
108.23,85.913,0.607
108.26,89.247,0.722
108.3,92.792,0.71
108.33,96.161,0.642
108.36,99.425,0.664
108.39,102.864,0.71
108.43,106.163,0.63
108.46,109.216,0.607
108.49,112.445,0.687
108.52,115.99,0.733
108.56,119.324,0.607
108.59,122.412,0.642
108.62,126.167,0.859
108.65,129.958,0.676
108.69,133.046,0.561
108.72,136.591,0.848
108.75,140.381,0.687
108.78,143.469,0.584
108.82,146.698,0.71
108.85,150.558,0.848
108.88,154.033,0.561
108.91,156.49,0.481
108.95,159.262,0.607
108.98,162.28,0.619
109.01,165.123,0.515
109.05,167.404,0.435
109.08,169.966,0.596
109.11,172.809,0.573
109.14,175.336,0.458
109.18,177.792,0.515
109.21,180.424,0.561
109.24,182.776,0.435
109.27,185.338,0.584
109.31,188.391,0.664
109.34,191.479,0.596
109.37,194.463,0.619
109.4,197.691,0.687
109.44,200.815,0.561
109.47,203.377,0.515
109.5,205.904,0.504
109.53,208.29,0.447
109.57,210.396,0.424
109.6,212.361,0.378
109.63,213.905,0.298
109.66,215.45,0.367
109.7,217.099,0.332
109.73,218.362,0.206
109.76,219.626,0.309
109.79,221.451,0.447
109.83,223.416,0.378
109.86,225.241,0.401
109.89,227.557,0.538
109.92,229.979,0.458
109.96,231.944,0.389
109.99,233.594,0.321
110.02,235.805,0.584
110.05,238.683,0.584
110.09,240.823,0.309
110.12,242.122,0.275
110.15,243.771,0.389
110.18,246.088,0.561
110.22,248.228,0.344
110.25,249.457,0.183
110.28,250.369,0.206
110.31,251.949,0.458
110.35,254.405,0.538
110.38,256.686,0.412
110.41,258.406,0.309
110.44,260.301,0.493
110.48,262.793,0.515
110.51,264.688,0.252
110.54,265.916,0.286
110.57,267.636,0.424
110.61,269.25,0.252
110.64,270.374,0.252
110.67,272.023,0.401
110.7,273.708,0.298
110.74,274.69,0.183
110.77,275.673,0.229
110.8,276.585,0.16
110.83,277.498,0.275
110.87,279.147,0.378
110.9,280.481,0.218
110.93,281.534,0.218
110.96,282.762,0.309
111.0,283.955,0.183
111.03,285.219,0.355
111.06,286.868,0.367
111.09,287.991,0.149
111.13,289.149,0.344
111.16,290.869,0.355
111.19,291.992,0.16
111.22,292.94,0.252
111.26,293.993,0.183
111.29,294.449,0.057
111.32,294.8,0.126
111.35,295.081,0.046
111.39,295.186,0.057
111.42,295.782,0.229
111.45,296.414,0.057
111.48,296.309,-0.023
111.52,296.555,0.149
111.55,296.73,-0.023
111.58,296.941,0.149
111.62,297.572,0.149
111.65,297.993,0.057
111.68,298.415,0.16
111.71,299.327,0.206
111.75,299.713,0.023
111.78,299.573,0.011
111.81,299.713,0.069
111.84,299.292,-0.172
111.88,298.029,-0.252
111.91,297.397,0.057
111.94,297.362,-0.034
111.97,296.449,-0.241
112.01,295.256,-0.16
112.04,294.203,-0.218
112.07,292.905,-0.218
112.1,292.027,-0.103
112.14,290.799,-0.321
112.17,289.22,-0.218
112.2,288.799,0.08
112.23,288.167,-0.252
112.27,286.412,-0.367
112.3,285.184,-0.092
112.33,283.92,-0.344
112.36,281.744,-0.424
112.4,280.095,-0.195
112.43,278.656,-0.298
112.46,276.936,-0.321
112.49,275.568,-0.195
112.53,274.234,-0.263
112.56,272.83,-0.229
112.59,271.567,-0.195
112.62,270.128,-0.309
112.66,268.829,-0.183
112.69,267.882,-0.149
112.72,266.583,-0.309
112.75,265.039,-0.229
112.79,263.951,-0.172
112.82,262.302,-0.389
112.85,260.161,-0.389
112.88,258.055,-0.412
112.92,255.598,-0.458
112.95,253.423,-0.389
112.98,251.282,-0.401
113.01,248.86,-0.493
113.05,246.509,-0.378
113.08,244.579,-0.344
113.11,242.262,-0.493
113.14,239.876,-0.378
113.18,238.226,-0.229
113.21,236.542,-0.401
113.24,234.366,-0.401
113.27,232.611,-0.241
113.31,231.102,-0.309
113.34,229.172,-0.401
113.37,226.68,-0.515
113.4,224.715,-0.229
113.44,223.521,-0.183
113.47,221.942,-0.401
113.5,219.661,-0.424
113.53,218.082,-0.195
113.57,216.994,-0.195
113.6,215.099,-0.447
113.63,212.502,-0.493
113.66,210.185,-0.378
113.7,207.939,-0.458
113.73,205.307,-0.504
113.76,202.815,-0.435
113.79,200.464,-0.447
113.83,198.042,-0.447
113.86,195.586,-0.447
113.89,193.059,-0.493
113.92,190.462,-0.458
113.96,187.935,-0.481
113.99,185.162,-0.527
114.02,182.6,-0.447
114.05,180.179,-0.435
114.09,177.441,-0.596
114.12,174.423,-0.561
114.15,171.791,-0.458
114.19,168.913,-0.607
114.22,165.544,-0.676
114.25,162.35,-0.504
114.28,159.227,-0.687
114.32,155.823,-0.596
114.35,153.296,-0.355
114.38,150.734,-0.584
114.41,147.751,-0.527
114.45,144.803,-0.596
114.48,141.89,-0.504
114.51,139.503,-0.389
114.54,137.152,-0.458
114.58,133.713,-0.825
114.61,129.782,-0.642
114.64,127.115,-0.412
114.67,124.097,-0.676
114.71,120.236,-0.779
114.74,116.235,-0.733
114.77,112.691,-0.607
114.8,109.708,-0.55
114.84,106.374,-0.664
114.87,102.934,-0.664
114.9,99.53,-0.63
114.93,95.915,-0.71
114.97,92.02,-0.733
115.0,88.089,-0.768
115.03,83.913,-0.813
115.06,79.526,-0.836
115.1,75.771,-0.642
115.13,72.366,-0.642
115.16,68.401,-0.836
115.19,64.645,-0.63
115.23,61.627,-0.504
115.26,58.469,-0.653
115.29,54.819,-0.722
115.32,51.379,-0.607
115.36,48.572,-0.47
115.39,45.483,-0.653
115.42,41.798,-0.733
115.45,38.359,-0.584
115.49,35.341,-0.573
115.52,31.831,-0.733
115.55,27.655,-0.848
115.58,23.479,-0.779
115.62,19.583,-0.687
115.65,15.968,-0.687
115.68,12.143,-0.756
115.71,8.177,-0.745
115.75,4.317,-0.722
115.78,0.421,-0.71
115.81,-3.264,-0.699
115.84,-6.949,-0.71
115.88,-10.844,-0.733
115.91,-14.6,-0.722
115.94,-18.53,-0.733
115.97,-22.285,-0.699
116.01,-26.006,-0.71
116.04,-29.445,-0.596
116.07,-32.358,-0.493
116.1,-34.99,-0.504
116.14,-38.043,-0.642
116.17,-41.623,-0.733
116.2,-45.518,-0.733
116.23,-49.133,-0.676
116.27,-52.643,-0.664
116.3,-56.679,-0.836
116.33,-61.171,-0.894
116.36,-65.628,-0.779
116.4,-69.102,-0.561
116.43,-72.156,-0.63
116.46,-75.771,-0.722
116.49,-79.07,-0.561
116.53,-81.877,-0.504
116.56,-84.86,-0.584
