Trigger_Date,2023/06/28
Trigger_Time,T 10:07:11.227 PDT
Samples_Per_Cycle,512
Microseconds_Per_Sample,32.544
Time (ms),Voltage (V),Current (A)
-16.66,1.895,2.807
-16.63,5.685,4.135
-16.6,8.774,4.903
-16.56,12.529,5.315
-16.53,16.951,5.292
-16.5,21.935,5.327
-16.47,27.094,5.556
-16.43,32.077,5.396
-16.4,36.429,5.098
-16.37,39.938,5.029
-16.34,42.711,5.224
-16.3,45.062,5.716
-16.27,47.273,6.415
-16.24,49.239,7.137
-16.21,51.309,7.813
-16.17,53.625,8.466
-16.14,56.117,9.107
-16.11,58.855,9.794
-16.08,62.013,10.505
-16.04,65.523,11.341
-16.01,69.418,12.074
-15.98,73.524,12.578
-15.95,77.525,12.979
-15.91,81.561,13.414
-15.88,85.457,13.884
-15.85,89.212,14.377
-15.82,93.037,14.823
-15.78,96.652,15.213
-15.75,99.916,15.637
-15.72,102.969,15.98
-15.69,105.988,16.347
-15.65,108.795,16.828
-15.62,111.673,17.367
-15.59,114.445,17.859
-15.56,117.358,18.386
-15.52,120.447,19.108
-15.49,123.535,19.566
-15.46,126.624,19.967
-15.43,129.922,20.586
-15.39,133.362,20.964
-15.36,136.485,21.353
-15.33,139.749,21.834
-15.3,142.802,22.178
-15.26,145.61,22.419
-15.23,148.312,22.774
-15.2,150.734,22.865
-15.17,152.875,23.014
-15.13,154.875,23.381
-15.1,156.841,23.736
-15.07,158.911,24.217
-15.04,161.298,24.893
-15.0,163.824,25.431
-14.97,166.667,26.004
-14.94,169.756,26.6
-14.9,172.949,27.092
-14.87,176.248,27.677
-14.84,179.828,28.295
-14.81,183.478,28.639
-14.77,187.128,29.028
-14.74,190.532,29.292
-14.71,193.655,29.292
-14.68,196.112,29.441
-14.64,198.428,29.693
-14.61,200.359,29.807
-14.58,202.078,30.025
-14.55,203.622,30.288
-14.51,205.026,30.426
-14.48,206.149,30.621
-14.45,207.237,30.815
-14.42,208.22,30.999
-14.38,209.413,31.48
-14.35,210.922,31.938
-14.32,212.396,32.236
-14.29,214.362,32.786
-14.25,216.678,33.233
-14.22,218.889,33.347
-14.19,221.135,33.588
-14.16,223.311,33.828
-14.12,225.522,33.966
-14.09,227.592,34.298
-14.06,229.733,34.584
-14.03,231.734,34.768
-13.99,233.664,35.1
-13.96,235.419,35.214
-13.93,237.068,35.329
-13.9,238.612,35.558
-13.86,239.946,35.707
-13.83,241.315,35.844
-13.8,242.719,36.2
-13.77,244.228,36.52
-13.73,245.737,36.852
-13.7,247.386,37.196
-13.67,249.071,37.379
-13.64,250.755,37.62
-13.6,252.545,37.895
-13.57,254.265,38.021
-13.54,255.809,38.239
-13.51,257.704,38.525
-13.47,259.389,38.662
-13.44,260.863,38.708
-13.41,262.126,38.846
-13.38,263.319,38.949
-13.34,264.478,39.086
-13.31,265.39,39.224
-13.28,266.267,39.315
-13.25,267.25,39.556
-13.21,268.303,39.911
-13.18,269.461,40.129
-13.15,270.724,40.392
-13.12,272.058,40.553
-13.08,273.392,40.667
-13.05,274.76,40.828
-13.02,276.129,41.103
-12.98,277.533,41.24
-12.95,278.761,41.274
-12.92,279.814,41.251
-12.89,280.656,41.217
-12.85,281.183,41.194
-12.82,281.639,41.171
-12.79,281.955,41.263
-12.76,282.306,41.481
-12.72,282.622,41.561
-12.69,282.938,41.584
-12.66,283.148,41.584
-12.63,283.324,41.515
-12.59,283.569,41.664
-12.56,283.745,41.629
-12.53,284.271,42.053
-12.5,284.868,42.156
-12.46,285.219,41.95
-12.43,285.675,42.042
-12.4,286.061,42.053
-12.37,286.166,41.778
-12.33,285.991,41.503
-12.3,285.535,41.355
-12.27,285.008,41.32
-12.24,284.377,41.251
-12.2,283.604,41.125
-12.17,282.727,40.988
-12.14,281.674,40.862
-12.11,280.621,40.61
-12.07,279.288,40.381
-12.04,278.059,40.278
-12.01,276.796,40.209
-11.98,275.778,40.163
-11.94,274.796,40.117
-11.91,273.708,39.911
-11.88,272.585,39.59
-11.85,271.286,39.361
-11.81,269.882,38.983
-11.78,268.373,38.651
-11.75,266.864,38.559
-11.72,265.32,38.388
-11.68,263.881,38.239
-11.65,262.477,38.216
-11.62,261.073,37.964
-11.59,259.74,37.631
-11.55,258.301,37.471
-11.52,256.792,37.219
-11.49,255.458,36.979
-11.46,253.949,36.83
-11.42,252.51,36.589
-11.39,251.212,36.383
-11.36,249.597,36.062
-11.33,247.667,35.661
-11.29,245.912,35.363
-11.26,244.052,35.134
-11.23,241.946,34.71
-11.2,239.876,34.458
-11.16,238.051,34.447
-11.13,236.05,34.195
-11.1,234.261,33.931
-11.06,232.576,33.714
-11.03,230.681,33.416
-11.0,229.031,33.164
-10.97,227.312,32.855
-10.93,225.381,32.602
-10.9,223.767,32.476
-10.87,222.328,32.27
-10.84,220.433,31.766
-10.8,218.538,31.365
-10.77,216.853,31.285
-10.74,214.993,31.033
-10.71,213.379,30.907
-10.67,211.87,30.735
-10.64,210.22,30.575
-10.61,208.817,30.392
-10.58,207.202,29.888
-10.54,205.061,29.338
-10.51,203.026,28.948
-10.48,200.71,28.364
-10.45,198.007,27.94
-10.41,195.48,27.78
-10.38,193.129,27.493
-10.35,190.532,27.23
-10.32,188.216,27.001
-10.28,185.97,26.52
-10.25,183.337,26.096
-10.22,180.775,25.764
-10.19,178.389,25.374
-10.15,175.757,25.065
-10.12,173.37,24.79
-10.09,171.019,24.228
-10.06,168.317,23.77
-10.02,165.544,23.404
-9.99,162.842,22.785
-9.96,159.824,22.304
-9.93,156.841,22.075
-9.89,154.173,21.662
-9.86,151.225,21.261
-9.83,148.172,20.803
-9.8,145.364,20.345
-9.76,142.381,19.887
-9.73,139.258,19.474
-9.7,136.345,19.005
-9.67,133.572,18.65
-9.63,130.73,18.432
-9.6,128.203,17.928
-9.57,125.571,17.504
-9.54,122.693,17.241
-9.5,120.166,16.771
-9.47,117.323,16.175
-9.44,114.024,15.683
-9.41,111.217,15.224
-9.37,108.269,14.629
-9.34,104.829,14.022
-9.31,101.53,13.472
-9.27,97.986,12.842
-9.24,94.055,12.269
-9.21,90.3,11.719
-9.18,86.475,11.055
-9.14,82.263,10.551
-9.11,78.578,10.047
-9.08,74.928,9.497
-9.05,70.822,9.096
-9.01,67.383,8.775
-8.98,64.259,8.305
-8.95,60.75,7.881
-8.92,57.556,7.446
-8.88,54.678,6.919
-8.85,51.45,6.449
-8.82,48.326,5.991
-8.79,45.273,5.361
-8.75,41.869,4.846
-8.72,38.57,4.422
-8.69,35.376,3.895
-8.66,31.726,3.345
-8.62,28.111,2.852
-8.59,24.532,2.245
-8.56,20.601,1.661
-8.53,16.495,1.18
-8.49,12.354,0.802
-8.46,8.142,0.47
-8.43,3.58,0.206
-8.4,0.07,-0.034
-8.36,-0.421,-1.123
-8.33,-2.281,-2.749
-8.3,-5.615,-3.677
-8.27,-7.861,-4.284
-8.23,-10.739,-4.823
-8.2,-14.88,-5.189
-8.17,-19.864,-5.453
-8.14,-25.549,-5.682
-8.1,-30.989,-5.625
-8.07,-35.867,-5.212
-8.04,-39.728,-4.823
-8.01,-42.36,-4.949
-7.97,-44.781,-5.51
-7.94,-47.273,-6.175
-7.91,-49.203,-6.873
-7.88,-50.993,-7.664
-7.84,-53.415,-8.305
-7.81,-55.696,-8.981
-7.78,-58.398,-9.794
-7.75,-61.732,-10.528
-7.71,-65.347,-11.272
-7.68,-69.173,-12.04
-7.65,-73.384,-12.544
-7.62,-77.49,-13.025
-7.58,-81.491,-13.552
-7.55,-85.913,-13.907
-7.52,-89.563,-14.285
-7.49,-92.967,-14.823
-7.45,-96.898,-15.259
-7.42,-100.267,-15.534
-7.39,-102.759,-15.923
-7.35,-105.812,-16.37
-7.32,-108.69,-16.782
-7.29,-111.076,-17.332
-7.26,-114.024,-17.939
-7.22,-117.183,-18.569
-7.19,-120.096,-19.154
-7.16,-123.325,-19.612
-7.13,-126.799,-20.196
-7.09,-129.922,-20.723
-7.06,-133.432,-21.101
-7.03,-137.222,-21.708
-7.0,-140.205,-21.96
-6.96,-143.575,-22.338
-6.93,-146.838,-22.602
-6.9,-149.225,-22.797
-6.87,-151.962,-23.243
-6.83,-154.805,-23.656
-6.8,-156.981,-24.034
-6.77,-159.438,-24.549
-6.74,-162.596,-25.099
-6.7,-165.088,-25.454
-6.67,-167.615,-25.809
-6.64,-170.422,-26.176
-6.61,-172.774,-26.428
-6.57,-175.195,-26.691
-6.54,-177.898,-27.092
-6.51,-180.144,-27.505
-6.48,-182.6,-28.02
-6.44,-185.408,-28.478
-6.41,-187.97,-28.845
-6.38,-190.497,-29.189
-6.35,-193.199,-29.372
-6.31,-195.305,-29.429
-6.28,-197.34,-29.853
-6.25,-199.762,-30.162
-6.22,-201.692,-30.323
-6.18,-203.342,-30.644
-6.15,-205.307,-30.884
-6.12,-206.816,-30.953
-6.09,-208.255,-31.251
-6.05,-210.045,-31.537
-6.02,-211.694,-31.801
-5.99,-213.344,-32.293
-5.96,-215.379,-32.74
-5.92,-217.52,-33.072
-5.89,-219.591,-33.45
-5.86,-221.767,-33.645
-5.83,-223.943,-33.771
-5.79,-225.873,-34.115
-5.76,-228.014,-34.309
-5.73,-229.979,-34.344
-5.7,-231.769,-34.951
-5.66,-233.664,-35.134
-5.63,-235.313,-35.043
-5.6,-236.612,-35.329
-5.56,-238.226,-35.684
-5.53,-239.946,-35.925
-5.5,-241.385,-36.2
-5.47,-243.105,-36.566
-5.43,-244.965,-36.852
-5.4,-246.719,-37.105
-5.37,-248.509,-37.334
-5.34,-250.334,-37.437
-5.3,-251.878,-37.574
-5.27,-253.352,-37.803
-5.24,-255.002,-38.01
-5.21,-256.371,-38.227
-5.17,-257.774,-38.536
-5.14,-259.354,-38.708
-5.11,-260.652,-38.731
-5.08,-261.81,-38.811
-5.04,-263.074,-38.914
-5.01,-263.916,-39.029
-4.98,-264.934,-39.304
-4.95,-266.092,-39.499
-4.91,-267.145,-39.659
-4.88,-268.233,-39.945
-4.85,-269.601,-40.209
-4.82,-270.9,-40.392
-4.78,-272.163,-40.621
-4.75,-273.602,-40.736
-4.72,-274.901,-40.85
-4.69,-276.234,-41.16
-4.65,-277.638,-41.286
-4.62,-278.867,-41.309
-4.59,-279.814,-41.32
-4.56,-280.832,-41.286
-4.52,-281.464,-41.171
-4.49,-281.744,-41.137
-4.46,-282.06,-41.229
-4.43,-282.376,-41.412
-4.39,-282.552,-41.561
-4.36,-282.832,-41.664
-4.33,-283.183,-41.664
-4.3,-283.394,-41.733
-4.26,-283.604,-41.675
-4.23,-283.885,-41.698
-4.2,-284.026,-41.733
-4.17,-284.271,-41.698
-4.13,-284.692,-41.95
-4.1,-284.868,-41.881
-4.07,-284.868,-41.664
-4.04,-284.833,-41.618
-4.0,-284.622,-41.492
-3.97,-284.166,-41.206
-3.94,-283.604,-41.194
-3.91,-283.043,-41.217
-3.87,-282.411,-41.068
-3.84,-281.674,-40.988
-3.81,-280.832,-40.828
-3.78,-279.849,-40.541
-3.74,-278.656,-40.324
-3.71,-277.393,-40.083
-3.68,-276.094,-39.957
-3.64,-274.936,-40.049
-3.61,-273.918,-40.014
-3.58,-272.9,-39.842
-3.55,-271.883,-39.682
-3.51,-270.654,-39.327
-3.48,-269.286,-38.857
-3.45,-267.812,-38.628
-3.42,-266.302,-38.514
-3.38,-264.899,-38.388
-3.35,-263.53,-38.399
-3.32,-262.407,-38.262
-3.29,-261.179,-37.964
-3.25,-259.705,-37.666
-3.22,-258.231,-37.391
-3.19,-256.897,-37.127
-3.16,-255.283,-36.967
-3.12,-253.809,-36.772
-3.09,-252.299,-36.612
-3.06,-250.755,-36.429
-3.03,-249.176,-36.028
-2.99,-247.386,-35.627
-2.96,-245.491,-35.306
-2.93,-243.526,-34.997
-2.9,-241.595,-34.848
-2.86,-239.771,-34.687
-2.83,-237.981,-34.516
-2.8,-236.436,-34.447
-2.77,-234.822,-34.218
-2.73,-233.243,-33.874
-2.7,-231.839,-33.633
-2.67,-230.365,-33.347
-2.64,-228.54,-32.981
-2.6,-226.891,-32.694
-2.57,-225.031,-32.431
-2.54,-223.065,-32.041
-2.51,-221.03,-31.72
-2.47,-218.784,-31.331
-2.44,-216.292,-30.861
-2.41,-214.291,-30.793
-2.38,-212.361,-30.689
-2.34,-210.291,-30.54
-2.31,-208.746,-30.414
-2.28,-207.237,-30.185
-2.25,-205.447,-29.807
-2.21,-203.658,-29.361
-2.18,-201.727,-28.857
-2.15,-199.551,-28.456
-2.12,-197.305,-28.089
-2.08,-195.059,-27.757
-2.05,-192.708,-27.528
-2.02,-190.532,-27.276
-1.99,-188.251,-26.852
-1.95,-185.759,-26.497
-1.92,-183.337,-26.107
-1.89,-180.775,-25.66
-1.85,-178.214,-25.363
-1.82,-175.757,-25.099
-1.79,-173.37,-24.698
-1.76,-170.844,-24.286
-1.72,-168.211,-23.816
-1.69,-165.579,-23.323
-1.66,-162.772,-22.831
-1.63,-159.648,-22.304
-1.59,-156.735,-21.926
-1.56,-153.822,-21.685
-1.53,-150.874,-21.273
-1.5,-148.137,-20.895
-1.46,-145.259,-20.494
-1.43,-142.346,-20.116
-1.4,-139.574,-19.681
-1.37,-136.801,-19.303
-1.33,-134.064,-18.97
-1.3,-131.572,-18.558
-1.27,-128.94,-18.123
-1.24,-126.308,-17.653
-1.2,-123.676,-17.183
-1.17,-120.868,-16.656
-1.14,-117.92,-16.072
-1.11,-114.972,-15.499
-1.07,-111.673,-14.881
-1.04,-108.163,-14.388
-1.01,-104.689,-13.941
-0.98,-101.109,-13.46
-0.94,-97.389,-12.968
-0.91,-93.704,-12.372
-0.88,-89.949,-11.685
-0.85,-85.878,-11.009
-0.81,-81.807,-10.436
-0.78,-77.841,-9.737
-0.75,-73.56,-9.119
-0.72,-69.559,-8.741
-0.68,-65.804,-8.282
-0.65,-61.908,-7.824
-0.62,-58.293,-7.469
-0.59,-55.029,-7.137
-0.55,-51.836,-6.77
-0.52,-48.817,-6.301
-0.49,-45.975,-5.842
-0.46,-43.132,-5.453
-0.42,-40.219,-4.983
-0.39,-37.517,-4.525
-0.36,-34.885,-4.101
-0.33,-32.007,-3.608
-0.29,-28.954,-3.047
-0.26,-25.584,-2.429
-0.23,-22.075,-1.821
-0.2,-18.179,-1.272
-0.16,-14.108,-0.768
-0.13,-9.721,-0.401
-0.1,-5.264,-0.069
-0.07,-0.772,0.103
-0.03,0.526,0.951
0.0,1.965,2.795
0.03,5.721,4.078
0.07,8.633,4.823
0.1,12.248,5.281
0.13,16.635,5.315
0.16,21.443,5.212
0.2,26.532,5.338
0.23,31.48,5.281
0.26,35.692,4.972
0.29,39.096,4.846
0.33,41.833,5.098
0.36,44.325,5.659
0.39,46.712,6.312
0.42,48.888,6.988
0.46,50.993,7.687
0.49,53.345,8.374
0.52,55.836,9.119
0.55,58.714,9.852
0.59,61.943,10.585
0.62,65.593,11.375
0.65,69.453,11.948
0.68,73.419,12.452
0.72,77.42,12.945
0.75,81.386,13.392
0.78,85.316,13.861
0.81,89.072,14.354
0.85,92.827,14.915
0.88,96.547,15.328
0.91,99.916,15.683
0.94,103.04,16.106
0.98,106.093,16.507
1.01,108.936,17.011
1.04,111.813,17.516
1.07,114.867,18.054
1.11,117.85,18.535
1.14,120.833,19.051
1.17,123.851,19.532
1.2,126.939,20.07
1.24,130.168,20.563
1.27,133.502,21.055
1.3,136.801,21.514
1.33,139.96,21.949
1.37,142.978,22.224
1.4,145.996,22.51
1.43,148.663,22.831
1.46,151.12,22.991
1.5,153.436,23.22
1.53,155.542,23.667
1.56,157.928,24.274
1.59,160.385,24.687
1.63,162.877,25.259
1.66,165.685,25.832
1.69,168.633,26.245
1.72,171.51,26.657
1.76,174.599,27.115
1.79,177.757,27.551
1.82,180.846,28.055
1.85,183.934,28.501
1.89,187.163,28.857
1.92,190.076,29.074
1.95,192.603,29.177
1.99,194.849,29.269
2.02,196.744,29.464
2.05,198.393,29.658
2.08,200.113,29.888
2.12,201.692,30.185
2.15,203.061,30.518
2.18,204.57,30.804
2.21,206.079,31.125
2.25,207.658,31.434
2.28,209.518,31.801
2.31,211.484,32.179
2.34,213.379,32.454
2.38,215.555,32.809
2.41,217.766,33.175
2.44,219.801,33.336
2.47,221.872,33.496
2.51,223.872,33.702
2.54,225.662,33.908
2.57,227.557,34.206
2.6,229.417,34.493
2.64,231.067,34.848
2.67,233.032,35.249
2.7,234.962,35.409
2.73,236.752,35.581
2.77,238.402,35.776
2.8,239.981,35.913
2.83,241.49,36.131
2.86,243.069,36.463
2.9,244.789,36.738
2.93,246.368,37.105
2.96,248.158,37.368
2.99,249.843,37.46
3.03,251.352,37.666
3.06,253.107,37.929
3.09,254.756,38.067
3.12,256.23,38.353
3.16,257.88,38.708
3.19,259.494,38.903
3.22,260.933,38.983
3.25,262.337,39.029
3.29,263.46,39.052
3.32,264.548,39.155
3.35,265.495,39.293
3.38,266.513,39.338
3.42,267.39,39.613
3.45,268.513,40.026
3.48,269.672,40.232
3.51,270.83,40.484
3.55,272.093,40.644
3.58,273.392,40.667
3.61,274.62,40.839
3.64,275.919,41.091
3.68,277.182,41.24
3.71,278.34,41.32
3.74,279.358,41.309
3.78,280.235,41.286
3.81,280.797,41.206
3.84,281.148,41.171
3.87,281.534,41.32
3.91,281.99,41.549
3.94,282.376,41.607
3.97,282.762,41.629
4.0,283.043,41.675
4.04,283.394,41.847
4.07,283.85,42.007
4.1,284.306,41.95
4.13,284.482,41.801
4.17,285.043,42.111
4.2,285.5,42.191
4.23,285.605,41.927
4.26,285.71,41.87
4.3,285.64,41.733
4.33,285.114,41.595
4.36,284.306,41.332
4.39,283.569,41.309
4.43,283.008,41.355
4.46,282.446,41.251
4.49,281.639,41.045
4.52,280.797,40.942
4.56,279.919,40.816
4.59,278.902,40.576
4.62,277.884,40.358
4.65,276.866,40.335
4.69,275.848,40.232
4.72,274.866,40.106
4.75,273.918,39.991
4.78,272.69,39.693
4.82,271.391,39.361
4.85,269.987,38.983
4.88,268.233,38.64
4.91,266.583,38.491
4.95,265.004,38.388
4.98,263.354,38.239
5.01,261.81,38.216
5.04,260.547,38.067
5.08,259.143,37.769
5.11,257.809,37.597
5.14,256.581,37.368
5.17,255.247,37.082
5.21,253.879,36.933
5.24,252.615,36.704
5.27,251.212,36.497
5.3,249.738,36.245
5.34,248.158,35.867
5.37,246.368,35.547
5.4,244.579,35.295
5.43,242.648,34.894
5.47,240.648,34.653
5.5,238.823,34.642
5.53,236.928,34.298
5.56,234.752,33.897
5.6,232.857,33.748
5.63,231.172,33.496
5.66,229.277,33.187
5.7,227.382,32.992
5.73,225.732,32.717
5.76,224.048,32.499
5.79,222.398,32.328
5.83,220.749,31.846
5.86,218.713,31.4
5.89,216.818,31.377
5.92,215.134,31.125
5.96,213.309,30.861
5.99,211.449,30.724
6.02,209.94,30.483
6.05,208.29,30.185
6.09,206.29,29.739
6.12,204.184,29.235
6.15,202.078,28.879
6.18,199.657,28.433
6.22,197.305,28.078
6.25,194.849,27.86
6.28,192.427,27.654
6.31,190.286,27.367
6.35,188.145,27.069
6.38,185.794,26.68
6.41,183.583,26.279
6.44,181.232,25.844
6.48,178.705,25.466
6.51,176.389,25.156
6.54,174.037,24.801
6.57,171.405,24.274
6.61,168.773,23.793
6.64,166.035,23.301
6.67,162.912,22.716
6.7,159.753,22.201
6.74,156.595,21.892
6.77,153.436,21.514
6.8,150.453,21.216
6.83,147.505,20.78
6.87,144.522,20.425
6.9,141.785,20.116
6.93,139.258,19.772
6.96,136.555,19.337
7.0,134.099,19.005
7.03,131.818,18.684
7.06,129.361,18.123
7.09,126.729,17.642
7.13,124.062,17.16
7.16,121.254,16.542
7.19,118.06,15.877
7.22,114.691,15.247
7.26,110.971,14.812
7.29,107.321,14.411
7.32,103.777,13.918
7.35,100.127,13.449
7.39,96.547,12.933
7.42,92.862,12.361
7.45,89.212,11.776
7.49,85.492,11.238
7.52,81.772,10.745
7.55,78.122,10.253
7.58,74.577,9.817
7.62,71.243,9.279
7.65,67.804,8.786
7.68,64.33,8.385
7.71,61.206,7.939
7.75,58.047,7.366
7.78,54.713,6.885
7.81,51.555,6.438
7.84,48.326,5.911
7.88,45.062,5.327
7.91,41.693,4.823
7.94,38.359,4.365
7.97,34.85,3.872
8.01,31.48,3.379
8.04,27.971,2.841
8.07,24.321,2.245
8.1,20.425,1.638
8.14,16.354,1.1
8.17,12.108,0.768
8.2,8.002,0.504
8.23,3.58,0.229
8.27,0.07,0.0
8.3,-0.421,-1.054
8.33,-2.071,-2.555
8.36,-5.194,-3.425
8.4,-7.335,-4.009
8.43,-9.932,-4.594
8.46,-13.792,-5.006
8.49,-18.741,-5.453
8.53,-24.496,-5.762
8.56,-30.287,-5.728
8.59,-35.446,-5.327
8.62,-39.552,-4.926
8.66,-42.781,-4.972
8.69,-45.343,-5.453
8.72,-47.765,-6.22
8.75,-50.221,-6.976
8.79,-52.467,-7.629
8.82,-54.503,-8.248
8.85,-56.714,-8.901
8.88,-59.346,-9.623
8.92,-62.329,-10.39
8.95,-65.698,-11.1
8.98,-69.383,-11.811
9.01,-73.138,-12.361
9.05,-77.104,-12.876
9.08,-81.07,-13.414
9.11,-84.86,-13.941
9.14,-88.721,-14.491
9.18,-92.616,-14.961
9.21,-96.266,-15.362
9.24,-99.881,-15.706
9.27,-103.04,-15.958
9.31,-105.917,-16.393
9.34,-109.111,-16.863
9.37,-112.059,-17.321
9.41,-114.832,-17.848
9.44,-117.955,-18.489
9.47,-121.149,-19.016
9.5,-124.062,-19.417
9.54,-127.185,-19.978
9.57,-130.344,-20.494
9.6,-133.467,-20.895
9.63,-137.082,-21.64
9.67,-140.486,-21.96
9.7,-143.399,-22.166
9.73,-146.487,-22.419
9.76,-149.295,-22.602
9.8,-151.787,-23.06
9.83,-154.384,-23.507
9.86,-156.911,-23.862
9.89,-159.438,-24.412
9.93,-162.105,-25.053
9.96,-164.948,-25.363
9.99,-167.545,-25.649
10.02,-170.212,-26.004
10.06,-172.704,-26.164
10.09,-174.915,-26.405
10.12,-177.336,-26.978
10.15,-179.968,-27.447
10.19,-182.495,-27.894
10.22,-185.268,-28.352
10.25,-188.04,-28.673
10.28,-190.497,-29.005
10.32,-192.989,-29.269
10.35,-195.41,-29.372
10.38,-197.481,-29.693
10.41,-199.657,-30.059
10.45,-201.692,-30.197
10.48,-203.482,-30.46
10.51,-205.237,-30.747
10.54,-206.956,-30.85
10.58,-208.501,-31.033
10.61,-210.045,-31.354
10.64,-211.729,-31.697
10.67,-213.484,-32.133
10.71,-215.344,-32.614
10.74,-217.555,-33.003
10.77,-219.696,-33.313
10.8,-221.802,-33.53
10.84,-223.872,-33.702
10.87,-225.908,-34.012
10.9,-227.943,-34.183
10.93,-229.944,-34.309
10.97,-231.909,-34.699
11.0,-233.804,-34.997
11.03,-235.594,-35.1
11.06,-237.244,-35.214
11.1,-238.928,-35.615
11.13,-240.508,-35.764
11.16,-241.946,-35.89
11.2,-243.385,-36.177
11.23,-245.105,-36.543
11.26,-246.754,-36.784
11.29,-248.264,-37.001
11.33,-249.913,-37.242
11.36,-251.527,-37.448
11.39,-253.036,-37.631
11.42,-254.651,-37.838
11.46,-256.3,-38.032
11.49,-257.774,-38.25
11.52,-259.178,-38.445
11.55,-260.547,-38.559
11.59,-261.74,-38.662
11.62,-262.933,-38.788
11.65,-263.986,-38.846
11.68,-265.004,-39.086
11.72,-266.162,-39.327
11.75,-267.145,-39.453
11.78,-268.303,-39.705
11.81,-269.461,-40.026
11.85,-270.76,-40.289
11.88,-272.234,-40.518
11.91,-273.708,-40.587
11.94,-275.076,-40.713
11.98,-276.375,-40.954
12.01,-277.708,-41.137
12.04,-278.937,-41.16
12.07,-280.06,-41.16
12.11,-280.937,-41.137
12.14,-281.639,-41.068
12.17,-281.955,-41.022
12.2,-282.271,-41.114
12.24,-282.692,-41.217
12.27,-282.867,-41.343
12.3,-283.113,-41.355
12.33,-283.324,-41.458
12.37,-283.429,-41.4
12.4,-283.499,-41.32
12.43,-283.745,-41.595
12.46,-284.061,-41.618
12.5,-284.201,-41.595
12.53,-284.447,-41.71
12.56,-284.763,-41.79
12.59,-284.868,-41.595
12.63,-284.903,-41.481
12.66,-284.692,-41.309
12.69,-284.306,-41.022
12.72,-283.85,-40.976
12.76,-283.253,-40.976
12.79,-282.481,-40.828
12.82,-281.709,-40.816
12.85,-280.867,-40.644
12.89,-279.814,-40.289
12.92,-278.481,-40.06
12.95,-277.147,-39.877
12.98,-275.919,-39.728
13.02,-274.76,-39.865
13.05,-273.813,-39.877
13.08,-272.9,-39.613
13.12,-271.777,-39.419
13.15,-270.514,-39.144
13.18,-269.18,-38.674
13.21,-267.706,-38.468
13.25,-266.232,-38.365
13.28,-264.828,-38.227
13.31,-263.6,-38.204
13.34,-262.302,-38.09
13.38,-261.108,-37.792
13.41,-259.775,-37.551
13.44,-258.266,-37.253
13.47,-256.862,-36.967
13.51,-255.353,-36.784
13.54,-253.738,-36.578
13.57,-252.405,-36.417
13.6,-250.931,-36.222
13.64,-249.211,-35.821
13.67,-247.386,-35.398
13.7,-245.561,-35.111
13.73,-243.526,-34.768
13.77,-241.525,-34.573
13.8,-239.63,-34.401
13.83,-237.735,-34.355
13.86,-236.331,-34.424
13.9,-235.068,-34.16
13.93,-233.383,-33.725
13.96,-231.979,-33.53
13.99,-230.681,-33.267
14.03,-228.821,-32.774
14.06,-227.066,-32.454
14.09,-225.346,-32.27
14.12,-223.206,-31.881
14.16,-221.205,-31.549
14.19,-219.029,-31.251
14.22,-216.643,-30.747
14.25,-214.397,-30.621
14.29,-212.466,-30.518
14.32,-210.326,-30.266
14.35,-208.43,-30.151
14.38,-206.921,-29.956
14.42,-204.991,-29.498
14.45,-203.061,-29.109
14.48,-201.201,-28.673
14.51,-198.955,-28.249
14.55,-196.744,-27.974
14.58,-194.708,-27.722
14.61,-192.532,-27.482
14.64,-190.462,-27.264
14.68,-188.426,-26.84
14.71,-186.145,-26.416
14.74,-183.618,-26.027
14.77,-181.267,-25.58
14.81,-178.74,-25.191
14.84,-176.213,-24.95
14.87,-173.862,-24.561
14.9,-171.23,-24.068
14.94,-168.317,-23.621
14.97,-165.685,-23.14
15.0,-162.701,-22.556
15.04,-159.367,-22.052
15.07,-156.384,-21.685
15.1,-153.612,-21.388
15.13,-150.488,-20.975
15.17,-147.681,-20.666
15.2,-144.873,-20.265
15.23,-141.855,-19.933
15.26,-139.363,-19.669
15.3,-136.801,-19.177
15.33,-134.099,-18.902
15.36,-131.712,-18.638
15.39,-129.431,-18.134
15.43,-126.553,-17.619
15.46,-123.921,-17.206
15.49,-121.359,-16.519
15.52,-118.06,-15.854
15.56,-114.796,-15.35
15.59,-111.568,-14.789
15.62,-107.777,-14.297
15.65,-104.233,-13.815
15.69,-100.758,-13.254
15.72,-96.863,-12.739
15.75,-93.108,-12.223
15.78,-89.668,-11.524
15.82,-85.562,-10.894
15.85,-81.596,-10.402
15.88,-77.876,-9.749
15.91,-73.77,-9.222
15.95,-69.91,-8.981
15.98,-66.541,-8.477
16.01,-62.926,-7.939
16.04,-59.206,-7.595
16.08,-56.258,-7.228
16.11,-53.204,-6.724
16.14,-49.976,-6.243
16.17,-47.133,-5.842
16.21,-44.22,-5.373
16.24,-41.061,-4.914
16.27,-38.219,-4.445
16.3,-35.236,-3.975
16.34,-32.077,-3.494
16.37,-28.848,-2.864
16.4,-25.233,-2.199
16.43,-21.162,-1.65
16.47,-17.162,-1.1
16.5,-12.704,-0.584
16.53,-8.177,-0.183
16.56,-3.194,0.08
16.6,0.175,0.332
16.63,0.667,1.627
16.66,3.159,3.23
16.69,6.422,4.032
16.73,8.633,4.582
16.76,11.757,4.937
16.79,15.933,5.144
16.83,20.811,5.327
16.86,26.006,5.51
16.89,31.235,5.51
16.92,35.938,5.224
16.96,39.587,5.04
16.99,42.36,5.121
17.02,45.132,5.613
17.05,47.449,6.301
17.09,49.239,6.965
17.12,51.309,7.584
17.15,53.45,8.202
17.18,55.591,8.89
17.22,58.118,9.577
17.25,61.206,10.321
17.28,64.575,11.238
17.31,68.471,11.891
17.35,72.472,12.418
17.38,76.578,13.071
17.41,80.965,13.495
17.44,85.001,13.884
17.48,88.826,14.377
17.51,92.827,14.915
17.54,96.687,15.328
17.57,99.776,15.66
17.61,103.04,16.084
17.64,106.198,16.404
17.67,108.725,16.908
17.7,111.638,17.424
17.74,114.796,17.951
17.77,117.534,18.478
17.8,120.306,18.982
17.83,123.5,19.452
17.87,126.588,20.127
17.9,129.677,20.528
17.93,133.221,20.987
17.96,136.555,21.594
18.0,139.89,21.983
18.03,143.294,22.235
18.06,146.242,22.648
18.09,149.155,23.014
18.13,152.138,23.289
18.16,154.559,23.53
18.19,156.805,23.873
18.22,159.402,24.423
18.26,161.859,24.95
18.29,164.667,25.786
18.32,168.036,26.543
18.35,171.545,27.058
18.39,175.055,27.539
18.42,178.915,28.02
18.45,182.425,28.249
18.48,185.408,28.49
18.52,188.567,28.799
18.55,191.585,29.166
18.58,194.112,29.418
18.61,196.603,29.567
18.65,198.639,29.693
18.68,200.394,30.059
18.71,202.254,30.392
18.75,204.008,30.552
18.78,205.447,30.724
18.81,206.816,31.067
18.84,208.29,31.216
18.88,209.413,31.285
18.91,210.712,31.571
18.94,212.291,31.984
18.97,213.8,32.373
19.01,215.66,32.82
19.04,217.766,33.278
19.07,219.872,33.622
19.1,222.188,33.828
19.14,224.329,33.897
19.17,226.259,34.023
19.2,228.154,34.298
19.23,230.084,34.55
19.27,231.769,34.71
19.3,233.453,35.065
19.33,235.349,35.375
19.36,236.963,35.409
19.4,238.297,35.512
19.43,239.841,35.821
19.46,241.455,36.108
19.49,242.999,36.474
19.53,244.789,36.807
19.56,246.579,37.093
19.59,248.439,37.517
19.62,250.299,37.643
19.66,251.949,37.654
19.69,253.598,37.906
19.72,255.247,38.078
19.75,256.862,38.296
19.79,258.406,38.674
19.82,260.196,38.914
19.85,261.74,38.926
19.88,262.968,39.018
19.92,264.021,38.96
19.95,264.864,38.96
19.98,265.706,39.212
20.01,266.548,39.407
20.05,267.39,39.613
20.08,268.513,40.072
20.11,269.672,40.358
20.14,270.83,40.358
20.18,272.058,40.518
20.21,273.216,40.644
20.24,274.515,40.724
20.27,275.813,41.091
20.31,277.252,41.332
20.34,278.691,41.446
20.37,279.955,41.538
20.4,280.902,41.412
20.44,281.709,41.332
20.47,282.236,41.355
20.5,282.516,41.297
20.54,282.903,41.4
20.57,283.289,41.652
20.6,283.499,41.607
20.63,283.569,41.572
20.67,283.675,41.664
20.7,283.64,41.652
20.73,281.744,39.785
20.76,276.55,36.2
20.8,269.566,34.275
20.83,262.723,34.378
20.86,256.335,34.584
20.89,250.229,34.939
20.93,246.298,36.658
20.96,245.421,38.834
20.99,247.281,40.369
21.02,251.071,41.847
21.06,256.721,43.439
21.09,264.267,44.31
21.12,272.374,44.574
21.15,279.884,44.402
21.19,285.359,42.935
21.22,288.799,41.148
21.25,290.483,40.152
21.28,290.378,39.774
21.32,289.079,39.487
21.35,286.798,39.109
21.38,283.394,38.766
21.41,279.498,38.697
21.45,275.638,38.548
21.48,271.742,38.25
21.51,267.987,38.296
21.54,264.899,38.502
21.58,262.758,38.651
21.61,261.319,38.869
21.64,260.231,39.063
21.67,259.845,39.155
21.71,260.126,39.063
21.74,260.091,38.674
21.77,259.985,38.227
21.8,259.634,37.861
21.84,258.862,37.357
21.87,257.599,36.864
21.9,255.984,36.578
21.93,254.124,36.268
21.97,251.984,35.879
22.0,249.667,35.524
22.03,247.176,35.317
22.06,244.894,35.249
22.1,242.894,35.146
22.13,240.929,34.985
22.16,239.209,34.974
22.19,237.981,34.917
22.23,236.612,34.63
22.26,235.033,34.218
22.29,233.594,33.931
22.32,232.085,33.691
22.36,230.295,33.255
22.39,228.505,32.912
22.42,226.715,32.648
22.46,224.644,32.282
22.49,222.609,31.938
22.52,220.468,31.514
22.55,218.152,31.205
22.59,215.906,31.045
22.62,213.87,30.861
22.65,211.659,30.609
22.68,209.834,30.46
22.72,208.115,30.231
22.75,206.079,29.784
22.78,204.079,29.372
22.81,202.113,29.04
22.85,199.937,28.65
22.88,197.797,28.364
22.91,195.761,28.089
22.94,193.585,27.757
22.98,191.374,27.482
23.01,189.233,27.047
23.04,186.742,26.565
23.07,184.32,26.256
23.11,182.039,25.844
23.14,179.337,25.431
23.17,176.88,25.168
23.2,174.458,24.847
23.24,171.896,24.446
23.27,169.299,24.114
23.3,166.878,23.621
23.33,163.965,23.037
23.37,161.052,22.59
23.4,158.104,22.109
23.43,155.121,21.662
23.46,152.103,21.353
23.5,149.155,20.883
23.53,145.961,20.334
23.56,142.802,20.001
23.59,139.749,19.509
23.63,136.591,18.959
23.66,133.537,18.787
23.69,130.73,18.306
23.72,127.817,17.768
23.76,124.869,17.607
23.79,122.272,17.172
23.82,119.394,16.553
23.85,116.481,16.095
23.89,113.603,15.534
23.92,110.69,15.041
23.95,107.426,14.617
23.98,104.373,14.262
24.02,101.46,13.815
24.05,98.126,13.185
24.08,94.757,12.509
24.11,91.283,11.822
24.15,87.212,11.181
24.18,83.211,10.642
24.21,79.491,10.173
24.25,75.735,9.806
24.28,71.91,9.164
24.31,68.33,8.672
24.34,64.68,8.42
24.38,61.417,7.996
24.41,58.398,7.435
24.44,55.064,6.954
24.47,51.836,6.61
24.51,48.888,6.049
24.54,45.554,5.407
24.57,42.184,4.995
24.6,38.956,4.387
24.64,35.306,3.677
24.67,31.41,3.059
24.7,27.48,2.463
24.73,23.373,1.947
24.77,19.162,1.627
24.8,15.231,1.34
24.83,11.546,1.157
24.86,7.861,0.985
24.9,4.352,0.745
24.93,1.053,0.55
24.96,-0.281,-0.046
24.99,-0.772,-1.489
25.03,-3.334,-2.841
25.06,-6.317,-3.517
25.09,-8.247,-4.204
25.12,-11.722,-4.983
25.16,-16.495,-5.579
25.19,-22.391,-5.957
25.22,-28.497,-5.968
25.25,-34.077,-5.567
25.29,-38.745,-5.304
25.32,-42.535,-5.373
25.35,-46.045,-5.751
25.38,-48.817,-6.323
25.42,-51.274,-7.206
25.45,-53.941,-7.904
25.48,-56.258,-8.477
25.51,-58.328,-9.05
25.55,-60.645,-9.462
25.58,-63.101,-10.001
25.61,-65.593,-10.665
25.64,-68.576,-11.318
25.68,-71.805,-12.017
25.71,-75.174,-12.681
25.74,-78.999,-13.288
25.77,-82.965,-13.861
25.81,-86.79,-14.468
25.84,-91.107,-15.075
25.87,-95.284,-15.408
25.9,-99.004,-15.923
25.94,-102.934,-16.301
25.97,-106.479,-16.622
26.0,-109.286,-17.08
26.03,-112.41,-17.676
26.07,-115.884,-18.203
26.1,-118.622,-18.661
26.13,-121.465,-18.993
26.17,-124.483,-19.36
26.2,-127.15,-19.841
26.23,-129.922,-20.173
26.26,-132.941,-20.7
26.3,-135.713,-21.147
26.33,-138.521,-21.685
26.36,-141.785,-22.247
26.39,-144.733,-22.602
26.43,-147.61,-22.98
26.46,-150.769,-23.381
26.49,-153.471,-23.679
26.52,-156.174,-24.068
26.56,-159.122,-24.538
26.59,-161.754,-24.916
26.62,-164.351,-25.259
26.65,-167.299,-25.626
26.69,-169.826,-25.901
26.72,-171.967,-26.233
26.75,-174.458,-26.669
26.78,-177.055,-27.173
26.82,-179.582,-27.665
26.85,-182.565,-28.135
26.88,-185.268,-28.421
26.91,-187.83,-28.788
26.95,-190.637,-29.143
26.98,-193.094,-29.315
27.01,-195.235,-29.532
27.04,-197.656,-29.888
27.08,-199.867,-30.082
27.11,-201.587,-30.288
27.14,-203.517,-30.689
27.17,-205.342,-30.907
27.21,-206.886,-31.136
27.24,-208.781,-31.503
27.27,-210.501,-31.617
27.3,-212.01,-31.927
27.34,-213.976,-32.408
27.37,-215.871,-32.694
27.4,-217.731,-33.049
27.43,-220.012,-33.519
27.47,-222.153,-33.588
27.5,-224.013,-33.805
27.53,-226.118,-34.229
27.56,-228.084,-34.355
27.6,-229.979,-34.664
27.63,-232.12,-35.169
27.66,-234.261,-35.295
27.69,-236.086,-35.535
27.73,-238.086,-35.902
27.76,-239.981,-35.902
27.79,-241.56,-36.119
27.82,-243.245,-36.452
27.86,-245.035,-36.578
27.89,-246.474,-36.749
27.92,-247.842,-36.99
27.96,-249.281,-37.001
27.99,-250.334,-37.173
28.02,-251.387,-37.402
28.05,-252.65,-37.505
28.09,-253.773,-37.803
28.12,-255.002,-38.147
28.15,-256.406,-38.422
28.18,-258.02,-38.777
28.22,-259.459,-38.937
28.25,-260.968,-38.892
28.28,-262.372,-39.144
28.31,-263.811,-39.35
28.35,-265.285,-39.419
28.38,-266.794,-39.774
28.41,-268.092,-40.014
28.44,-269.391,-39.877
28.48,-270.549,-40.014
28.51,-271.602,-40.301
28.54,-272.83,-40.484
28.57,-274.094,-40.77
28.61,-275.322,-40.988
28.64,-276.62,-41.045
28.67,-277.919,-41.183
28.7,-278.867,-41.251
28.74,-279.779,-41.251
28.77,-280.551,-41.32
28.8,-281.148,-41.309
28.83,-281.569,-41.309
28.87,-282.166,-41.492
28.9,-282.587,-41.584
28.93,-282.938,-41.641
28.96,-283.324,-41.618
29.0,-283.499,-41.641
29.03,-283.815,-41.778
29.06,-283.78,-41.561
29.09,-283.815,-41.526
29.13,-283.955,-41.721
29.16,-284.131,-41.881
29.19,-284.306,-41.79
29.22,-284.412,-41.87
29.26,-284.587,-41.893
29.29,-284.552,-41.618
29.32,-284.236,-41.377
29.35,-283.745,-41.263
29.39,-283.148,-41.114
29.42,-282.516,-41.16
29.45,-282.06,-41.206
29.48,-281.358,-41.068
29.52,-280.551,-40.873
29.55,-279.568,-40.679
29.58,-278.481,-40.381
29.61,-277.252,-40.106
29.65,-276.024,-40.106
29.68,-275.006,-40.049
29.71,-273.988,-39.934
29.74,-272.971,-39.911
29.78,-271.918,-39.659
29.81,-270.724,-39.258
29.84,-269.321,-39.029
29.88,-268.022,-38.708
29.91,-266.548,-38.491
29.94,-265.144,-38.456
29.97,-263.846,-38.376
30.01,-262.653,-38.227
30.04,-261.389,-38.032
30.07,-259.88,-37.654
30.1,-258.301,-37.253
30.14,-256.581,-37.059
30.17,-254.861,-36.852
30.2,-253.282,-36.646
30.23,-251.633,-36.532
30.27,-250.124,-36.337
30.3,-248.509,-35.982
30.33,-246.79,-35.764
30.36,-245.175,-35.478
30.4,-243.596,-35.237
30.43,-242.017,-35.134
30.46,-240.367,-34.928
30.49,-238.963,-34.676
30.53,-237.665,-34.607
30.56,-236.121,-34.195
30.59,-234.436,-33.817
30.62,-232.962,-33.84
30.66,-231.348,-33.439
30.69,-229.382,-32.9
30.72,-227.417,-32.625
30.75,-225.346,-32.35
30.79,-223.276,-32.007
30.82,-221.1,-31.778
30.85,-218.784,-31.445
30.88,-216.643,-31.193
30.92,-214.572,-31.022
30.95,-212.256,-30.632
30.98,-210.22,-30.254
31.01,-208.466,-30.22
31.05,-206.606,-29.899
31.08,-204.64,-29.509
31.11,-202.745,-29.28
31.14,-200.71,-28.971
31.18,-198.709,-28.696
31.21,-196.919,-28.421
31.24,-194.989,-28.043
31.27,-193.024,-27.791
31.31,-191.164,-27.493
31.34,-188.882,-26.978
31.37,-186.671,-26.611
31.4,-184.285,-26.153
31.44,-181.653,-25.557
31.47,-178.951,-25.248
31.5,-176.318,-24.939
31.53,-173.546,-24.538
31.57,-170.879,-24.206
31.6,-168.176,-23.759
31.63,-165.123,-23.255
31.66,-162.28,-22.831
31.7,-159.297,-22.247
31.73,-156.104,-21.8
31.76,-153.331,-21.766
31.8,-150.383,-21.113
31.83,-147.154,-20.62
31.86,-144.312,-20.471
31.89,-141.714,-20.013
31.93,-139.012,-19.681
31.96,-136.591,-19.417
31.99,-134.239,-19.096
32.02,-131.642,-18.65
32.06,-129.326,-18.398
32.09,-127.01,-17.859
32.12,-124.272,-17.103
32.15,-121.359,-16.53
32.19,-118.06,-15.832
32.22,-114.481,-15.19
32.25,-110.796,-14.755
32.28,-107.251,-14.4
32.32,-103.706,-14.022
32.35,-100.127,-13.529
32.38,-96.687,-12.956
32.41,-93.002,-12.361
32.45,-89.177,-11.685
32.48,-85.422,-11.032
32.51,-81.561,-10.436
32.54,-77.806,-9.978
32.58,-73.946,-9.325
32.61,-70.085,-8.821
32.64,-66.541,-8.557
32.67,-63.206,-8.145
32.71,-59.837,-7.606
32.74,-56.503,-7.217
32.77,-53.485,-6.816
32.8,-50.362,-6.289
32.84,-47.098,-5.728
32.87,-44.15,-5.315
32.9,-41.096,-4.834
32.93,-37.903,-4.319
32.97,-34.744,-3.769
33.0,-31.41,-3.15
33.03,-27.69,-2.555
33.06,-23.9,-1.925
33.1,-19.759,-1.34
33.13,-15.442,-0.813
33.16,-10.915,-0.47
33.19,-6.493,-0.241
33.23,-1.965,-0.172
33.26,0.351,0.137
33.29,0.737,1.466
33.32,2.983,2.852
33.36,5.896,3.505
33.39,7.721,4.055
33.42,10.353,4.685
33.45,14.389,5.189
33.49,19.443,5.51
33.52,25.023,5.636
33.55,30.357,5.464
33.59,35.13,5.098
33.62,38.991,4.903
33.65,41.939,4.96
33.68,44.466,5.464
33.72,47.028,6.163
33.75,49.309,6.873
33.78,51.379,7.561
33.81,53.731,8.259
33.85,56.117,8.912
33.88,58.89,9.646
33.91,62.083,10.459
33.94,65.628,11.158
33.98,69.313,11.776
34.01,73.454,12.418
34.04,77.385,12.876
34.07,81.316,13.357
34.11,85.457,13.827
34.14,89.388,14.285
34.17,93.037,14.743
34.2,96.687,15.087
34.24,99.986,15.442
34.27,102.934,15.923
34.3,105.988,16.301
34.33,108.936,16.691
34.37,111.743,17.229
34.4,114.656,17.79
34.43,117.534,18.203
34.46,120.482,18.844
34.5,123.711,19.417
34.53,126.939,19.772
34.56,130.133,20.322
34.59,133.572,20.895
34.63,137.082,21.239
34.66,140.276,21.743
34.69,143.61,22.292
34.72,146.803,22.407
34.76,149.681,22.808
34.79,152.489,23.14
34.82,155.191,23.323
34.85,157.788,23.919
34.89,160.701,24.664
34.92,163.824,25.088
34.95,166.808,25.603
34.98,169.931,26.119
35.02,173.055,26.382
35.05,175.757,26.646
35.08,178.284,26.921
35.11,180.951,27.058
35.15,183.057,27.299
35.18,185.127,27.447
35.21,186.952,27.562
35.24,188.637,27.883
35.28,190.005,28.123
35.31,191.515,28.249
35.34,192.953,28.582
35.37,194.427,28.948
35.41,196.252,29.303
35.44,198.218,29.842
35.47,200.183,30.357
35.51,202.57,30.689
35.54,205.132,31.079
35.57,207.518,31.377
35.6,210.08,31.56
35.64,212.607,31.904
35.67,214.853,32.007
35.7,216.959,32.098
35.73,219.064,32.522
35.77,220.819,32.602
35.8,222.398,32.625
35.83,224.048,33.026
35.86,225.452,33.255
35.9,226.961,33.473
35.93,228.575,33.805
35.96,230.049,34.069
35.99,231.944,34.642
36.03,234.015,35.054
36.06,235.945,35.169
36.09,238.051,35.478
36.12,240.262,35.799
36.16,242.122,35.844
36.19,244.017,35.993
36.22,245.772,36.28
36.25,247.456,36.486
36.29,249.141,36.658
36.32,250.79,36.795
36.35,252.054,36.944
36.38,253.387,37.196
36.42,254.826,37.368
36.45,256.02,37.54
36.48,257.423,37.883
36.51,258.862,38.193
36.55,260.196,38.296
36.58,261.565,38.433
36.61,262.968,38.628
36.64,264.162,38.685
36.68,265.25,38.823
36.71,266.478,38.914
36.74,267.461,39.006
36.77,268.584,39.361
36.81,269.952,39.671
36.84,271.251,39.842
36.87,272.585,40.072
36.9,273.988,40.186
36.94,275.252,40.232
36.97,276.445,40.45
37.0,277.708,40.61
37.03,278.796,40.644
37.07,279.744,40.736
37.1,280.621,40.793
37.13,281.323,40.69
37.16,281.639,40.667
37.2,282.13,40.782
37.23,282.481,40.908
37.26,282.657,40.942
37.3,282.867,40.873
37.33,282.657,40.598
37.36,282.095,40.289
37.39,281.429,40.106
37.43,280.411,39.854
37.46,279.814,40.117
37.49,279.604,40.747
37.52,279.463,40.713
37.56,279.709,40.896
37.59,280.341,41.355
37.62,281.148,41.515
37.65,282.166,41.492
37.69,283.218,41.538
37.72,284.341,41.687
37.75,285.535,41.87
37.78,286.868,41.939
37.82,287.851,41.813
37.85,288.448,41.561
37.88,288.518,41.206
37.91,287.781,40.472
37.95,286.166,39.854
37.98,284.236,39.487
38.01,281.815,39.109
38.04,279.112,38.857
38.08,276.199,38.697
38.11,273.251,38.456
38.14,270.724,38.353
38.17,268.338,38.239
38.21,265.916,38.01
38.24,264.091,38.01
38.27,262.723,38.044
38.3,261.389,37.952
38.34,260.582,37.952
38.37,260.056,37.792
38.4,259.143,37.368
38.43,258.231,37.139
38.47,257.318,36.852
38.5,256.055,36.452
38.53,254.791,36.222
38.56,253.317,35.925
38.6,251.668,35.592
38.63,249.913,35.386
38.66,247.983,35.031
38.69,245.877,34.653
38.73,243.912,34.538
38.76,241.841,34.138
38.79,239.384,33.691
38.82,237.314,33.794
38.86,235.384,33.599
38.89,233.313,33.164
38.92,231.523,33.118
38.95,229.944,32.992
38.99,228.259,32.614
39.02,226.75,32.568
39.05,225.557,32.305
39.08,224.013,31.904
39.12,222.469,31.812
39.15,220.995,31.434
39.18,219.135,30.941
39.22,217.239,30.77
39.25,215.344,30.369
39.28,213.133,30.082
39.31,211.098,30.002
39.35,209.167,29.578
39.38,207.132,29.395
39.41,205.202,29.326
39.44,203.342,28.879
39.48,201.341,28.547
39.51,199.481,28.398
39.54,197.691,28.066
39.57,195.831,27.745
39.61,193.936,27.539
39.64,191.936,27.127
39.67,189.795,26.68
39.7,187.408,26.256
39.74,185.057,25.66
39.77,182.355,25.122
39.8,179.407,24.79
39.83,176.599,24.446
39.87,173.897,24.102
39.9,170.914,23.759
39.93,168.036,23.358
39.96,165.263,22.968
40.0,162.07,22.476
40.03,159.087,21.892
40.06,156.209,21.536
40.09,153.085,21.239
40.13,150.172,20.906
40.16,147.54,20.505
40.19,144.838,20.242
40.22,142.136,19.875
40.26,139.574,19.291
40.29,136.906,18.993
40.32,134.274,18.65
40.35,131.958,18.398
40.39,129.431,18.008
40.42,126.834,17.538
40.45,124.342,17.034
40.48,121.57,16.496
40.52,118.376,15.82
40.55,115.147,15.156
40.58,111.778,14.675
40.61,108.163,14.239
40.65,104.619,13.689
40.68,100.934,13.14
40.71,97.179,12.727
40.74,93.564,12.177
40.78,89.844,11.513
40.81,85.773,10.963
40.84,82.158,10.516
40.87,78.578,10.001
40.91,74.612,9.497
40.94,71.138,9.073
40.97,67.909,8.718
41.01,64.4,8.237
41.04,61.101,7.744
41.07,57.942,7.24
41.1,54.713,6.805
41.14,51.555,6.312
41.17,48.326,5.728
41.2,44.887,5.189
41.23,41.518,4.72
41.27,38.148,4.158
41.3,34.534,3.597
41.33,30.814,3.07
41.36,27.129,2.566
41.4,23.303,2.073
41.43,19.408,1.65
41.46,15.617,1.283
41.49,11.722,0.928
41.53,7.826,0.664
41.56,3.966,0.47
41.59,0.526,0.252
41.62,-0.421,-0.596
41.66,-1.509,-2.211
41.69,-4.843,-3.448
41.72,-7.581,-4.193
41.75,-10.599,-4.846
41.79,-14.986,-5.292
41.82,-20.145,-5.51
41.85,-25.76,-5.67
41.88,-31.235,-5.464
41.92,-36.043,-5.109
41.95,-39.798,-4.949
41.98,-42.957,-5.201
42.01,-45.729,-5.636
42.05,-48.045,-6.289
42.08,-50.221,-7.102
42.11,-52.432,-7.629
42.14,-54.468,-8.133
42.18,-56.468,-8.66
42.21,-58.82,-9.302
42.24,-61.417,-10.001
42.27,-64.435,-10.711
42.31,-68.015,-11.582
42.34,-71.91,-12.315
42.37,-75.946,-12.796
42.4,-80.193,-13.403
42.44,-84.439,-13.999
42.47,-88.826,-14.48
42.5,-93.178,-14.801
42.53,-96.933,-15.121
42.57,-100.513,-15.614
42.6,-103.847,-15.958
42.63,-107.005,-16.244
42.66,-109.813,-16.691
42.7,-112.621,-17.172
42.73,-115.253,-17.55
42.76,-117.885,-18.077
42.79,-120.728,-18.81
42.83,-123.676,-19.268
42.86,-126.588,-19.749
42.89,-130.028,-20.586
42.93,-133.572,-21.044
42.96,-137.292,-21.685
42.99,-141.153,-22.247
43.02,-144.662,-22.304
43.06,-147.646,-22.361
43.09,-150.488,-22.716
43.12,-153.226,-23.026
43.15,-155.682,-23.186
43.19,-157.999,-23.553
43.22,-160.28,-23.965
43.25,-162.631,-24.549
43.28,-165.053,-25.019
43.32,-167.545,-25.351
43.35,-170.107,-25.672
43.38,-172.493,-26.004
43.41,-174.809,-26.21
43.45,-177.266,-26.737
43.48,-179.968,-27.333
43.51,-182.741,-27.722
43.54,-185.619,-28.123
43.58,-188.286,-28.49
43.61,-190.918,-28.696
43.64,-193.304,-28.96
43.67,-195.621,-29.212
43.71,-197.937,-29.429
43.74,-200.183,-29.716
43.77,-202.148,-29.979
43.8,-203.973,-30.174
43.84,-205.869,-30.46
43.87,-207.448,-30.678
43.9,-209.062,-30.804
43.93,-210.641,-31.056
43.97,-212.186,-31.377
44.0,-213.835,-31.686
44.03,-215.73,-32.121
44.06,-217.766,-32.522
44.1,-219.731,-32.786
44.13,-221.626,-33.015
44.16,-223.557,-33.301
44.19,-225.522,-33.576
44.23,-227.663,-33.782
44.26,-229.558,-33.977
44.29,-231.418,-34.286
44.32,-233.453,-34.584
44.36,-235.313,-34.756
44.39,-237.033,-34.939
44.42,-238.858,-35.191
44.45,-240.578,-35.466
44.49,-242.227,-35.695
44.52,-243.912,-35.936
44.55,-245.631,-36.245
44.58,-247.456,-36.452
44.62,-249.036,-36.566
44.65,-250.475,-36.726
44.68,-251.913,-36.921
44.71,-253.352,-37.105
44.75,-254.791,-37.345
44.78,-256.125,-37.574
44.81,-257.704,-37.849
44.85,-259.143,-38.067
44.88,-260.477,-38.113
44.91,-261.635,-38.239
44.94,-262.968,-38.41
44.98,-264.021,-38.525
45.01,-265.25,-38.766
45.04,-266.443,-38.892
45.07,-267.531,-38.983
45.11,-268.759,-39.235
45.14,-270.058,-39.522
45.17,-271.321,-39.728
45.2,-272.655,-39.991
45.24,-274.164,-40.094
45.27,-275.497,-40.186
45.3,-276.831,-40.438
45.33,-278.165,-40.576
45.37,-279.218,-40.564
45.4,-280.235,-40.621
45.43,-281.042,-40.633
45.46,-281.534,-40.507
45.5,-281.85,-40.472
45.53,-282.13,-40.541
45.56,-282.341,-40.587
45.59,-282.481,-40.782
45.63,-282.692,-40.839
45.66,-282.938,-40.885
45.69,-283.183,-41.034
45.72,-283.604,-41.137
45.76,-283.745,-41.011
45.79,-284.061,-41.103
45.82,-284.587,-41.274
45.85,-284.938,-41.217
45.89,-285.184,-41.183
45.92,-285.324,-41.045
45.95,-285.254,-40.885
45.98,-284.973,-40.747
46.02,-284.517,-40.472
46.05,-283.885,-40.438
46.08,-283.324,-40.576
46.11,-282.657,-40.461
46.15,-281.99,-40.324
46.18,-281.253,-40.243
46.21,-280.235,-39.888
46.24,-279.007,-39.556
46.28,-277.814,-39.419
46.31,-276.375,-39.247
46.34,-275.111,-39.258
46.37,-274.269,-39.373
46.41,-273.146,-39.109
46.44,-271.918,-38.857
46.47,-270.76,-38.708
46.5,-269.356,-38.262
46.54,-267.847,-37.998
46.57,-266.513,-37.998
46.6,-265.144,-37.757
46.64,-263.741,-37.677
46.67,-262.617,-37.654
46.7,-261.354,-37.288
46.73,-259.88,-36.956
46.77,-258.441,-36.726
46.8,-256.897,-36.394
46.83,-255.247,-36.2
46.86,-253.773,-36.039
46.9,-252.194,-35.776
46.93,-250.475,-35.673
46.96,-249.001,-35.455
46.99,-247.281,-35.088
47.03,-245.456,-34.848
47.06,-243.701,-34.607
47.09,-242.017,-34.298
47.12,-240.121,-34.069
47.16,-238.437,-33.977
47.19,-237.033,-33.759
47.22,-235.349,-33.404
47.25,-233.594,-33.038
47.29,-231.839,-32.671
47.32,-229.733,-32.522
47.35,-227.908,-32.293
47.38,-226.154,-32.007
47.42,-224.329,-31.972
47.45,-222.644,-31.801
47.48,-221.1,-31.377
47.51,-219.205,-31.045
47.55,-217.274,-30.758
47.58,-215.45,-30.392
47.61,-213.414,-30.025
47.64,-211.238,-29.681
47.68,-209.238,-29.578
47.71,-207.272,-29.361
47.74,-205.026,-28.96
47.77,-202.991,-28.524
47.81,-200.85,-28.238
47.84,-198.428,-27.963
47.87,-196.428,-27.665
47.9,-194.357,-27.505
47.94,-192.216,-27.344
47.97,-190.497,-27.024
48.0,-188.567,-26.543
48.03,-186.32,-26.073
48.07,-184.039,-25.592
48.1,-181.583,-25.088
48.13,-178.88,-24.755
48.16,-176.318,-24.469
48.2,-173.756,-24.125
48.23,-171.019,-23.747
48.26,-168.352,-23.22
48.29,-165.614,-22.705
48.33,-162.386,-22.235
48.36,-159.262,-21.708
48.39,-156.279,-21.376
48.42,-153.156,-21.25
48.46,-150.383,-20.849
48.49,-147.716,-20.483
48.52,-144.698,-20.116
48.56,-141.925,-19.726
48.59,-139.644,-19.429
48.62,-136.977,-19.016
48.65,-134.485,-18.673
48.69,-132.239,-18.34
48.72,-129.677,-17.905
48.75,-126.904,-17.355
48.78,-124.307,-16.851
48.82,-121.359,-16.301
48.85,-117.955,-15.58
48.88,-114.691,-14.915
48.91,-110.971,-14.388
48.95,-107.251,-13.999
48.98,-103.706,-13.495
49.01,-99.881,-13.036
49.04,-96.091,-12.704
49.08,-92.686,-12.12
49.11,-88.861,-11.456
49.14,-84.966,-10.94
49.17,-81.561,-10.39
49.21,-77.841,-9.726
49.24,-73.84,-9.164
49.27,-70.436,-8.878
49.3,-67.102,-8.454
49.34,-63.417,-7.973
49.37,-60.258,-7.526
49.4,-57.135,-7.068
49.43,-53.731,-6.633
49.47,-50.572,-6.014
49.5,-47.449,-5.464
49.53,-44.08,-5.155
49.56,-41.026,-4.628
49.6,-37.762,-4.055
49.63,-34.113,-3.643
49.66,-30.779,-3.208
49.69,-27.339,-2.566
49.73,-23.373,-1.947
49.76,-19.267,-1.409
49.79,-15.231,-0.916
49.82,-10.809,-0.619
49.86,-6.703,-0.424
49.89,-2.422,-0.286
49.92,0.246,-0.023
49.95,0.597,1.226
49.99,2.667,2.807
50.02,5.931,3.677
50.05,8.142,4.284
50.08,11.195,4.846
50.12,15.512,5.224
50.15,20.496,5.441
50.18,25.83,5.51
50.21,30.954,5.247
50.25,35.271,4.846
50.28,38.57,4.708
50.31,41.623,4.96
50.35,44.395,5.567
50.38,46.817,6.427
50.41,49.168,7.125
50.44,51.66,7.744
50.48,53.871,8.397
50.51,56.363,9.016
50.54,59.206,9.588
50.57,62.048,10.241
50.61,65.453,11.043
50.64,69.278,11.719
50.67,72.858,12.212
50.7,76.788,12.83
50.74,80.93,13.334
50.77,84.65,13.85
50.8,88.615,14.377
50.83,92.686,14.789
50.87,96.161,15.236
50.9,99.635,15.637
50.93,103.18,15.935
50.96,105.988,16.313
51.0,108.865,16.851
51.03,112.199,17.264
51.06,115.007,17.722
51.09,117.85,18.386
51.13,121.078,18.867
51.16,124.026,19.314
51.19,127.01,19.91
51.22,130.449,20.379
51.26,133.572,20.712
51.29,136.555,21.261
51.32,140.03,21.846
51.35,143.188,22.201
51.39,146.207,22.625
51.42,149.541,22.934
51.45,152.383,23.129
51.48,154.875,23.461
51.52,157.753,23.828
51.55,160.35,24.332
51.58,162.842,24.893
51.61,165.72,25.363
51.65,168.562,25.615
51.68,170.844,25.947
51.71,173.441,26.268
51.74,176.003,26.554
51.78,178.249,26.989
51.81,180.775,27.413
51.84,183.337,27.688
51.87,185.548,28.055
51.91,188.005,28.364
51.94,190.356,28.524
51.97,192.216,28.788
52.0,194.287,29.143
52.04,196.463,29.372
52.07,198.323,29.693
52.1,200.288,30.094
52.13,202.394,30.414
52.17,204.324,30.758
52.2,206.255,31.125
52.23,208.36,31.308
52.27,210.431,31.571
52.3,212.537,31.846
52.33,214.537,31.984
52.36,216.397,32.362
52.4,218.433,32.82
52.43,220.503,32.912
52.46,222.188,33.095
52.49,224.013,33.416
52.53,225.908,33.542
52.56,227.522,33.84
52.59,229.102,34.069
52.62,230.927,34.435
52.66,232.962,35.02
52.69,234.962,35.249
52.72,236.963,35.295
52.75,238.718,35.386
52.79,240.437,35.684
52.82,242.262,35.89
52.85,243.912,36.142
52.88,245.456,36.383
52.92,247.211,36.681
52.95,248.965,36.864
52.98,250.229,36.91
53.01,251.668,37.116
53.05,253.142,37.402
53.08,254.44,37.54
53.11,255.949,37.712
53.14,257.458,38.067
53.18,258.897,38.33
53.21,260.477,38.479
53.24,261.951,38.674
53.27,263.179,38.743
53.31,264.442,38.846
53.34,265.706,38.949
53.37,266.548,38.926
53.4,267.566,39.155
53.44,268.794,39.522
53.47,269.847,39.762
53.5,271.146,40.083
53.53,272.62,40.266
53.57,273.848,40.278
53.6,275.041,40.438
53.63,276.41,40.644
53.66,277.568,40.724
53.7,278.656,40.862
53.73,279.744,40.919
53.76,280.551,40.839
53.79,281.218,40.839
53.83,281.674,40.782
53.86,281.885,40.828
53.89,282.341,41.057
53.92,282.657,41.137
53.96,282.832,41.022
53.99,282.832,40.965
54.02,282.587,40.724
54.06,282.552,41.068
54.09,282.622,41.091
54.12,282.622,41.068
54.15,283.078,41.549
54.19,283.569,41.629
54.22,284.026,41.549
54.25,284.517,41.607
54.28,285.184,41.652
54.32,285.5,41.446
54.35,285.605,41.366
54.38,285.921,41.492
54.41,286.026,41.423
54.45,285.886,41.297
54.48,285.605,41.171
54.51,285.043,40.805
54.54,283.955,40.335
54.58,282.411,39.911
54.61,280.551,39.522
54.64,278.551,39.361
54.67,276.726,39.338
54.71,274.831,39.178
54.74,273.076,39.029
54.77,271.391,38.903
54.8,269.566,38.674
54.84,267.812,38.433
54.87,266.373,38.239
54.9,264.828,38.101
54.93,263.46,38.067
54.97,262.407,37.998
55.0,261.354,37.918
55.03,260.442,37.735
55.06,259.424,37.437
55.1,258.301,37.116
55.13,257.072,36.864
55.16,255.844,36.635
55.19,254.475,36.383
55.23,252.931,36.177
55.26,251.422,35.948
55.29,249.667,35.627
55.32,247.983,35.363
55.36,246.088,34.997
55.39,244.087,34.676
55.42,241.982,34.39
55.45,239.911,34.138
55.49,238.051,34.092
55.52,236.156,33.863
55.55,234.296,33.53
55.58,232.471,33.267
55.62,230.611,33.095
55.65,228.961,32.9
55.68,227.277,32.614
55.71,225.627,32.373
55.75,224.083,32.179
55.78,222.574,31.961
55.81,220.749,31.537
55.84,218.819,31.125
55.88,217.099,31.056
55.91,215.45,30.758
55.94,213.625,30.483
55.98,211.87,30.334
56.01,210.15,30.14
56.04,208.466,29.888
56.07,206.57,29.418
56.11,204.43,28.857
56.14,202.113,28.467
56.17,199.727,27.997
56.2,197.13,27.585
56.24,194.603,27.436
56.27,192.216,27.23
56.3,189.9,26.943
56.33,187.654,26.703
56.37,185.443,26.325
56.4,183.057,25.947
56.43,180.846,25.603
56.46,178.67,25.202
56.5,176.318,24.859
56.53,174.002,24.526
56.56,171.581,23.988
56.59,168.843,23.472
56.63,166.071,23.003
56.66,163.052,22.338
56.69,159.683,21.777
56.72,156.419,21.514
56.76,153.191,21.158
56.79,150.102,20.861
56.82,147.154,20.563
56.85,144.241,20.208
56.89,141.469,19.898
56.92,139.082,19.646
56.95,136.555,19.188
56.98,134.099,18.787
57.02,131.888,18.615
57.05,129.536,17.997
57.08,126.939,17.493
57.11,124.307,17.046
57.15,121.429,16.324
57.18,118.271,15.671
57.21,114.832,15.064
57.24,111.217,14.571
57.28,107.567,14.148
57.31,103.952,13.655
57.34,100.302,13.254
57.37,96.652,12.796
57.41,92.932,12.212
57.44,89.352,11.604
57.47,85.597,10.997
57.5,81.842,10.493
57.54,78.052,9.955
57.57,74.507,9.577
57.6,71.068,9.164
57.63,67.699,8.649
57.67,64.435,8.202
57.7,61.101,7.744
57.73,57.837,7.194
57.76,54.468,6.713
57.8,51.274,6.289
57.83,48.151,5.842
57.86,44.817,5.224
57.9,41.412,4.697
57.93,38.078,4.227
57.96,34.674,3.723
57.99,31.129,3.185
58.03,27.55,2.646
58.06,23.759,2.096
58.09,19.759,1.627
58.12,15.933,1.237
58.16,11.967,0.905
58.19,8.002,0.619
58.22,3.86,0.367
58.25,0.281,0.137
58.29,-0.421,-0.836
58.32,-1.79,-2.451
58.35,-5.124,-3.505
58.38,-7.545,-4.17
58.42,-10.353,-4.777
58.45,-14.494,-5.189
58.48,-19.443,-5.441
58.51,-25.023,-5.659
58.55,-30.603,-5.602
58.58,-35.551,-5.224
58.61,-39.447,-5.029
58.64,-42.851,-5.235
58.68,-45.869,-5.716
58.71,-48.466,-6.323
58.74,-50.677,-7.183
58.77,-53.169,-7.973
58.81,-55.591,-8.569
58.84,-57.872,-9.142
58.87,-60.504,-9.611
58.9,-63.101,-10.173
58.94,-66.014,-10.837
58.97,-69.243,-11.467
59.0,-72.647,-11.994
59.03,-76.051,-12.567
59.07,-79.736,-13.151
59.1,-83.597,-13.678
59.13,-87.317,-14.308
59.16,-91.423,-14.892
59.2,-95.319,-15.35
59.23,-98.863,-15.843
59.26,-102.583,-16.255
59.29,-106.233,-16.599
59.33,-109.251,-16.966
59.36,-112.445,-17.412
59.39,-115.709,-17.848
59.42,-118.797,-18.421
59.46,-121.921,-18.925
59.49,-125.044,-19.337
59.52,-128.062,-19.864
59.55,-131.151,-20.368
59.59,-134.309,-20.735
59.62,-137.503,-21.502
59.65,-140.732,-21.937
59.69,-143.89,-22.052
59.72,-146.523,-22.292
59.75,-149.155,-22.648
59.78,-151.927,-23.094
59.82,-154.384,-23.404
59.85,-156.77,-23.77
59.88,-159.367,-24.24
59.91,-162.07,-24.836
59.95,-164.667,-25.191
59.98,-167.369,-25.466
60.01,-169.861,-25.844
60.04,-172.282,-26.176
60.08,-174.774,-26.462
60.11,-177.301,-26.955
60.14,-179.828,-27.436
60.17,-182.635,-27.814
60.21,-185.303,-28.226
60.24,-187.97,-28.593
60.27,-190.672,-28.868
60.3,-193.234,-29.154
60.34,-195.445,-29.326
60.37,-197.797,-29.555
60.4,-200.043,-29.865
60.43,-201.868,-30.071
60.47,-203.763,-30.346
60.5,-205.588,-30.632
60.53,-207.097,-30.758
60.56,-208.781,-30.953
60.6,-210.396,-31.216
60.63,-211.765,-31.48
60.66,-213.449,-31.95
60.69,-215.485,-32.408
60.73,-217.45,-32.751
60.76,-219.485,-33.152
60.79,-221.732,-33.427
60.82,-223.837,-33.576
60.86,-226.154,-33.84
60.89,-228.224,-34.012
60.92,-230.154,-34.252
60.95,-232.295,-34.596
60.99,-234.261,-34.768
61.02,-235.91,-34.905
61.05,-237.384,-35.111
61.08,-239.139,-35.432
61.12,-240.683,-35.604
61.15,-242.157,-35.821
61.18,-243.596,-36.028
61.21,-245.175,-36.383
61.25,-246.86,-36.749
61.28,-248.439,-36.91
61.31,-249.948,-37.036
61.34,-251.527,-37.288
61.38,-253.107,-37.402
61.41,-254.581,-37.574
61.44,-256.055,-37.883
61.47,-257.599,-38.136
61.51,-259.003,-38.319
61.54,-260.512,-38.468
61.57,-261.81,-38.468
61.61,-262.968,-38.571
61.64,-263.986,-38.754
61.67,-265.144,-38.914
61.7,-266.302,-39.098
61.74,-267.355,-39.35
61.77,-268.584,-39.556
61.8,-269.812,-39.819
61.83,-271.111,-40.129
61.87,-272.479,-40.232
61.9,-273.708,-40.369
61.93,-275.041,-40.656
61.96,-276.445,-40.816
62.0,-277.849,-40.942
62.03,-279.077,-40.976
62.06,-280.2,-40.931
62.09,-281.042,-40.896
62.13,-281.569,-40.885
62.16,-281.955,-40.759
62.19,-282.341,-40.896
62.22,-282.622,-41.011
62.26,-282.797,-41.08
62.29,-283.078,-41.08
62.32,-283.218,-41.24
62.35,-283.394,-41.229
62.39,-283.569,-41.194
62.42,-283.85,-41.412
62.45,-284.061,-41.458
62.48,-284.412,-41.446
62.52,-284.622,-41.469
62.55,-284.903,-41.492
62.58,-284.903,-41.332
62.61,-284.727,-41.183
62.65,-284.517,-41.034
62.68,-284.026,-40.85
62.71,-283.464,-40.793
62.74,-282.973,-40.839
62.78,-282.376,-40.793
62.81,-281.744,-40.69
62.84,-281.007,-40.518
62.87,-279.99,-40.243
62.91,-278.972,-39.923
62.94,-277.568,-39.682
62.97,-276.199,-39.59
63.0,-275.076,-39.602
63.04,-274.059,-39.59
63.07,-272.935,-39.419
63.1,-271.777,-39.212
63.13,-270.619,-38.914
63.17,-269.18,-38.514
63.2,-267.776,-38.239
63.23,-266.267,-38.124
63.26,-264.828,-38.021
63.3,-263.565,-37.975
63.33,-262.302,-37.906
63.36,-261.003,-37.654
63.4,-259.74,-37.357
63.43,-258.441,-37.013
63.46,-256.792,-36.692
63.49,-255.247,-36.532
63.53,-253.809,-36.326
63.56,-252.264,-36.119
63.59,-250.65,-35.97
63.62,-249.106,-35.661
63.66,-247.176,-35.306
63.69,-245.386,-35.077
63.72,-243.596,-34.745
63.75,-241.701,-34.481
63.79,-239.876,-34.298
63.82,-238.191,-34.149
63.85,-236.612,-34.103
63.88,-235.033,-33.886
63.92,-233.453,-33.507
63.95,-231.909,-33.255
63.98,-230.365,-33.084
64.01,-228.716,-32.66
64.05,-226.926,-32.339
64.08,-225.171,-32.167
64.11,-223.276,-31.778
64.14,-221.205,-31.423
64.18,-219.17,-31.148
64.21,-216.959,-30.747
64.24,-214.818,-30.518
64.27,-212.712,-30.254
64.31,-210.501,-29.865
64.34,-208.43,-29.853
64.37,-206.57,-29.727
64.4,-204.71,-29.223
64.44,-202.745,-28.857
64.47,-200.674,-28.593
64.5,-198.534,-28.215
64.53,-196.568,-27.974
64.57,-194.673,-27.734
64.6,-192.673,-27.447
64.63,-190.672,-27.184
64.66,-188.602,-26.749
64.7,-186.426,-26.268
64.73,-184.074,-25.855
64.76,-181.583,-25.351
64.79,-178.845,-24.916
64.83,-176.318,-24.675
64.86,-173.756,-24.309
64.89,-170.949,-23.896
64.92,-168.246,-23.507
64.96,-165.369,-23.026
64.99,-162.35,-22.499
65.02,-159.297,-21.995
65.05,-156.349,-21.525
65.09,-153.226,-21.261
65.12,-150.278,-20.941
65.15,-147.505,-20.551
65.18,-144.592,-20.219
65.22,-141.925,-19.921
65.25,-139.433,-19.543
65.28,-136.696,-19.108
65.32,-134.344,-18.89
65.35,-131.993,-18.432
65.38,-129.396,-17.939
65.41,-126.799,-17.527
65.45,-124.167,-16.931
65.48,-121.184,-16.278
65.51,-117.85,-15.637
65.54,-114.41,-15.041
65.58,-110.69,-14.571
65.61,-107.111,-14.125
65.64,-103.531,-13.689
65.67,-100.021,-13.243
65.71,-96.442,-12.727
65.74,-93.073,-12.154
65.77,-89.458,-11.478
65.8,-85.597,-10.906
65.84,-81.912,-10.344
65.87,-78.087,-9.84
65.9,-74.261,-9.359
65.93,-70.682,-8.878
65.97,-67.032,-8.489
66.0,-63.452,-8.099
66.03,-60.083,-7.595
66.06,-56.784,-7.137
66.1,-53.485,-6.713
66.13,-50.362,-6.22
66.16,-47.273,-5.648
66.19,-44.009,-5.201
66.23,-40.746,-4.72
66.26,-37.587,-4.204
66.29,-34.288,-3.723
66.32,-30.849,-3.242
66.36,-27.374,-2.669
66.39,-23.654,-2.062
66.42,-19.653,-1.546
66.45,-15.793,-1.054
66.49,-11.617,-0.653
66.52,-7.405,-0.344
66.55,-2.843,-0.126
66.58,0.211,0.115
66.62,0.632,1.363
66.65,2.808,2.933
66.68,6.036,3.769
66.71,8.247,4.376
66.75,11.301,4.857
66.78,15.407,5.098
66.81,20.25,5.281
66.84,25.444,5.396
66.88,30.603,5.373
66.91,35.271,5.109
66.94,38.991,4.96
66.97,42.22,5.132
67.01,45.097,5.716
67.04,47.729,6.472
67.07,50.046,7.091
67.11,52.397,7.675
67.14,54.643,8.259
67.17,56.819,8.832
67.2,59.311,9.416
67.24,62.048,10.104
67.27,65.172,10.963
67.3,68.752,11.685
67.33,72.507,12.257
67.37,76.472,12.865
67.4,80.508,13.38
67.43,84.65,13.838
67.46,88.58,14.365
67.5,92.862,14.823
67.53,96.582,15.213
67.56,99.951,15.591
67.59,103.355,15.958
67.63,106.479,16.313
67.66,109.216,16.737
67.69,112.164,17.195
67.72,115.112,17.699
67.76,117.885,18.306
67.79,120.903,18.821
67.82,124.026,19.394
67.85,127.22,19.956
67.89,130.414,20.322
67.92,133.678,20.712
67.95,136.801,21.158
67.98,140.03,21.685
68.02,143.259,22.086
68.05,146.101,22.51
68.08,149.014,22.854
68.11,151.962,23.22
68.15,154.594,23.484
68.18,157.191,23.759
68.21,159.929,24.183
68.24,162.456,24.641
68.28,165.123,25.111
68.31,167.966,25.5
68.34,170.528,25.798
68.37,172.879,26.119
68.41,175.476,26.462
68.44,177.792,26.84
68.47,180.354,27.276
68.5,183.022,27.642
68.54,185.408,27.986
68.57,187.865,28.352
68.6,190.427,28.627
68.63,192.673,28.811
68.67,194.778,29.12
68.7,197.025,29.452
68.73,199.165,29.693
68.76,201.131,30.071
68.8,203.307,30.449
68.83,205.307,30.609
68.86,206.992,30.838
68.89,208.992,31.056
68.93,210.782,31.228
68.96,212.431,31.583
68.99,214.326,31.927
69.03,216.257,32.259
69.06,218.257,32.786
69.09,220.293,32.958
69.12,222.258,32.958
69.16,223.978,33.324
69.19,225.908,33.611
69.22,227.803,33.782
69.25,229.382,34.034
69.29,231.313,34.39
69.32,233.453,34.802
69.35,235.349,35.054
69.38,237.138,35.191
69.42,238.928,35.249
69.45,240.613,35.604
69.48,242.332,35.844
69.51,244.087,35.959
69.55,245.596,36.2
69.58,247.141,36.543
69.61,248.93,36.715
69.64,250.264,36.795
69.68,251.598,37.024
69.71,253.142,37.299
69.74,254.546,37.494
69.77,255.914,37.723
69.81,257.564,38.09
69.84,259.108,38.353
69.87,260.617,38.433
69.9,262.161,38.536
69.94,263.495,38.582
69.97,264.583,38.64
70.0,265.776,38.708
70.03,266.618,38.8
70.07,267.461,39.063
70.1,268.689,39.464
70.13,269.917,39.682
70.16,271.146,39.9
70.2,272.549,40.072
70.23,273.813,40.106
70.26,275.006,40.335
70.29,276.445,40.576
70.33,277.708,40.656
70.36,278.796,40.747
70.39,279.849,40.782
70.42,280.762,40.702
70.46,281.148,40.644
70.49,281.604,40.61
70.52,281.885,40.679
70.55,282.13,40.908
70.59,282.516,41.011
70.62,282.762,40.954
70.65,282.938,40.976
70.68,282.938,40.828
70.72,283.218,41.206
70.75,283.534,41.229
70.78,283.745,41.16
70.82,284.377,41.572
70.85,284.868,41.503
70.88,285.149,41.366
70.91,285.535,41.4
70.95,285.78,41.4
70.98,285.815,41.16
71.01,285.675,41.022
71.04,285.5,41.068
71.08,285.254,41.057
71.11,285.289,41.286
71.14,285.886,41.847
71.17,286.693,42.191
71.21,287.535,42.305
71.24,288.588,42.386
71.27,289.5,42.271
71.3,290.132,41.996
71.34,290.167,41.595
71.37,289.465,40.919
71.4,287.921,40.026
71.43,285.324,39.075
71.47,281.744,38.239
71.5,277.638,37.654
71.53,273.392,37.299
71.56,269.215,37.208
71.6,265.285,37.46
71.63,262.337,37.631
71.66,260.126,37.517
71.69,257.739,37.517
71.73,256.195,37.517
71.76,255.458,37.345
71.79,254.581,37.219
71.82,253.738,37.105
71.86,253.458,36.875
71.89,252.966,36.555
71.92,251.984,36.062
71.95,250.615,35.421
71.99,248.79,34.882
72.02,246.649,34.435
72.05,244.228,34.138
72.08,241.771,33.908
72.12,239.349,33.874
72.15,237.419,33.828
72.18,235.384,33.748
72.21,233.594,33.702
72.25,232.401,33.588
72.28,231.102,33.393
72.31,229.663,33.152
72.34,228.645,32.889
72.38,227.347,32.499
72.41,225.592,32.064
72.44,223.943,31.732
72.47,222.012,31.228
72.51,219.661,30.804
72.54,217.52,30.586
72.57,215.204,30.254
72.6,212.852,30.059
72.64,210.782,29.956
72.67,208.746,29.658
72.7,206.395,29.383
72.74,204.5,29.12
72.77,202.57,28.673
72.8,200.359,28.398
72.83,198.393,28.123
72.87,196.358,27.791
72.9,194.252,27.677
72.93,192.427,27.459
72.96,190.637,26.921
73.0,188.321,26.474
73.03,185.97,26.061
73.06,183.618,25.512
73.09,180.846,25.156
73.13,178.319,24.904
73.16,175.967,24.641
73.19,173.405,24.354
73.22,170.738,23.782
73.26,168.141,23.243
73.29,165.123,22.877
73.32,161.964,22.35
73.35,158.981,21.731
73.39,155.788,21.456
73.42,152.734,21.204
73.45,149.927,20.712
73.48,146.768,20.276
73.52,143.575,19.921
73.55,141.083,19.623
73.58,137.328,18.363
73.61,131.607,15.797
73.65,125.044,14.045
73.68,118.095,13.426
73.71,111.357,13.414
73.74,105.742,13.357
73.78,100.618,13.827
73.81,97.424,14.995
73.84,96.968,15.923
73.87,97.53,16.267
73.91,98.196,16.553
73.94,100.127,16.496
73.97,102.127,15.774
74.0,102.864,14.984
74.04,102.759,14.056
74.07,101.601,12.773
74.1,99.039,11.536
74.13,95.248,10.505
74.17,90.195,9.68
74.2,84.755,8.981
74.23,79.245,8.489
74.26,73.454,8.099
74.3,67.699,7.744
74.33,62.645,7.446
74.36,58.293,7.206
74.39,53.941,7.171
74.43,50.748,7.045
74.46,48.291,6.644
74.49,45.624,6.369
74.52,43.378,6.049
74.56,41.553,5.51
74.59,39.377,4.949
74.62,36.955,4.41
74.66,34.428,3.757
74.69,31.445,3.001
74.72,27.936,2.291
74.75,24.075,1.592
74.79,19.653,0.974
74.82,15.021,0.573
74.85,10.388,0.241
74.88,5.51,0.011
74.92,0.948,0.011
74.95,-0.386,-0.653
74.98,-1.369,-2.28
75.01,-4.597,-3.482
75.05,-7.124,-4.078
75.08,-9.511,-4.697
75.11,-13.336,-5.178
75.14,-18.109,-5.51
75.18,-23.795,-5.774
75.21,-29.55,-5.774
75.24,-34.709,-5.43
75.27,-38.956,-5.121
75.31,-42.395,-5.075
75.34,-44.992,-5.522
75.37,-47.554,-6.255
75.4,-50.151,-6.747
75.44,-52.116,-7.309
75.47,-53.906,-8.007
75.5,-56.117,-8.66
75.53,-58.574,-9.359
75.57,-61.382,-10.218
75.6,-64.996,-10.986
75.63,-68.646,-11.708
75.66,-72.577,-12.383
75.7,-76.894,-12.887
75.73,-80.965,-13.392
75.76,-85.001,-13.941
75.79,-89.388,-14.377
75.83,-93.248,-14.72
75.86,-96.828,-15.133
75.89,-100.513,-15.476
75.92,-103.531,-15.728
75.96,-106.198,-16.072
75.99,-109.216,-16.485
76.02,-111.954,-16.885
76.05,-114.235,-17.39
76.09,-117.007,-17.997
76.12,-119.92,-18.569
76.15,-122.658,-19.062
76.18,-125.781,-19.6
76.22,-129.08,-20.116
76.25,-132.133,-20.505
76.28,-135.573,-21.044
76.31,-139.082,-21.651
76.35,-142.311,-21.995
76.38,-145.786,-22.384
76.41,-149.26,-22.739
76.45,-152.032,-22.923
76.48,-154.875,-23.232
76.51,-157.578,-23.553
76.54,-159.894,-23.919
76.58,-162.491,-24.354
76.61,-165.018,-24.607
76.64,-167.123,-24.904
76.67,-169.334,-25.363
76.71,-171.686,-25.695
76.74,-173.862,-26.038
76.77,-176.353,-26.669
76.8,-179.196,-27.173
76.84,-181.828,-27.608
76.87,-184.741,-28.112
76.9,-187.724,-28.444
76.93,-190.392,-28.696
76.97,-193.129,-29.017
77.0,-195.796,-29.097
77.03,-197.937,-29.303
77.06,-200.078,-29.716
77.1,-202.254,-29.888
77.13,-204.044,-30.025
77.16,-205.693,-30.357
77.19,-207.378,-30.46
77.23,-208.922,-30.621
77.26,-210.361,-30.987
77.29,-212.045,-31.285
77.32,-213.8,-31.675
77.36,-215.625,-32.167
77.39,-217.731,-32.442
77.42,-219.766,-32.751
77.45,-221.837,-33.072
77.49,-223.978,-33.244
77.52,-226.118,-33.542
77.55,-228.084,-33.817
77.58,-230.049,-33.954
77.62,-232.12,-34.252
77.65,-234.015,-34.504
77.68,-235.77,-34.619
77.71,-237.524,-34.859
77.75,-239.244,-35.146
77.78,-240.894,-35.375
77.81,-242.719,-35.718
77.84,-244.403,-36.074
77.88,-246.368,-36.429
77.91,-248.299,-36.658
77.94,-249.983,-36.772
77.97,-251.633,-36.875
78.01,-253.072,-36.818
78.04,-254.16,-36.818
78.07,-255.283,-37.047
78.1,-256.546,-37.345
78.14,-257.634,-37.551
78.17,-258.687,-37.815
78.2,-260.02,-38.044
78.23,-261.073,-38.055
78.27,-262.337,-38.307
78.3,-263.67,-38.594
78.33,-265.039,-38.731
78.37,-266.302,-38.972
78.4,-267.741,-39.167
78.43,-268.97,-39.155
78.46,-270.093,-39.224
78.5,-271.286,-39.419
78.53,-272.444,-39.648
78.56,-273.672,-39.934
78.59,-275.076,-40.186
78.63,-276.48,-40.369
78.66,-277.814,-40.518
78.69,-279.077,-40.541
78.72,-280.095,-40.518
78.76,-280.797,-40.404
78.79,-281.288,-40.369
78.82,-281.85,-40.472
78.85,-282.201,-40.507
78.89,-282.552,-40.633
78.92,-282.903,-40.759
78.95,-283.148,-40.839
78.98,-283.464,-40.885
79.02,-283.815,-40.965
79.05,-283.955,-40.885
79.08,-283.99,-40.759
79.11,-284.096,-40.782
79.15,-284.201,-40.873
79.18,-284.201,-40.85
79.21,-284.131,-40.885
79.24,-284.131,-40.85
79.28,-283.99,-40.747
79.31,-283.78,-40.553
79.34,-283.359,-40.346
79.37,-282.832,-40.324
79.41,-282.411,-40.415
79.44,-281.92,-40.358
79.47,-281.393,-40.312
79.5,-280.832,-40.175
79.54,-280.13,-39.819
79.57,-278.972,-39.51
79.6,-277.744,-39.304
79.63,-276.515,-39.121
79.67,-275.392,-39.167
79.7,-274.339,-39.178
79.73,-273.216,-38.995
79.76,-272.058,-38.846
79.8,-270.9,-38.571
79.83,-269.391,-38.101
79.86,-267.917,-37.895
79.89,-266.583,-37.803
79.93,-265.039,-37.666
79.96,-263.811,-37.712
79.99,-262.723,-37.62
80.02,-261.459,-37.299
80.06,-260.196,-37.013
80.09,-258.652,-36.669
80.12,-257.178,-36.36
80.16,-255.739,-36.257
80.19,-254.16,-36.062
80.22,-252.686,-35.902
80.25,-251.387,-35.856
80.29,-249.843,-35.466
80.32,-248.158,-35.02
80.35,-246.509,-34.779
80.38,-244.579,-34.435
80.42,-242.613,-34.149
80.45,-240.683,-34.012
80.48,-238.893,-33.805
80.51,-237.173,-33.656
80.55,-235.384,-33.53
80.58,-233.664,-33.164
80.61,-232.155,-32.9
80.64,-230.54,-32.728
80.68,-228.751,-32.328
80.71,-226.926,-32.007
80.74,-225.066,-31.789
80.77,-223.206,-31.457
80.81,-221.205,-31.113
80.84,-219.029,-30.815
80.87,-216.959,-30.449
80.9,-214.853,-30.231
80.94,-212.852,-30.059
80.97,-210.677,-29.658
81.0,-208.781,-29.498
81.03,-206.816,-29.246
81.07,-204.64,-28.811
81.1,-202.464,-28.421
81.13,-200.253,-28.043
81.16,-198.148,-27.883
81.2,-196.252,-27.757
81.23,-194.357,-27.562
81.26,-192.603,-27.344
81.29,-190.953,-27.173
81.33,-189.058,-26.749
81.36,-187.057,-26.187
81.39,-184.917,-25.706
81.42,-182.425,-25.133
81.46,-179.723,-24.595
81.49,-177.055,-24.274
81.52,-174.213,-23.919
81.55,-171.335,-23.53
81.59,-168.422,-23.232
81.62,-165.509,-22.797
81.65,-162.456,-22.292
81.68,-159.332,-21.777
81.72,-156.349,-21.422
81.75,-153.331,-21.17
81.78,-150.488,-20.689
81.81,-147.61,-20.391
81.85,-144.908,-20.093
81.88,-142.311,-19.749
81.91,-139.644,-19.28
81.94,-137.012,-18.879
81.98,-134.625,-18.592
82.01,-132.063,-18.123
82.04,-129.291,-17.619
82.08,-126.624,-17.218
82.11,-123.711,-16.691
82.14,-120.587,-16.049
82.17,-117.393,-15.396
82.21,-113.919,-14.858
82.24,-110.304,-14.4
82.27,-106.76,-13.953
82.3,-103.285,-13.54
82.34,-99.776,-13.174
82.37,-96.407,-12.716
82.4,-92.967,-12.166
82.43,-89.423,-11.559
82.47,-85.878,-10.974
82.5,-82.333,-10.333
82.53,-78.578,-9.737
82.56,-74.928,-9.245
82.6,-71.243,-8.775
82.63,-67.453,-8.294
82.66,-63.908,-7.904
82.69,-60.504,-7.492
82.73,-57.03,-7.011
82.76,-53.766,-6.564
82.79,-50.537,-6.06
82.82,-47.238,-5.59
82.86,-43.974,-5.144
82.89,-40.781,-4.628
82.92,-37.552,-4.158
82.95,-34.218,-3.769
82.99,-31.059,-3.299
83.02,-27.655,-2.726
83.05,-24.04,-2.108
83.08,-20.25,-1.524
83.12,-16.249,-1.02
83.15,-11.967,-0.619
83.18,-7.756,-0.252
83.21,-3.053,-0.034
83.25,0.211,0.206
83.28,0.597,1.466
83.31,3.018,3.059
83.34,6.142,3.838
83.38,8.318,4.33
83.41,11.23,4.651
83.44,14.915,4.811
83.47,19.513,5.189
83.51,24.742,5.499
83.54,30.077,5.476
83.57,34.885,5.178
83.6,38.675,5.029
83.64,41.939,5.144
83.67,44.746,5.693
83.7,47.519,6.53
83.73,50.221,7.24
83.77,52.783,7.881
83.8,55.205,8.592
83.83,58.012,9.302
83.87,60.925,9.886
83.9,64.014,10.47
83.93,67.453,11.204
83.96,70.892,11.685
84.0,74.086,11.925
84.03,77.49,12.441
84.06,80.93,12.899
84.09,84.088,13.311
84.13,87.457,13.792
84.16,90.826,14.354
84.19,93.985,14.904
84.22,97.249,15.35
84.26,100.653,15.82
84.29,103.882,16.347
84.32,107.321,16.851
84.35,110.69,17.275
84.39,113.989,17.939
84.42,117.534,18.627
84.45,121.184,19.051
84.48,124.763,19.589
84.52,128.378,20.127
84.55,131.993,20.345
84.58,135.081,20.7
84.61,138.31,21.261
84.65,141.293,21.479
84.68,143.996,21.892
84.71,146.698,22.201
84.74,149.19,22.373
84.78,151.576,22.762
84.81,153.893,23.14
84.84,156.279,23.507
84.87,158.63,24.114
84.91,161.368,24.664
84.94,164.07,25.076
84.97,166.878,25.512
85.0,169.65,25.855
85.04,172.388,26.061
85.07,174.985,26.451
85.1,177.792,26.829
85.13,180.53,27.184
85.17,183.162,27.619
85.2,185.794,28.043
85.23,188.356,28.352
85.26,190.848,28.65
85.3,193.199,28.857
85.33,195.515,29.051
85.36,197.656,29.338
85.39,199.516,29.624
85.43,201.482,29.899
85.46,203.447,30.277
85.49,205.202,30.472
85.52,206.992,30.575
85.56,208.676,30.815
85.59,210.22,31.159
85.62,211.94,31.491
85.65,213.835,31.892
85.69,215.8,32.282
85.72,217.906,32.637
85.75,219.977,32.843
85.79,221.907,32.912
85.82,223.837,33.118
85.85,225.732,33.427
85.88,227.487,33.668
85.92,229.417,33.908
85.95,231.242,34.275
85.98,233.102,34.653
86.01,235.033,34.882
86.05,236.928,35.111
86.08,238.998,35.524
86.11,240.964,35.718
86.14,242.789,35.821
86.18,244.368,35.913
86.21,246.017,36.2
86.24,247.772,36.474
86.27,249.211,36.52
86.31,250.404,36.566
86.34,251.738,36.875
86.37,253.072,37.139
86.4,254.37,37.334
86.44,255.879,37.666
86.47,257.388,37.975
86.5,258.968,38.158
86.53,260.547,38.33
86.57,261.916,38.388
86.6,263.284,38.433
86.63,264.618,38.617
86.66,265.671,38.743
86.7,266.689,38.8
86.73,267.776,39.063
86.76,269.005,39.338
86.79,270.198,39.51
86.83,271.461,39.819
86.86,272.725,39.923
86.89,273.918,40.003
86.92,275.217,40.198
86.96,276.41,40.404
86.99,277.673,40.495
87.02,278.796,40.656
87.05,279.779,40.61
87.09,280.446,40.553
87.12,281.183,40.621
87.15,281.639,40.598
87.18,281.92,40.679
87.22,282.376,40.919
87.25,282.727,40.942
87.28,283.078,40.942
87.31,283.359,40.976
87.35,283.534,40.793
87.38,283.71,41.011
87.41,284.026,41.125
87.44,284.236,41.08
87.48,284.517,41.263
87.51,285.043,41.435
87.54,285.359,41.366
87.57,285.71,41.343
87.61,285.991,41.309
87.64,286.061,41.125
87.67,285.991,41.103
87.71,286.307,41.469
87.74,286.798,41.652
87.77,287.219,41.755
87.8,287.57,41.687
87.84,287.43,41.274
87.87,286.868,40.759
87.9,285.605,40.083
87.93,283.604,39.235
87.97,280.937,38.766
88.0,278.165,38.479
88.03,275.006,38.044
88.06,271.918,38.01
88.1,269.145,38.021
88.13,266.478,37.746
88.16,264.091,37.643
88.19,262.021,37.631
88.23,260.301,37.563
88.26,259.319,37.654
88.29,258.582,37.723
88.32,258.125,37.654
88.36,257.809,37.597
88.39,257.494,37.345
88.42,257.072,37.001
88.45,256.511,36.795
88.49,255.704,36.44
88.52,254.616,36.051
88.55,253.352,35.902
88.58,251.984,35.661
88.62,250.369,35.329
88.65,248.615,35.1
88.68,246.79,34.836
88.71,244.824,34.561
88.75,242.754,34.332
88.78,240.648,34.023
88.81,238.718,33.966
88.84,237.033,33.897
88.88,235.173,33.45
88.91,233.208,33.072
88.94,231.453,32.958
88.97,229.593,32.625
89.01,227.592,32.19
89.04,225.697,31.95
89.07,223.732,31.697
89.1,221.661,31.377
89.14,219.661,31.113
89.17,217.555,30.793
89.2,215.52,30.586
89.23,213.695,30.357
89.27,211.765,30.025
89.3,209.834,29.762
89.33,208.22,29.762
89.36,206.606,29.544
89.4,204.921,29.189
89.43,203.482,29.04
89.46,201.903,28.776
89.5,200.113,28.387
89.53,198.463,28.043
89.56,196.603,27.642
89.59,194.498,27.264
89.63,192.322,26.932
89.66,190.041,26.485
89.69,187.549,26.038
89.72,184.952,25.66
89.76,182.109,25.145
89.79,179.126,24.71
89.82,176.248,24.412
89.85,173.37,24.08
89.89,170.422,23.747
89.92,167.685,23.438
89.95,165.158,23.014
89.98,162.315,22.51
90.02,159.578,21.983
90.05,156.77,21.422
90.08,153.647,20.998
90.11,150.629,20.735
90.15,147.716,20.334
90.18,144.838,20.07
90.21,142.276,19.978
90.24,139.679,19.337
90.28,136.906,18.879
90.31,134.38,18.741
90.34,131.853,18.226
90.37,128.905,17.47
90.41,125.851,17.069
90.44,123.044,16.553
90.47,119.745,15.946
90.5,116.411,15.511
90.54,113.252,15.11
90.57,110.094,14.858
90.6,107.181,14.606
90.63,104.689,14.216
90.67,101.917,13.827
90.7,98.898,13.369
90.73,96.161,12.739
90.76,93.002,12.04
90.8,89.388,11.284
90.83,85.703,10.493
90.86,81.491,9.806
90.89,77.139,9.336
90.93,72.963,8.683
90.96,68.576,8.156
90.99,64.435,7.927
91.02,60.855,7.503
91.06,57.03,6.988
91.09,53.134,6.621
91.12,49.905,6.266
91.15,46.817,5.739
91.19,43.518,5.155
91.22,40.43,4.72
91.25,37.411,4.342
91.28,34.288,3.975
91.32,31.375,3.505
91.35,28.287,2.887
91.38,24.812,2.28
91.42,21.057,1.638
91.45,17.091,0.997
91.48,12.564,0.584
91.51,8.142,0.275
91.55,3.229,0.034
91.58,-0.14,-0.229
91.61,-0.526,-1.535
91.64,-2.983,-3.15
91.68,-6.282,-4.078
91.71,-8.669,-4.617
91.74,-11.967,-4.903
91.77,-16.144,-5.075
91.81,-20.987,-5.338
91.84,-26.357,-5.613
91.87,-31.761,-5.487
91.9,-36.288,-5.144
91.94,-39.728,-5.063
91.97,-42.886,-5.384
92.0,-45.659,-5.911
92.03,-47.835,-6.438
92.07,-50.081,-7.114
92.1,-52.362,-7.595
92.13,-54.082,-8.088
92.16,-56.258,-8.763
92.2,-58.82,-9.394
92.23,-61.557,-10.173
92.26,-64.751,-10.94
92.29,-68.471,-11.559
92.33,-72.261,-12.361
92.36,-76.578,-12.991
92.39,-80.93,-13.392
92.42,-84.93,-13.93
92.46,-89.317,-14.48
92.49,-93.739,-14.892
92.52,-97.214,-15.167
92.55,-100.758,-15.602
92.59,-104.303,-15.9
92.62,-107.005,-16.233
92.65,-109.743,-16.679
92.68,-112.691,-17.103
92.72,-115.323,-17.676
92.75,-117.85,-18.283
92.78,-120.903,-18.81
92.81,-123.991,-19.452
92.85,-127.08,-19.887
92.88,-130.414,-20.311
92.91,-133.713,-20.883
92.94,-137.012,-21.514
92.98,-140.837,-21.937
93.01,-144.171,-22.235
93.04,-146.979,-22.315
93.07,-149.997,-22.522
93.11,-152.734,-23.06
93.14,-155.086,-23.301
93.17,-157.683,-23.621
93.21,-160.28,-24.125
93.24,-162.631,-24.698
93.27,-165.334,-25.099
93.3,-168.001,-25.443
93.34,-170.352,-25.809
93.37,-173.019,-26.119
93.4,-175.476,-26.313
93.43,-177.722,-26.806
93.47,-180.495,-27.333
93.5,-183.267,-27.734
93.53,-185.689,-28.146
93.56,-188.496,-28.547
93.6,-191.304,-28.788
93.63,-193.48,-28.96
93.66,-195.796,-29.143
93.69,-198.183,-29.383
93.73,-200.008,-29.67
93.76,-201.903,-29.956
93.79,-204.079,-30.22
93.82,-205.588,-30.449
93.86,-207.167,-30.632
93.89,-208.887,-30.861
93.92,-210.255,-31.079
93.95,-211.94,-31.434
93.99,-213.905,-31.858
94.02,-215.73,-32.213
94.05,-217.696,-32.637
94.08,-219.907,-33.049
94.12,-221.872,-33.198
94.15,-223.802,-33.393
94.18,-226.048,-33.714
94.21,-227.873,-33.874
94.25,-229.628,-34.138
94.28,-231.734,-34.447
94.31,-233.699,-34.733
94.34,-235.524,-35.043
94.38,-237.419,-35.02
94.41,-239.104,-35.111
94.44,-240.543,-35.432
94.47,-242.192,-35.661
94.51,-243.596,-35.707
94.54,-245.0,-36.142
94.57,-246.825,-36.474
94.6,-248.264,-36.486
94.64,-249.562,-36.726
94.67,-251.212,-37.001
94.7,-252.615,-37.082
94.73,-254.019,-37.414
94.77,-255.739,-37.792
94.8,-257.423,-37.918
94.83,-258.862,-38.181
94.86,-260.582,-38.376
94.9,-262.021,-38.262
94.93,-263.144,-38.456
94.96,-264.548,-38.697
94.99,-265.741,-38.674
95.03,-266.689,-38.903
95.06,-267.952,-39.189
95.09,-269.145,-39.315
95.13,-270.409,-39.739
95.16,-271.883,-40.014
95.19,-273.357,-39.934
95.22,-274.445,-40.163
95.26,-275.813,-40.404
95.29,-277.112,-40.404
95.32,-278.235,-40.633
95.35,-279.218,-40.724
95.39,-280.235,-40.576
95.42,-280.867,-40.61
95.45,-281.288,-40.633
95.48,-281.674,-40.472
95.52,-281.885,-40.679
95.55,-282.236,-40.896
95.58,-282.622,-40.919
95.61,-282.938,-40.999
95.65,-283.183,-41.057
95.68,-283.534,-41.034
95.71,-283.675,-41.011
95.74,-283.604,-40.816
95.78,-283.71,-40.919
95.81,-284.166,-41.412
95.84,-284.552,-41.526
95.87,-284.833,-41.297
95.91,-285.114,-41.263
95.94,-285.289,-41.16
95.97,-285.149,-40.885
96.0,-284.727,-40.69
96.04,-284.236,-40.644
96.07,-283.815,-40.656
96.1,-283.183,-40.576
96.13,-282.376,-40.324
96.17,-281.393,-40.163
96.2,-280.341,-40.037
96.23,-279.182,-39.659
96.26,-277.744,-39.43
96.3,-276.515,-39.476
96.33,-275.427,-39.304
96.36,-274.129,-39.178
96.39,-273.006,-39.247
96.43,-271.988,-38.937
96.46,-270.584,-38.628
96.49,-269.215,-38.422
96.52,-267.847,-38.055
96.56,-266.338,-37.906
96.59,-264.969,-37.861
96.62,-263.741,-37.631
96.65,-262.407,-37.563
96.69,-261.073,-37.414
96.72,-259.775,-37.047
96.75,-258.371,-36.761
96.78,-256.792,-36.543
96.82,-255.353,-36.257
96.85,-253.738,-36.074
96.88,-252.124,-35.982
96.92,-250.72,-35.764
96.95,-249.106,-35.443
96.98,-247.211,-35.065
97.01,-245.351,-34.642
97.05,-243.385,-34.286
97.08,-241.174,-34.126
97.11,-239.279,-33.897
97.14,-237.489,-33.84
97.18,-235.945,-33.931
97.21,-234.506,-33.599
97.24,-232.997,-33.198
97.27,-231.383,-33.107
97.31,-230.049,-32.889
97.34,-228.68,-32.499
97.37,-226.961,-32.179
97.4,-225.241,-31.904
97.44,-223.521,-31.594
97.47,-221.451,-31.308
97.5,-219.485,-30.953
97.53,-217.45,-30.655
97.57,-215.239,-30.472
97.6,-213.133,-30.151
97.63,-211.098,-29.739
97.66,-209.027,-29.727
97.7,-207.097,-29.613
97.73,-205.307,-29.212
97.76,-203.447,-28.857
97.79,-201.411,-28.49
97.83,-199.551,-28.055
97.86,-197.34,-27.688
97.89,-195.059,-27.367
97.92,-192.989,-27.069
97.96,-190.707,-26.76
97.99,-188.286,-26.302
98.02,-186.005,-25.878
98.05,-183.408,-25.42
98.09,-180.495,-24.939
98.12,-177.898,-24.664
98.15,-175.336,-24.435
98.18,-172.528,-24.125
98.22,-170.107,-23.816
98.25,-167.615,-23.369
98.28,-164.772,-22.888
98.31,-162.175,-22.464
98.35,-159.402,-21.914
98.38,-156.314,-21.468
98.41,-153.647,-21.273
98.44,-150.945,-20.838
98.48,-147.786,-20.345
98.51,-145.119,-20.082
98.54,-142.346,-19.646
98.57,-139.398,-19.234
98.61,-136.696,-18.925
98.64,-134.38,-18.661
98.67,-131.642,-18.168
98.7,-128.975,-17.859
98.74,-126.553,-17.458
98.77,-123.711,-16.84
98.8,-120.833,-16.381
98.84,-117.885,-15.728
98.87,-114.41,-15.064
98.9,-110.971,-14.583
98.93,-107.637,-14.102
98.97,-104.057,-13.655
99.0,-100.478,-13.243
99.03,-97.144,-12.693
99.06,-93.494,-12.12
99.1,-89.738,-11.513
99.13,-86.124,-10.791
99.16,-82.053,-10.195
99.19,-78.052,-9.863
99.23,-74.402,-9.256
99.26,-70.576,-8.615
99.29,-66.716,-8.42
99.32,-63.452,-7.962
99.36,-59.943,-7.354
99.39,-56.398,-6.988
99.42,-53.239,-6.587
99.45,-50.011,-6.026
99.49,-46.571,-5.441
99.52,-43.448,-5.052
99.55,-40.219,-4.651
99.58,-36.955,-4.204
99.62,-33.832,-3.712
99.65,-30.603,-3.139
99.68,-26.953,-2.555
99.71,-23.268,-1.97
99.75,-19.337,-1.432
99.78,-15.266,-0.951
99.81,-11.055,-0.573
99.84,-6.914,-0.252
99.88,-2.422,-0.08
99.91,0.351,0.206
99.94,0.737,1.489
99.97,3.159,2.967
100.01,6.212,3.723
100.04,8.388,4.342
100.07,11.476,4.834
100.1,15.617,5.132
100.14,20.601,5.373
100.17,25.97,5.476
100.2,31.094,5.281
100.23,35.551,4.903
100.27,39.131,4.823
100.3,42.184,5.063
100.33,44.711,5.579
100.36,47.133,6.346
100.4,49.449,7.022
100.43,51.485,7.652
100.46,53.696,8.259
100.49,56.047,8.763
100.53,58.434,9.348
100.56,61.311,10.069
100.59,64.575,10.78
100.62,68.085,11.627
100.66,72.086,12.395
100.69,76.297,12.956
100.72,80.579,13.54
100.76,85.001,14.056
100.79,89.423,14.526
100.82,93.634,14.938
100.85,97.565,15.35
100.89,101.285,15.74
100.92,104.619,16.141
100.95,107.602,16.485
100.98,110.48,16.84
101.02,113.287,17.252
101.05,115.884,17.722
101.08,118.622,18.168
101.11,121.324,18.695
101.15,124.167,19.303
101.18,127.115,19.704
101.21,130.063,20.253
101.24,133.221,20.803
101.28,136.38,21.158
101.31,139.749,21.743
101.34,143.013,22.166
101.37,146.101,22.35
101.41,149.12,22.682
101.44,151.927,23.129
101.47,154.77,23.392
101.5,157.367,23.724
101.54,159.929,24.16
101.57,162.421,24.526
101.6,165.053,24.939
101.63,167.58,25.34
101.67,170.036,25.626
101.7,172.493,25.958
101.73,174.844,26.359
101.76,177.301,26.772
101.8,180.038,27.299
101.83,182.776,27.757
101.86,185.443,28.135
101.89,188.216,28.524
101.93,190.848,28.811
101.96,193.269,28.937
101.99,195.691,29.189
102.02,197.902,29.429
102.06,199.902,29.635
102.09,201.868,30.002
102.12,203.868,30.346
102.15,205.553,30.472
102.19,207.272,30.747
102.22,208.887,30.953
102.25,210.466,31.136
102.28,212.291,31.56
102.32,214.116,31.858
102.35,215.836,32.156
102.38,217.906,32.763
102.41,220.047,32.958
102.45,221.872,32.981
102.48,223.943,33.336
102.51,225.838,33.53
102.55,227.628,33.645
102.58,229.628,34.218
102.61,231.699,34.424
102.64,233.418,34.527
102.68,235.419,34.917
102.71,237.209,34.997
102.74,238.858,35.157
102.77,240.543,35.478
102.81,242.192,35.638
102.84,243.771,35.879
102.87,245.456,36.257
102.9,247.176,36.52
102.94,248.86,36.692
102.97,250.369,36.83
103.0,251.808,36.933
103.03,253.212,37.208
103.07,254.756,37.505
103.1,256.16,37.609
103.13,257.634,37.964
103.16,259.283,38.353
103.2,260.793,38.307
103.23,262.091,38.399
103.26,263.495,38.617
103.29,264.618,38.571
103.33,265.776,38.72
103.36,266.829,38.914
103.39,267.812,38.972
103.42,268.97,39.384
103.46,270.233,39.762
103.49,271.426,39.808
103.52,272.69,40.003
103.55,274.023,40.163
103.59,275.146,40.175
103.62,276.48,40.392
103.65,277.673,40.598
103.68,278.761,40.621
103.72,279.779,40.702
103.75,280.621,40.736
103.78,281.218,40.621
103.81,281.639,40.564
103.85,281.99,40.69
103.88,282.376,40.862
103.91,282.762,40.942
103.94,283.043,40.954
103.98,283.289,41.011
104.01,283.745,41.183
104.04,284.201,41.343
104.07,284.341,41.057
104.11,284.587,41.103
104.14,285.149,41.538
104.17,285.429,41.309
104.2,285.535,41.103
104.24,285.535,41.183
104.27,285.464,41.091
104.3,285.254,40.828
104.33,284.833,40.736
104.37,284.622,40.942
104.4,284.447,41.16
104.43,284.412,41.137
104.47,284.271,41.045
104.5,283.815,40.816
104.53,283.043,40.335
104.56,281.815,39.739
104.6,280.13,39.293
104.63,278.13,38.937
104.66,275.989,38.766
104.69,273.953,38.72
104.73,271.953,38.64
104.76,270.058,38.422
104.79,268.092,38.342
104.82,266.443,38.181
104.86,264.969,37.952
104.89,263.67,37.895
104.92,262.442,37.883
104.95,261.6,37.78
104.99,260.933,37.792
105.02,260.266,37.757
105.05,259.705,37.448
105.08,259.003,37.173
105.12,258.055,36.875
105.15,256.862,36.509
105.18,255.528,36.211
105.21,254.054,35.97
105.25,252.405,35.661
105.28,250.545,35.352
105.31,248.509,35.031
105.34,246.404,34.71
105.38,244.298,34.561
105.41,242.087,34.298
105.44,240.016,34.023
105.47,238.226,34.08
105.51,236.436,33.851
105.54,234.612,33.416
105.57,232.857,33.21
105.6,230.891,32.923
105.64,229.066,32.488
105.67,227.242,32.213
105.7,225.311,32.041
105.73,223.416,31.663
105.77,221.591,31.48
105.8,219.696,31.285
105.83,217.801,30.896
105.86,216.292,30.884
105.9,214.642,30.758
105.93,213.098,30.518
105.96,211.905,30.46
105.99,210.536,30.277
106.03,209.132,29.945
106.06,207.799,29.578
106.09,205.974,28.902
106.12,203.728,28.375
106.16,201.411,27.963
106.19,198.604,27.425
106.22,195.691,27.069
106.26,192.989,26.932
106.29,190.181,26.588
106.32,187.444,26.325
106.35,184.917,26.119
106.39,182.39,25.695
106.42,179.898,25.363
106.45,177.687,25.019
106.48,175.301,24.641
106.52,172.949,24.377
106.55,170.738,23.954
106.58,168.282,23.358
106.61,165.544,22.945
106.65,162.842,22.453
106.68,159.824,21.777
106.71,156.735,21.468
106.74,153.787,21.17
106.78,150.804,20.712
106.81,147.751,20.471
106.84,145.084,20.219
106.87,142.311,19.749
106.91,139.363,19.28
106.94,136.871,19.016
106.97,134.309,18.581
107.0,131.642,18.306
107.04,129.15,17.836
107.07,126.518,17.206
107.1,123.64,16.805
107.13,120.833,16.359
107.17,117.78,15.66
107.2,114.305,15.156
107.23,111.041,14.812
107.26,107.918,14.4
107.3,104.478,13.896
107.33,101.144,13.38
107.36,97.881,12.887
107.39,94.266,12.269
107.43,90.581,11.627
107.46,86.931,10.963
107.49,83.035,10.436
107.52,78.999,9.863
107.56,75.209,9.268
107.59,71.349,8.89
107.62,67.628,8.489
107.65,63.979,7.87
107.69,60.223,7.458
107.72,56.714,7.137
107.75,53.625,6.69
107.78,50.291,6.117
107.82,47.028,5.705
107.85,44.08,5.247
107.88,40.956,4.754
107.91,37.762,4.273
107.95,34.604,3.769
107.98,31.34,3.242
108.01,27.725,2.669
108.04,24.04,2.073
108.08,20.18,1.512
108.11,16.109,1.111
108.14,11.967,0.722
108.18,7.791,0.424
108.21,3.439,0.286
108.24,0.105,0.103
108.27,-0.456,-0.997
108.31,-2.176,-2.635
108.34,-5.545,-3.689
108.37,-8.072,-4.33
108.4,-11.23,-4.88
108.44,-15.477,-5.224
108.47,-20.636,-5.476
108.5,-26.357,-5.613
108.53,-31.726,-5.43
108.57,-36.253,-5.029
108.6,-39.833,-4.674
108.63,-42.5,-4.811
108.66,-44.711,-5.361
108.7,-46.782,-6.049
108.73,-48.782,-6.793
108.76,-50.748,-7.584
108.79,-52.959,-8.282
108.83,-55.556,-9.016
108.86,-58.434,-9.875
108.89,-61.978,-10.711
108.92,-65.909,-11.456
108.96,-70.05,-12.2
108.99,-74.577,-12.693
109.02,-78.824,-13.002
109.05,-82.86,-13.392
109.09,-86.931,-13.861
109.12,-90.721,-14.331
109.15,-94.196,-14.709
109.18,-97.53,-14.995
109.22,-100.513,-15.316
109.25,-103.04,-15.683
109.28,-105.707,-16.152
109.31,-108.479,-16.645
109.35,-111.147,-17.241
109.38,-114.059,-17.836
109.41,-117.288,-18.466
109.44,-120.552,-19.154
109.48,-123.921,-19.623
109.51,-127.431,-20.001
109.54,-130.905,-20.643
109.57,-134.52,-20.975
109.61,-138.17,-21.468
109.64,-141.574,-22.018
109.67,-144.733,-22.109
109.7,-147.646,-22.189
109.74,-150.243,-22.533
109.77,-152.769,-22.911
109.8,-155.121,-23.163
109.83,-157.332,-23.633
109.87,-159.578,-24.137
109.9,-162.245,-24.721
109.93,-164.702,-25.179
109.97,-167.229,-25.454
110.0,-169.861,-25.786
110.03,-172.388,-26.084
110.06,-174.704,-26.245
110.1,-177.196,-26.691
110.13,-179.758,-27.264
110.16,-182.32,-27.654
110.19,-185.127,-28.158
110.23,-187.9,-28.582
110.26,-190.427,-28.799
110.29,-193.094,-29.074
110.32,-195.48,-29.28
110.36,-197.762,-29.498
110.39,-200.078,-29.876
110.42,-202.219,-30.094
110.45,-204.008,-30.231
110.49,-205.939,-30.563
110.52,-207.658,-30.735
110.55,-208.957,-30.804
110.58,-210.606,-31.182
110.62,-212.186,-31.503
110.65,-213.695,-31.778
110.68,-215.625,-32.316
110.71,-217.661,-32.706
110.75,-219.626,-32.935
110.78,-221.837,-33.313
110.81,-223.907,-33.496
110.84,-225.838,-33.679
110.88,-228.049,-33.989
110.91,-230.049,-34.229
110.94,-232.014,-34.538
110.97,-234.12,-34.825
111.01,-236.086,-34.951
111.04,-237.56,-34.962
111.07,-239.279,-35.352
111.1,-240.929,-35.512
111.14,-242.262,-35.673
111.17,-243.736,-36.005
111.2,-245.316,-36.337
111.23,-246.965,-36.6
111.27,-248.615,-36.784
111.3,-250.089,-36.83
111.33,-251.457,-37.036
111.36,-252.931,-37.276
111.4,-254.335,-37.448
111.43,-255.634,-37.78
111.46,-257.283,-38.17
111.49,-259.038,-38.273
111.53,-260.371,-38.33
111.56,-261.705,-38.456
111.59,-263.144,-38.514
111.62,-264.302,-38.628
111.66,-265.425,-38.892
111.69,-266.618,-38.903
111.72,-267.566,-39.075
111.75,-268.724,-39.464
111.79,-270.058,-39.716
111.82,-271.286,-39.934
111.85,-272.62,-40.175
111.89,-273.988,-40.232
111.92,-275.217,-40.369
111.95,-276.55,-40.61
111.98,-277.884,-40.713
112.02,-279.007,-40.759
112.05,-279.99,-40.782
112.08,-280.902,-40.782
112.11,-281.569,-40.747
112.15,-281.885,-40.747
112.18,-282.306,-40.839
112.21,-282.762,-40.954
112.24,-283.008,-41.08
112.28,-283.324,-41.114
112.31,-283.604,-41.091
112.34,-283.78,-41.217
112.37,-283.955,-41.08
112.41,-284.026,-40.976
112.44,-284.061,-41.08
112.47,-284.131,-41.091
112.5,-284.306,-41.366
112.54,-284.587,-41.458
112.57,-284.727,-41.32
112.6,-284.798,-41.274
112.63,-284.833,-41.194
112.67,-284.587,-40.839
112.7,-284.026,-40.667
112.73,-283.604,-40.793
112.76,-282.973,-40.69
112.8,-282.411,-40.53
112.83,-281.604,-40.369
112.86,-280.516,-40.026
112.89,-279.112,-39.693
112.93,-277.673,-39.533
112.96,-276.199,-39.361
112.99,-274.831,-39.396
113.02,-273.848,-39.476
113.06,-272.655,-39.212
113.09,-271.497,-39.029
113.12,-270.374,-38.892
113.15,-268.97,-38.433
113.19,-267.531,-38.124
113.22,-266.162,-38.067
113.25,-264.793,-37.861
113.28,-263.46,-37.78
113.32,-262.267,-37.803
113.35,-261.073,-37.483
113.38,-259.634,-37.196
113.41,-258.441,-36.967
113.45,-256.897,-36.543
113.48,-255.318,-36.337
113.51,-253.703,-36.2
113.54,-252.124,-35.982
113.58,-250.58,-35.856
113.61,-249.036,-35.558
113.64,-247.176,-35.077
113.68,-245.351,-34.848
113.71,-243.491,-34.573
113.74,-241.455,-34.229
113.77,-239.56,-34.138
113.81,-237.875,-34.103
113.84,-236.401,-33.954
113.87,-234.927,-33.771
113.9,-233.453,-33.427
113.94,-231.909,-33.061
113.97,-230.295,-32.958
114.0,-228.716,-32.625
114.03,-226.855,-32.076
114.07,-225.031,-31.995
114.1,-223.276,-31.732
114.13,-221.205,-31.274
114.16,-219.099,-31.09
114.2,-217.239,-30.861
114.23,-215.169,-30.46
114.26,-213.098,-30.288
114.29,-210.887,-29.819
114.33,-208.852,-29.498
114.36,-206.746,-29.475
114.39,-204.64,-29.028
114.42,-202.499,-28.605
114.46,-200.183,-28.226
114.49,-198.042,-27.963
114.52,-196.007,-27.791
114.55,-194.041,-27.654
114.59,-192.076,-27.436
114.62,-190.462,-27.195
114.65,-188.637,-26.852
114.68,-186.566,-26.302
114.72,-184.425,-25.809
114.75,-181.934,-25.351
114.78,-179.266,-24.859
114.81,-176.845,-24.481
114.85,-173.932,-24.183
114.88,-171.054,-23.782
114.91,-168.352,-23.335
114.94,-165.439,-22.9
114.98,-162.315,-22.338
115.01,-159.192,-21.823
115.04,-156.104,-21.456
115.07,-153.015,-21.158
115.11,-150.313,-20.746
115.14,-147.365,-20.379
115.17,-144.312,-19.99
115.2,-141.785,-19.669
115.24,-139.082,-19.463
115.27,-136.345,-19.028
115.3,-134.204,-18.81
115.33,-131.958,-18.466
115.37,-129.361,-17.848
115.4,-126.869,-17.344
115.43,-124.237,-16.908
115.46,-121.149,-16.301
115.5,-117.99,-15.648
115.53,-114.586,-15.075
115.56,-110.901,-14.64
115.6,-107.426,-14.136
115.63,-103.847,-13.575
115.66,-100.127,-13.151
115.69,-96.617,-12.693
115.73,-93.037,-12.074
115.76,-89.072,-11.536
115.79,-85.457,-11.032
115.82,-81.877,-10.39
115.86,-77.911,-9.806
115.89,-74.226,-9.302
115.92,-70.717,-8.832
115.95,-66.786,-8.363
115.99,-63.312,-7.927
116.02,-60.083,-7.446
116.05,-56.538,-6.988
116.08,-53.31,-6.575
116.12,-50.397,-5.98
116.15,-47.168,-5.407
116.18,-43.834,-4.972
116.21,-40.535,-4.479
116.25,-37.166,-4.067
116.28,-33.832,-3.689
116.31,-30.743,-3.139
116.34,-27.129,-2.486
116.38,-23.303,-1.879
116.41,-19.302,-1.317
116.44,-15.161,-0.894
116.47,-10.844,-0.63
116.51,-6.844,-0.378
116.54,-2.386,-0.195
116.57,0.281,0.092
116.6,0.597,1.363
