Trigger_Date,2023/06/28
Trigger_Time,T 16:05:19.922 PDT
Samples_Per_Cycle,512
Microseconds_Per_Sample,32.539
Time (ms),Voltage (V),Current (A)
-16.66,4.141,3.7
-16.63,5.896,3.838
-16.59,8.493,4.846
-16.56,13.161,5.659
-16.53,18.741,5.361
-16.5,23.724,4.731
-16.46,28.252,4.491
-16.43,32.393,4.513
-16.4,36.183,4.433
-16.37,38.675,4.181
-16.33,39.833,3.918
-16.3,40.5,4.158
-16.27,41.237,5.178
-16.24,42.921,6.656
-16.2,46.01,8.042
-16.17,49.94,9.119
-16.14,54.327,9.909
-16.11,59.1,10.39
-16.07,63.803,10.562
-16.04,68.015,10.573
-16.01,71.77,10.436
-15.98,74.542,10.47
-15.94,76.964,10.894
-15.91,79.807,11.467
-15.88,82.439,12.143
-15.85,85.036,13.036
-15.81,88.335,13.792
-15.78,91.809,14.377
-15.75,95.284,14.915
-15.72,99.109,15.373
-15.68,102.829,15.728
-15.65,106.128,16.164
-15.62,109.567,16.519
-15.59,112.901,16.874
-15.55,115.814,17.298
-15.52,119.043,17.733
-15.49,122.026,18.088
-15.46,124.728,18.592
-15.42,127.817,19.314
-15.39,131.221,19.795
-15.36,134.485,20.379
-15.33,137.819,20.826
-15.29,141.118,21.009
-15.26,143.925,21.284
-15.23,146.663,21.548
-15.2,149.365,21.834
-15.16,151.646,22.224
-15.13,154.068,22.682
-15.1,156.7,23.209
-15.07,159.297,23.805
-15.03,162.105,24.297
-15.0,165.053,24.549
-14.97,167.65,24.755
-14.94,170.001,25.053
-14.9,172.563,25.431
-14.87,175.125,25.878
-14.84,177.617,26.371
-14.81,180.284,26.772
-14.77,182.846,27.173
-14.74,185.443,27.493
-14.71,188.005,27.722
-14.68,190.392,27.917
-14.64,192.603,28.284
-14.61,194.989,28.639
-14.58,197.34,28.902
-14.54,199.306,29.257
-14.51,201.447,29.716
-14.48,203.658,29.979
-14.45,205.553,30.14
-14.41,207.413,30.357
-14.38,209.343,30.586
-14.35,211.133,30.907
-14.32,213.098,31.251
-14.28,215.099,31.629
-14.25,217.064,32.018
-14.22,218.959,32.098
-14.19,220.538,32.064
-14.15,222.047,32.305
-14.12,223.767,32.717
-14.09,225.662,33.084
-14.06,227.277,33.255
-14.02,229.031,33.668
-13.99,231.102,34.115
-13.96,233.208,34.298
-13.93,234.998,34.344
-13.89,236.577,34.275
-13.86,238.016,34.493
-13.83,239.49,34.802
-13.8,240.929,35.031
-13.76,242.332,35.329
-13.73,243.877,35.741
-13.7,245.526,35.948
-13.67,247.035,35.993
-13.63,248.369,36.165
-13.6,249.843,36.474
-13.57,251.352,36.738
-13.54,252.966,37.024
-13.5,254.616,37.253
-13.47,256.3,37.357
-13.44,257.599,37.357
-13.41,258.652,37.334
-13.37,259.634,37.425
-13.34,260.406,37.654
-13.31,261.494,38.044
-13.28,262.723,38.445
-13.24,264.091,38.685
-13.21,265.46,38.823
-13.18,266.724,38.869
-13.15,267.917,38.949
-13.11,269.075,39.109
-13.08,270.233,39.224
-13.05,271.391,39.373
-13.02,272.585,39.567
-12.98,273.708,39.728
-12.95,274.62,39.808
-12.92,275.462,39.785
-12.89,276.129,39.785
-12.85,276.585,39.808
-12.82,277.007,39.854
-12.79,277.463,40.083
-12.76,278.059,40.415
-12.72,278.761,40.576
-12.69,279.428,40.518
-12.66,279.849,40.415
-12.63,280.13,40.381
-12.59,280.341,40.232
-12.56,280.341,40.266
-12.53,280.727,40.644
-12.5,281.429,41.137
-12.46,281.85,40.885
-12.43,282.095,40.576
-12.4,282.166,40.679
-12.36,282.166,40.702
-12.33,281.955,40.667
-12.3,281.674,40.438
-12.27,281.429,40.438
-12.23,281.288,40.518
-12.2,281.007,40.484
-12.17,280.481,40.186
-12.14,279.639,39.819
-12.1,278.516,39.579
-12.07,277.217,39.35
-12.04,275.743,39.132
-12.01,274.304,39.178
-11.97,273.286,39.43
-11.94,272.83,39.877
-11.91,273.216,40.472
-11.88,274.234,40.782
-11.84,275.182,40.553
-11.81,275.708,39.934
-11.78,275.638,39.258
-11.75,274.866,38.64
-11.71,273.322,38.055
-11.68,271.111,37.551
-11.65,268.303,37.242
-11.62,265.32,37.093
-11.58,262.372,37.082
-11.55,259.775,37.139
-11.52,257.494,37.173
-11.49,255.669,37.116
-11.45,254.054,36.933
-11.42,252.545,36.635
-11.39,250.931,36.051
-11.36,248.93,35.398
-11.32,246.719,34.882
-11.29,244.298,34.47
-11.26,241.771,34.229
-11.23,239.49,34.115
-11.19,237.419,34.126
-11.16,235.664,34.126
-11.13,234.015,33.943
-11.1,232.681,33.817
-11.06,231.488,33.599
-11.03,230.119,33.21
-11.0,228.891,32.889
-10.97,227.557,32.545
-10.93,225.873,32.121
-10.9,223.978,31.663
-10.87,221.767,31.297
-10.84,219.485,30.976
-10.8,217.169,30.758
-10.77,214.993,30.667
-10.74,212.993,30.586
-10.71,211.168,30.449
-10.67,209.554,30.266
-10.64,207.869,29.91
-10.61,206.044,29.406
-10.58,203.938,28.788
-10.54,201.762,28.341
-10.51,199.516,28.066
-10.48,197.2,27.803
-10.45,194.919,27.688
-10.41,192.989,27.677
-10.38,191.199,27.482
-10.35,189.198,27.024
-10.31,187.022,26.52
-10.28,184.706,26.05
-10.25,182.355,25.603
-10.22,179.688,25.145
-10.18,176.915,24.836
-10.15,174.318,24.687
-10.12,171.931,24.389
-10.09,169.229,23.805
-10.05,166.351,23.312
-10.02,163.544,22.98
-9.99,160.736,22.556
-9.96,157.788,22.052
-9.92,154.84,21.766
-9.89,152.313,21.651
-9.86,149.857,21.25
-9.83,147.084,20.528
-9.79,144.241,19.967
-9.76,141.399,19.715
-9.73,138.696,19.406
-9.7,135.959,19.005
-9.66,133.116,18.604
-9.63,130.414,18.329
-9.6,127.711,17.894
-9.57,124.799,17.252
-9.53,121.5,16.611
-9.5,118.13,16.175
-9.47,113.708,14.732
-9.44,107.532,12.464
-9.4,100.021,11.089
-9.37,93.002,11.146
-9.34,87.703,12.429
-9.31,84.474,13.414
-9.27,82.684,13.838
-9.24,81.561,13.472
-9.21,80.93,12.819
-9.18,80.298,11.937
-9.14,78.999,10.894
-9.11,76.823,9.783
-9.08,73.946,8.706
-9.05,70.155,7.996
-9.01,66.26,7.778
-8.98,62.434,7.698
-8.95,58.855,7.71
-8.92,55.731,7.744
-8.88,53.169,7.595
-8.85,50.713,7.228
-8.82,48.361,6.724
-8.79,45.834,5.957
-8.75,42.921,5.109
-8.72,39.342,4.227
-8.69,35.657,3.62
-8.66,32.568,3.998
-8.62,31.586,5.67
-8.59,31.551,6.003
-8.56,28.778,2.646
-8.53,23.268,-0.023
-8.49,17.372,-0.344
-8.46,11.792,-0.493
-8.43,5.44,-1.134
-8.4,-0.386,-1.26
-8.36,-0.948,-1.844
-8.33,-1.685,-2.898
-8.3,-3.966,-3.082
-8.26,-5.685,-3.608
-8.23,-8.669,-5.052
-8.2,-13.863,-5.911
-8.17,-20.004,-5.728
-8.13,-25.83,-5.327
-8.1,-30.954,-4.869
-8.07,-35.411,-4.548
-8.04,-38.956,-4.307
-8.0,-41.202,-4.181
-7.97,-42.36,-4.284
-7.94,-43.343,-4.823
-7.91,-44.571,-5.854
-7.87,-46.466,-7.297
-7.84,-49.66,-8.718
-7.81,-53.766,-9.749
-7.78,-58.153,-10.425
-7.74,-62.961,-10.825
-7.71,-67.628,-10.906
-7.68,-71.594,-10.791
-7.65,-75.104,-10.619
-7.61,-77.771,-10.654
-7.58,-79.912,-11.135
-7.55,-82.263,-11.902
-7.52,-84.966,-12.716
-7.48,-87.738,-13.54
-7.45,-90.967,-14.319
-7.42,-94.617,-14.881
-7.39,-98.232,-15.316
-7.35,-101.811,-15.694
-7.32,-105.391,-15.98
-7.29,-108.655,-16.359
-7.26,-112.024,-16.748
-7.22,-115.323,-16.966
-7.19,-117.99,-17.298
-7.16,-120.657,-17.779
-7.13,-123.5,-18.283
-7.09,-126.273,-18.856
-7.06,-129.291,-19.52
-7.03,-132.73,-20.15
-7.0,-136.134,-20.735
-6.96,-139.363,-21.055
-6.93,-142.662,-21.216
-6.9,-145.75,-21.479
-6.87,-148.593,-21.766
-6.83,-151.366,-22.098
-6.8,-154.033,-22.579
-6.77,-156.525,-23.14
-6.74,-159.402,-23.598
-6.7,-162.0,-23.919
-6.67,-164.421,-24.343
-6.64,-167.264,-24.71
-6.61,-169.896,-25.03
-6.57,-172.318,-25.385
-6.54,-174.985,-25.855
-6.51,-177.792,-26.302
-6.48,-180.424,-26.714
-6.44,-183.162,-27.024
-6.41,-185.829,-27.299
-6.38,-188.11,-27.596
-6.35,-190.497,-27.883
-6.31,-192.848,-28.158
-6.28,-194.954,-28.57
-6.25,-197.375,-29.005
-6.21,-199.797,-29.235
-6.18,-201.657,-29.452
-6.15,-203.693,-29.727
-6.12,-205.623,-29.899
-6.08,-207.167,-30.128
-6.05,-208.957,-30.518
-6.02,-211.028,-30.907
-5.99,-212.888,-31.251
-5.95,-214.818,-31.663
-5.92,-216.959,-31.95
-5.89,-218.994,-32.121
-5.86,-220.854,-32.247
-5.82,-222.784,-32.35
-5.79,-224.399,-32.591
-5.76,-226.048,-32.877
-5.73,-227.908,-33.084
-5.69,-229.417,-33.347
-5.66,-230.962,-33.679
-5.63,-232.611,-33.886
-5.6,-234.12,-34.092
-5.56,-235.699,-34.401
-5.53,-237.63,-34.722
-5.5,-239.42,-35.02
-5.47,-241.245,-35.386
-5.43,-243.456,-35.707
-5.4,-245.421,-35.821
-5.37,-246.86,-35.718
-5.34,-248.123,-35.558
-5.3,-249.141,-35.684
-5.27,-249.913,-36.085
-5.24,-251.141,-36.486
-5.21,-252.405,-36.761
-5.17,-253.809,-37.219
-5.14,-255.563,-37.54
-5.11,-257.108,-37.471
-5.08,-258.231,-37.334
-5.04,-259.424,-37.437
-5.01,-260.582,-37.609
-4.98,-261.6,-37.883
-4.95,-262.933,-38.204
-4.91,-264.337,-38.353
-4.88,-265.425,-38.491
-4.85,-266.583,-38.674
-4.82,-267.847,-38.811
-4.78,-268.935,-38.96
-4.75,-270.128,-39.144
-4.72,-271.321,-39.327
-4.69,-272.479,-39.556
-4.65,-273.637,-39.751
-4.62,-274.901,-39.751
-4.59,-275.673,-39.739
-4.56,-276.375,-39.797
-4.52,-277.007,-39.682
-4.49,-277.252,-39.671
-4.46,-277.463,-39.865
-4.43,-277.919,-40.026
-4.39,-278.34,-40.312
-4.36,-278.796,-40.369
-4.33,-279.253,-40.324
-4.3,-279.674,-40.358
-4.26,-279.919,-40.346
-4.23,-280.13,-40.22
-4.2,-280.305,-40.232
-4.17,-280.481,-40.404
-4.13,-280.762,-40.404
-4.1,-280.797,-40.358
-4.07,-280.832,-40.324
-4.03,-280.692,-40.266
-4.0,-280.341,-40.026
-3.97,-279.744,-39.854
-3.94,-279.288,-39.968
-3.9,-279.112,-40.175
-3.87,-278.867,-40.186
-3.84,-278.551,-40.037
-3.81,-277.954,-39.762
-3.77,-277.252,-39.464
-3.74,-276.34,-39.178
-3.71,-275.111,-38.96
-3.68,-273.918,-39.041
-3.64,-272.971,-39.247
-3.61,-272.058,-39.247
-3.58,-271.286,-39.018
-3.55,-270.268,-38.64
-3.51,-268.759,-38.284
-3.48,-267.215,-37.895
-3.45,-265.706,-37.609
-3.42,-264.021,-37.643
-3.38,-262.863,-37.7
-3.35,-261.635,-37.574
-3.32,-260.301,-37.471
-3.29,-259.143,-37.196
-3.25,-257.845,-36.761
-3.22,-256.265,-36.52
-3.19,-254.967,-36.417
-3.16,-253.563,-36.165
-3.12,-251.878,-35.959
-3.09,-250.51,-35.856
-3.06,-249.176,-35.604
-3.03,-247.456,-35.214
-2.99,-245.737,-34.882
-2.96,-243.947,-34.619
-2.93,-242.017,-34.412
-2.9,-240.227,-34.206
-2.86,-238.577,-33.954
-2.83,-236.647,-33.863
-2.8,-235.138,-33.886
-2.77,-233.945,-33.611
-2.73,-232.436,-33.198
-2.7,-230.856,-32.935
-2.67,-229.417,-32.625
-2.64,-227.592,-32.247
-2.6,-225.487,-31.858
-2.57,-223.451,-31.491
-2.54,-221.31,-31.342
-2.51,-219.205,-31.228
-2.47,-217.345,-30.93
-2.44,-215.134,-30.655
-2.41,-213.063,-30.529
-2.38,-211.414,-30.185
-2.34,-209.448,-29.773
-2.31,-207.448,-29.716
-2.28,-205.974,-29.555
-2.25,-204.324,-29.074
-2.21,-202.184,-28.616
-2.18,-200.183,-28.238
-2.15,-198.007,-27.848
-2.12,-195.656,-27.608
-2.08,-193.55,-27.344
-2.05,-191.269,-27.024
-2.02,-188.812,-26.806
-1.98,-186.566,-26.485
-1.95,-184.074,-26.027
-1.92,-181.302,-25.638
-1.89,-178.81,-25.225
-1.85,-176.424,-24.87
-1.82,-173.897,-24.629
-1.79,-171.616,-24.332
-1.76,-169.37,-23.805
-1.72,-166.492,-23.289
-1.69,-163.754,-22.945
-1.66,-161.298,-22.499
-1.63,-158.174,-21.937
-1.59,-155.226,-21.685
-1.56,-152.699,-21.502
-1.53,-149.892,-21.124
-1.5,-147.26,-20.803
-1.46,-144.803,-20.253
-1.43,-141.82,-19.852
-1.4,-139.012,-19.566
-1.37,-136.661,-19.142
-1.33,-133.994,-18.707
-1.3,-131.221,-18.386
-1.27,-128.835,-17.985
-1.24,-125.922,-17.458
-1.2,-122.728,-16.943
-1.17,-119.815,-16.381
-1.14,-116.621,-15.832
-1.11,-113.182,-15.431
-1.07,-110.129,-15.053
-1.04,-107.005,-14.686
-1.01,-103.601,-14.434
-0.98,-100.793,-13.999
-0.94,-97.635,-13.208
-0.91,-93.88,-12.475
-0.88,-90.3,-11.856
-0.85,-86.65,-11.307
-0.81,-82.474,-10.86
-0.78,-78.754,-10.333
-0.75,-74.858,-9.714
-0.72,-70.682,-9.416
-0.68,-67.313,-9.13
-0.65,-64.154,-8.58
-0.62,-60.223,-8.076
-0.59,-56.889,-7.687
-0.55,-53.941,-7.057
-0.52,-50.432,-6.472
-0.49,-47.168,-6.06
-0.46,-44.185,-5.499
-0.42,-40.5,-4.903
-0.39,-36.885,-4.33
-0.36,-33.691,-3.987
-0.33,-31.305,-4.548
-0.29,-30.849,-6.003
-0.26,-30.217,-4.674
-0.23,-26.076,-1.26
-0.2,-20.32,0.137
-0.16,-14.529,0.367
-0.13,-8.774,0.985
-0.1,-1.825,1.466
-0.07,1.474,1.73
-0.03,1.755,2.864
0.0,4.036,3.368
0.03,5.721,3.517
0.07,7.967,4.433
0.1,11.862,5.189
0.13,16.916,5.235
0.16,22.18,4.983
0.2,27.058,4.628
0.23,31.305,4.445
0.26,35.376,4.445
0.29,38.71,4.307
0.33,40.43,4.009
0.36,41.202,4.193
0.39,42.255,4.972
0.42,43.588,6.22
0.46,45.869,7.664
0.49,49.59,8.981
0.52,54.012,9.863
0.55,58.714,10.425
0.59,63.487,10.654
0.62,67.839,10.699
0.65,71.735,10.677
0.68,75.349,10.585
0.72,77.736,10.688
0.75,79.736,11.295
0.78,82.439,12.074
0.81,85.211,12.922
0.85,87.949,13.747
0.88,91.599,14.445
0.91,95.319,14.949
0.94,98.863,15.488
0.98,102.969,15.9
1.01,106.795,16.164
1.04,109.918,16.485
1.07,113.287,16.874
1.11,116.446,17.149
1.14,118.867,17.607
1.17,121.745,18.02
1.2,124.728,18.535
1.24,127.501,19.222
1.27,130.659,19.956
1.3,134.415,20.586
1.33,137.679,20.964
1.37,140.872,21.239
1.4,144.031,21.296
1.43,146.452,21.491
1.46,149.049,21.811
1.5,151.822,22.178
1.53,153.998,22.682
1.56,156.419,23.312
1.59,159.262,23.793
1.63,161.824,24.171
1.66,164.351,24.561
1.69,167.334,24.87
1.72,169.931,25.145
1.76,172.282,25.569
1.79,175.09,26.004
1.82,177.722,26.428
1.85,180.389,26.863
1.89,183.337,27.207
1.92,185.934,27.39
1.95,188.145,27.7
1.98,190.567,27.974
2.02,192.778,28.295
2.05,194.849,28.753
2.08,197.27,29.189
2.12,199.762,29.487
2.15,201.727,29.83
2.18,203.903,29.991
2.21,205.798,30.025
2.25,207.343,30.231
2.28,209.132,30.598
2.31,211.063,30.93
2.34,212.572,31.319
2.38,214.432,31.732
2.41,216.608,32.167
2.44,218.573,32.35
2.47,220.468,32.431
2.51,222.433,32.568
2.54,224.153,32.82
2.57,225.943,33.003
2.6,227.628,33.072
2.64,228.926,33.324
2.67,230.54,33.851
2.7,232.401,34.16
2.73,234.015,34.435
2.77,235.945,34.917
2.8,238.086,35.077
2.83,239.665,34.997
2.86,240.858,34.962
2.9,242.438,35.26
2.93,243.912,35.707
2.96,245.351,35.97
2.99,246.895,36.005
3.03,248.123,36.154
3.06,249.492,36.486
3.09,251.106,36.772
3.12,252.615,37.001
3.16,254.16,37.322
3.19,255.844,37.528
3.22,257.213,37.505
3.25,258.406,37.517
3.29,259.634,37.574
3.32,260.547,37.723
3.35,261.494,38.044
3.38,262.828,38.41
3.42,264.162,38.617
3.45,265.285,38.846
3.48,266.548,38.96
3.51,267.741,39.052
3.55,268.935,39.201
3.58,270.198,39.304
3.61,271.356,39.407
3.64,272.374,39.693
3.68,273.567,39.877
3.71,274.62,39.9
3.74,275.427,39.945
3.77,276.234,39.968
3.81,276.831,39.888
3.84,277.042,39.957
3.87,277.568,40.163
3.9,278.2,40.381
3.94,278.831,40.518
3.97,279.253,40.564
4.0,279.779,40.644
4.03,280.305,40.621
4.07,280.551,40.53
4.1,280.692,40.404
4.13,280.937,40.679
4.17,281.499,41.068
4.2,281.885,40.828
4.23,281.955,40.679
4.26,282.095,40.713
4.3,282.13,40.713
4.33,281.815,40.484
4.36,281.429,40.335
4.39,281.007,40.438
4.43,280.762,40.598
4.46,280.446,40.53
4.49,279.884,40.255
4.52,279.042,39.991
4.56,278.165,39.762
4.59,276.971,39.51
4.62,275.778,39.464
4.65,275.041,39.9
4.69,274.936,40.438
4.72,275.146,40.461
4.75,275.076,39.968
4.78,274.269,39.224
4.82,272.83,38.514
4.85,270.865,37.826
4.88,268.268,37.311
4.91,265.425,37.127
4.95,262.723,37.208
4.98,260.196,37.368
5.01,258.09,37.528
5.04,256.792,37.505
5.08,255.458,37.357
5.11,254.23,37.185
5.14,253.317,36.807
5.17,252.335,36.234
5.21,250.755,35.776
5.24,249.176,35.455
5.27,247.316,35.146
5.3,245.316,34.802
5.34,243.21,34.561
5.37,241.174,34.47
5.4,239.174,34.412
5.43,237.56,34.229
5.47,236.05,34.057
5.5,234.752,34.218
5.53,233.98,34.172
5.56,233.067,33.668
5.6,231.523,33.084
5.63,230.014,32.728
5.66,228.4,32.316
5.69,226.154,31.846
5.73,223.802,31.514
5.76,221.521,31.457
5.79,219.38,31.48
5.82,217.485,31.274
5.86,215.625,31.022
5.89,213.66,30.884
5.92,212.08,30.689
5.95,210.677,30.231
5.99,208.922,29.693
6.02,206.921,29.418
6.05,205.202,29.28
6.08,203.166,28.925
6.12,200.955,28.547
6.15,198.814,28.284
6.18,196.779,28.112
6.21,194.743,27.883
6.25,192.918,27.596
6.28,191.058,27.356
6.31,189.233,27.173
6.35,187.303,26.657
6.38,185.233,26.222
6.41,182.846,25.741
6.44,180.179,25.122
6.48,177.371,24.79
6.51,174.704,24.652
6.54,172.142,24.343
6.57,169.334,23.839
6.61,166.281,23.484
6.64,163.86,23.335
6.67,161.333,22.854
6.7,158.35,22.235
6.74,155.577,21.914
6.77,152.945,21.571
6.8,150.348,21.468
6.83,147.926,21.101
6.87,145.505,20.689
6.9,142.732,20.242
6.93,140.205,19.772
6.96,137.608,19.199
7.0,134.66,18.695
7.03,131.747,18.317
7.06,128.87,17.962
7.09,125.851,17.538
7.13,122.728,17.0
7.16,119.569,16.301
7.19,116.025,15.74
7.22,112.445,15.431
7.26,109.251,15.167
7.29,106.093,14.789
7.32,102.794,14.205
7.35,99.495,13.586
7.39,96.161,13.105
7.42,92.757,12.681
7.45,89.598,12.154
7.48,86.124,11.57
7.52,82.79,11.204
7.55,79.736,10.825
7.58,76.543,10.333
7.61,73.244,9.875
7.65,70.19,9.382
7.68,66.786,8.775
7.71,63.242,8.133
7.74,59.627,7.435
7.78,55.801,6.896
7.81,51.976,6.495
7.84,48.431,6.163
7.87,44.992,5.682
7.91,41.412,5.178
7.94,38.078,4.605
7.97,34.779,4.239
8.0,32.428,4.731
8.04,32.112,6.312
8.07,31.621,5.178
8.1,27.725,1.604
8.13,22.145,-0.103
8.17,16.074,-0.401
8.2,10.002,-1.008
8.23,2.457,-1.604
8.26,-1.474,-1.936
8.3,-1.755,-3.196
8.33,-4.176,-3.78
8.36,-6.036,-4.078
8.4,-9.055,-5.075
8.43,-13.582,-5.43
8.46,-18.811,-5.292
8.49,-24.181,-5.189
8.53,-29.445,-5.052
8.56,-33.902,-4.731
8.59,-37.552,-4.342
8.62,-39.798,-3.918
8.66,-40.675,-3.872
8.69,-41.061,-4.319
8.72,-41.833,-5.35
8.75,-43.658,-6.85
8.79,-46.677,-8.374
8.82,-50.818,-9.52
8.85,-55.556,-10.321
8.88,-60.574,-10.677
8.92,-65.277,-10.608
8.95,-69.278,-10.367
8.98,-72.577,-10.115
9.01,-75.174,-10.127
9.05,-77.174,-10.539
9.08,-79.14,-11.307
9.11,-81.386,-12.235
9.14,-84.193,-13.254
9.18,-87.598,-14.136
9.21,-91.493,-14.835
9.24,-95.494,-15.247
9.27,-99.319,-15.499
9.31,-102.934,-15.511
9.34,-105.917,-15.637
9.37,-109.006,-16.118
9.4,-112.094,-16.668
9.44,-115.147,-17.241
9.47,-118.095,-17.745
9.5,-121.219,-18.363
9.53,-124.377,-18.913
9.57,-127.782,-19.52
9.6,-131.326,-20.082
9.63,-134.976,-20.471
9.66,-138.416,-20.906
9.7,-141.574,-21.078
9.73,-144.487,-21.204
9.76,-146.979,-21.422
9.79,-149.4,-21.754
9.83,-151.576,-22.258
9.86,-153.893,-22.865
9.89,-156.525,-23.507
9.92,-159.297,-24.091
9.96,-162.21,-24.503
9.99,-165.123,-24.744
10.02,-167.79,-24.95
10.05,-170.457,-25.214
10.09,-172.914,-25.443
10.12,-175.195,-25.89
10.15,-177.757,-26.428
10.18,-180.424,-26.932
10.22,-183.022,-27.321
10.25,-185.478,-27.665
10.28,-187.9,-27.974
10.31,-190.392,-28.295
10.35,-192.953,-28.605
10.38,-195.515,-28.914
10.41,-197.867,-29.2
10.45,-200.078,-29.406
10.48,-202.113,-29.59
10.51,-203.833,-29.773
10.54,-205.447,-29.968
10.58,-206.921,-30.208
10.61,-208.466,-30.563
10.64,-210.15,-31.022
10.67,-212.151,-31.491
10.71,-214.221,-31.846
10.74,-216.432,-32.121
10.77,-218.503,-32.247
10.8,-220.328,-32.328
10.84,-221.977,-32.511
10.87,-223.732,-32.82
10.9,-225.452,-33.049
10.93,-227.136,-33.267
10.97,-228.821,-33.599
11.0,-230.54,-33.954
11.03,-232.295,-34.241
11.06,-234.085,-34.367
11.1,-235.629,-34.538
11.13,-237.279,-34.813
11.16,-238.963,-35.1
11.19,-240.578,-35.283
11.23,-242.122,-35.478
11.26,-243.736,-35.764
11.29,-245.28,-35.97
11.32,-246.684,-36.074
11.36,-248.158,-36.28
11.39,-249.632,-36.589
11.42,-251.036,-36.852
11.45,-252.65,-37.139
11.49,-254.089,-37.242
11.52,-255.634,-37.334
11.55,-256.967,-37.448
11.58,-257.95,-37.483
11.62,-258.932,-37.631
11.65,-260.056,-37.895
11.68,-261.214,-38.25
11.71,-262.477,-38.651
11.75,-263.846,-38.926
11.78,-265.285,-39.086
11.81,-266.653,-39.121
11.84,-268.092,-39.247
11.88,-269.321,-39.201
11.91,-270.233,-39.155
11.94,-271.286,-39.43
11.97,-272.549,-39.9
12.01,-273.743,-39.991
12.04,-274.55,-39.9
12.07,-275.427,-40.003
12.1,-276.305,-40.22
12.14,-276.901,-40.083
12.17,-277.007,-39.705
12.2,-277.042,-39.968
12.23,-277.673,-40.541
12.27,-278.305,-40.644
12.3,-278.551,-40.427
12.33,-278.796,-40.644
12.36,-279.147,-40.679
12.4,-279.744,-40.747
12.43,-280.13,-40.747
12.46,-280.411,-40.667
12.5,-280.692,-40.736
12.53,-281.042,-40.873
12.56,-281.499,-40.896
12.59,-281.569,-40.736
12.63,-281.534,-40.644
12.66,-281.323,-40.507
12.69,-280.937,-40.289
12.72,-280.341,-40.266
12.76,-279.779,-40.438
12.79,-279.428,-40.45
12.82,-278.867,-40.301
12.85,-278.094,-40.049
12.89,-277.182,-39.854
12.92,-276.199,-39.648
12.95,-274.971,-39.464
12.98,-273.883,-39.43
13.02,-272.935,-39.487
13.05,-272.023,-39.464
13.08,-271.181,-39.293
13.11,-270.058,-38.926
13.15,-268.654,-38.468
13.18,-266.934,-38.067
13.21,-265.144,-37.803
13.24,-263.425,-37.803
13.28,-261.986,-37.872
13.31,-260.757,-37.838
13.34,-259.424,-37.723
13.37,-258.16,-37.414
13.41,-256.827,-37.036
13.44,-255.493,-36.749
13.47,-254.054,-36.543
13.5,-252.65,-36.36
13.54,-251.282,-36.119
13.57,-249.702,-35.948
13.6,-248.369,-35.787
13.63,-246.895,-35.432
13.67,-245.0,-34.974
13.7,-243.14,-34.687
13.73,-241.209,-34.504
13.76,-239.384,-34.39
13.8,-237.595,-34.138
13.83,-235.945,-34.034
13.86,-234.436,-34.092
13.89,-233.067,-33.851
13.93,-231.558,-33.359
13.96,-229.874,-33.038
13.99,-228.294,-32.797
14.02,-226.575,-32.408
14.06,-224.609,-32.03
14.09,-222.679,-31.846
14.12,-220.854,-31.64
14.15,-218.784,-31.342
14.19,-216.783,-31.113
14.22,-214.993,-30.884
14.25,-213.063,-30.621
14.28,-211.063,-30.426
14.32,-209.483,-30.174
14.35,-207.834,-29.865
14.38,-205.974,-29.475
14.41,-203.973,-28.96
14.45,-201.552,-28.49
14.48,-198.92,-28.135
14.51,-196.568,-27.906
14.54,-194.252,-27.78
14.58,-191.971,-27.665
14.61,-190.111,-27.436
14.64,-188.145,-27.058
14.68,-186.005,-26.646
14.71,-184.004,-26.21
14.74,-181.863,-25.718
14.77,-179.161,-25.237
14.81,-176.669,-24.904
14.84,-174.107,-24.584
14.87,-171.37,-24.286
14.9,-168.808,-23.976
14.94,-166.316,-23.587
14.97,-163.403,-23.106
15.0,-160.596,-22.59
15.03,-157.928,-22.292
15.07,-155.156,-22.018
15.1,-152.594,-21.96
15.13,-150.208,-21.388
15.16,-147.33,-20.769
15.2,-144.417,-20.253
15.23,-141.714,-19.83
15.26,-138.942,-19.715
15.29,-136.345,-19.371
15.33,-133.958,-18.947
15.36,-131.256,-18.581
15.39,-128.519,-18.226
15.42,-126.062,-17.722
15.46,-123.149,-17.149
15.49,-119.92,-16.576
15.52,-116.797,-15.992
15.55,-113.393,-15.488
15.59,-109.988,-15.19
15.62,-107.005,-14.881
15.65,-103.777,-14.468
15.68,-100.548,-14.056
15.72,-97.495,-13.437
15.75,-94.16,-12.67
15.78,-90.23,-11.971
15.81,-86.58,-11.352
15.85,-82.649,-10.734
15.88,-78.473,-10.31
15.91,-74.683,-9.921
15.94,-70.963,-9.531
15.98,-66.997,-9.119
16.01,-63.557,-8.637
16.04,-60.083,-8.145
16.07,-56.363,-7.859
16.11,-53.345,-7.377
16.14,-50.502,-6.656
16.17,-47.098,-6.06
16.2,-43.974,-5.613
16.24,-40.956,-5.098
16.27,-37.517,-4.525
16.3,-34.042,-4.113
16.33,-31.445,-4.376
16.37,-30.322,-5.877
16.4,-29.726,-5.304
16.43,-26.321,-1.718
16.46,-20.496,0.252
16.5,-14.354,0.321
16.53,-8.704,0.745
16.56,-1.72,1.409
16.59,1.579,1.787
16.63,1.825,3.013
16.66,4.317,3.597
16.69,6.036,3.849
16.73,8.809,4.628
16.76,13.091,5.212
16.79,18.179,5.224
16.82,23.233,4.892
16.86,27.936,4.571
16.89,32.147,4.387
16.92,35.481,4.296
16.95,38.043,4.25
16.99,39.973,4.181
17.02,40.956,4.594
17.05,42.184,5.613
17.08,44.536,6.896
17.12,47.624,8.191
17.15,51.309,9.313
17.18,55.836,10.069
17.21,60.539,10.447
17.25,65.067,10.516
17.28,69.208,10.413
17.31,72.296,10.39
17.34,74.928,10.493
17.38,77.56,10.768
17.41,79.385,11.158
17.44,81.105,12.005
17.47,84.018,13.048
17.51,87.317,13.953
17.54,90.791,14.686
17.57,94.792,15.224
17.6,98.793,15.602
17.64,102.548,15.889
17.67,106.409,15.935
17.7,109.462,16.003
17.73,112.094,16.542
17.77,115.182,17.069
17.8,118.271,17.642
17.83,120.728,18.249
17.86,123.851,18.902
17.9,127.325,19.463
17.93,130.624,20.07
17.96,134.415,20.712
17.99,138.24,21.009
18.03,141.223,21.113
18.06,144.101,21.055
18.09,146.663,21.101
18.12,148.312,21.456
18.16,150.313,22.086
18.19,152.769,22.739
18.22,155.121,23.472
18.25,157.964,24.16
18.29,161.227,24.629
18.32,164.281,24.904
18.35,167.299,25.145
18.38,170.422,25.248
18.42,172.774,25.443
18.45,175.125,25.89
18.48,178.073,26.29
18.51,180.495,26.691
18.55,182.776,27.31
18.58,185.513,27.688
18.61,187.97,27.871
18.64,190.111,28.215
18.68,192.708,28.616
18.71,195.059,29.017
18.74,197.375,29.406
18.78,199.973,29.635
18.81,202.254,29.796
18.84,203.903,29.933
18.87,205.763,30.048
18.91,207.343,30.208
18.94,208.676,30.655
18.97,210.606,31.182
19.0,212.677,31.549
19.04,214.537,31.972
19.07,216.783,32.35
19.1,218.924,32.373
19.13,220.468,32.339
19.17,222.188,32.545
19.2,223.943,32.82
19.23,225.417,33.267
19.26,227.136,33.576
19.3,229.207,33.851
19.33,231.067,34.241
19.36,233.032,34.458
19.39,234.857,34.481
19.43,236.086,34.412
19.46,237.665,34.722
19.49,239.349,35.1
19.52,240.648,35.409
19.56,242.157,35.65
19.59,243.877,35.879
19.62,245.28,36.028
19.65,246.614,36.131
19.69,248.053,36.28
19.72,249.422,36.612
19.75,250.966,37.013
19.78,252.756,37.265
19.82,254.37,37.448
19.85,255.914,37.712
19.88,257.529,37.7
19.91,258.617,37.574
19.95,259.459,37.643
19.98,260.512,37.849
20.01,261.494,38.147
20.04,262.442,38.605
20.08,263.811,38.892
20.11,265.215,39.029
20.14,266.513,39.155
20.17,267.812,39.224
20.21,268.97,39.281
20.24,269.987,39.407
20.27,271.146,39.556
20.3,272.304,39.751
20.34,273.286,40.026
20.37,274.374,40.14
20.4,275.322,40.037
20.43,275.813,40.037
20.47,276.34,40.094
20.5,276.761,40.083
20.53,277.112,40.312
20.56,277.708,40.679
20.6,278.445,40.839
20.63,279.182,40.862
20.66,279.744,40.839
20.69,280.411,40.873
20.73,280.621,40.667
20.76,280.762,40.564
20.79,281.078,40.759
20.83,281.569,41.251
20.86,281.885,41.137
20.89,281.955,40.828
20.92,281.99,40.816
20.96,281.92,40.736
20.99,281.709,40.633
21.02,281.042,40.392
21.05,280.411,40.45
21.09,279.99,40.644
21.12,279.568,40.69
21.15,279.182,40.518
21.18,278.375,40.255
21.22,277.498,39.968
21.25,276.55,39.693
21.28,275.357,39.579
21.31,274.409,39.693
21.35,273.708,39.888
21.38,273.181,39.911
21.41,272.585,39.648
21.44,271.742,39.189
21.48,270.303,38.662
21.51,268.338,38.113
21.54,266.302,37.746
21.57,264.056,37.654
21.61,262.091,37.689
21.64,260.301,37.631
21.67,258.582,37.723
21.7,257.318,37.735
21.74,256.406,37.379
21.77,255.107,36.979
21.8,253.703,36.784
21.83,252.721,36.543
21.87,251.387,36.165
21.9,249.843,35.925
21.93,248.544,35.73
21.96,246.79,35.363
22.0,244.824,35.031
22.03,243.14,34.733
22.06,241.35,34.584
22.09,239.49,34.458
22.13,237.875,34.321
22.16,236.401,34.298
22.19,234.857,34.172
22.22,233.594,33.771
22.26,231.944,33.244
22.29,229.839,32.9
22.32,227.908,32.568
22.35,225.838,32.236
22.39,223.662,32.076
22.42,221.872,32.007
22.45,220.222,31.801
22.48,218.082,31.468
22.52,216.187,31.125
22.55,214.642,31.136
22.58,213.133,31.079
22.61,211.87,30.815
22.65,210.536,30.403
22.68,208.817,30.094
22.71,207.132,29.796
22.74,205.412,29.338
22.78,203.236,28.845
22.81,200.85,28.433
22.84,198.323,28.066
22.87,195.691,27.86
22.91,193.34,27.757
22.94,191.304,27.608
22.97,189.163,27.321
23.01,186.882,26.932
23.04,184.882,26.382
23.07,182.32,25.786
23.1,179.547,25.351
23.14,177.02,24.996
23.17,174.318,24.71
23.2,171.616,24.412
23.23,169.054,23.942
23.27,166.246,23.507
23.3,163.158,23.175
23.33,160.455,22.762
23.36,157.718,22.292
23.4,154.77,22.04
23.43,151.927,21.559
23.46,149.26,21.17
23.49,146.382,20.849
23.53,143.855,20.609
23.56,141.679,20.299
23.59,138.907,19.715
23.62,136.38,19.394
23.66,134.134,18.959
23.69,131.537,18.741
23.72,129.185,18.363
23.75,126.729,17.722
23.79,123.57,17.034
23.82,120.236,16.519
23.85,117.148,16.003
23.88,113.673,15.568
23.92,110.339,15.293
23.95,107.391,14.938
23.98,104.057,14.549
24.01,100.793,14.159
24.05,97.881,13.552
24.08,94.301,12.819
24.11,90.546,12.223
24.14,87.001,11.582
24.18,83.141,11.055
24.21,79.315,10.642
24.24,75.841,10.127
24.27,72.015,9.634
24.31,68.295,9.302
24.34,65.137,8.775
24.37,61.522,8.156
24.4,57.661,7.675
24.44,54.468,7.194
24.47,51.134,6.621
24.5,47.414,6.163
24.53,44.185,5.602
24.57,40.746,4.972
24.6,37.061,4.422
24.63,33.762,4.135
24.66,31.656,4.708
24.7,31.024,6.049
24.73,30.112,4.559
24.76,26.111,1.272
24.79,20.531,0.069
24.83,14.81,-0.137
24.86,9.16,-0.905
24.89,2.106,-1.42
24.92,-1.228,-1.558
24.96,-1.263,-2.738
24.99,-3.65,-3.448
25.02,-5.685,-3.723
25.06,-8.563,-4.685
25.09,-12.845,-5.235
25.12,-18.074,-5.258
25.15,-23.479,-5.224
25.19,-28.673,-4.823
25.22,-32.779,-4.307
25.25,-35.867,-4.055
25.28,-38.254,-3.952
25.32,-39.658,-3.895
25.35,-40.219,-4.273
25.38,-41.167,-5.212
25.41,-43.097,-6.495
25.45,-45.869,-7.973
25.48,-49.695,-9.245
25.51,-54.327,-9.966
25.54,-59.065,-10.276
25.58,-63.733,-10.379
25.61,-68.015,-10.379
25.64,-71.489,-10.402
25.67,-74.542,-10.516
25.71,-77.455,-10.745
25.74,-79.596,-11.284
25.77,-82.123,-12.166
25.8,-85.281,-13.048
25.84,-88.475,-13.861
25.87,-91.914,-14.56
25.9,-95.775,-15.007
25.93,-99.495,-15.328
25.97,-103.145,-15.74
26.0,-107.005,-16.106
26.03,-110.234,-16.462
26.06,-113.287,-16.908
26.1,-116.621,-17.264
26.13,-119.464,-17.573
26.16,-122.061,-18.123
26.19,-125.22,-18.684
26.23,-128.308,-19.165
26.26,-131.256,-19.784
26.29,-134.801,-20.551
26.32,-138.205,-20.929
26.36,-141.293,-21.124
26.39,-144.101,-21.032
26.42,-146.417,-21.17
26.45,-148.698,-21.857
26.49,-151.506,-22.464
26.52,-154.279,-22.968
26.55,-156.911,-23.404
26.58,-159.859,-23.908
26.62,-162.701,-24.286
26.65,-165.439,-24.549
26.68,-168.141,-24.744
26.71,-170.703,-24.95
26.75,-172.809,-25.248
26.78,-175.195,-25.764
26.81,-177.863,-26.268
26.84,-180.319,-26.749
26.88,-182.916,-27.195
26.91,-185.689,-27.539
26.94,-188.216,-27.803
26.97,-190.672,-28.032
27.01,-192.953,-28.215
27.04,-195.094,-28.536
27.07,-197.34,-28.902
27.11,-199.551,-29.166
27.14,-201.411,-29.429
27.17,-203.131,-29.807
27.2,-205.096,-30.128
27.24,-207.027,-30.357
27.27,-208.957,-30.655
27.3,-210.992,-30.999
27.33,-213.098,-31.319
27.37,-215.099,-31.606
27.4,-217.064,-31.858
27.43,-218.994,-32.007
27.46,-220.644,-32.144
27.5,-222.433,-32.328
27.53,-224.013,-32.602
27.56,-225.417,-32.935
27.59,-227.312,-33.336
27.63,-229.207,-33.668
27.66,-230.962,-33.886
27.69,-232.716,-33.943
27.72,-234.225,-33.92
27.76,-235.629,-34.286
27.79,-237.279,-34.653
27.82,-238.893,-34.871
27.85,-240.402,-35.123
27.89,-242.157,-35.547
27.92,-244.087,-35.787
27.95,-245.631,-35.867
27.98,-247.211,-35.948
28.02,-248.79,-36.096
28.05,-250.124,-36.314
28.08,-251.562,-36.566
28.11,-253.072,-36.795
28.15,-254.51,-37.082
28.18,-255.949,-37.288
28.21,-257.178,-37.334
28.24,-258.266,-37.379
28.28,-259.283,-37.528
28.31,-260.371,-37.666
28.34,-261.459,-38.021
28.37,-262.898,-38.399
28.41,-264.337,-38.536
28.44,-265.601,-38.64
28.47,-266.899,-38.788
28.5,-268.127,-38.892
28.54,-269.25,-38.995
28.57,-270.338,-39.121
28.6,-271.391,-39.338
28.63,-272.549,-39.59
28.67,-273.708,-39.762
28.7,-274.796,-39.728
28.73,-275.462,-39.625
28.76,-275.989,-39.648
28.8,-276.445,-39.693
28.83,-276.761,-39.716
28.86,-277.077,-39.957
28.89,-277.673,-40.346
28.93,-278.34,-40.484
28.96,-278.937,-40.461
28.99,-279.533,-40.427
29.02,-280.025,-40.404
29.06,-280.235,-40.22
29.09,-280.341,-40.175
29.12,-280.411,-40.301
29.16,-280.656,-40.484
29.19,-280.972,-40.702
29.22,-281.183,-40.633
29.25,-281.323,-40.45
29.29,-281.218,-40.278
29.32,-280.902,-40.117
29.35,-280.376,-39.98
29.38,-279.674,-40.049
29.42,-279.253,-40.255
29.45,-279.042,-40.312
29.48,-278.656,-40.209
29.51,-278.165,-39.957
29.55,-277.393,-39.636
29.58,-276.375,-39.327
29.61,-275.182,-39.075
29.64,-274.023,-39.075
29.68,-272.935,-39.155
29.71,-271.953,-39.144
29.74,-271.04,-38.983
29.77,-270.023,-38.662
29.81,-268.584,-38.227
29.84,-266.934,-37.78
29.87,-265.179,-37.597
29.9,-263.741,-37.7
29.94,-262.442,-37.757
29.97,-261.249,-37.643
30.0,-260.056,-37.448
30.03,-258.827,-37.208
30.07,-257.564,-36.841
30.1,-256.055,-36.44
30.13,-254.37,-36.154
30.16,-252.861,-36.039
30.2,-251.317,-35.925
30.23,-249.702,-35.718
30.26,-248.123,-35.512
30.29,-246.544,-35.26
30.33,-244.894,-34.939
30.36,-243.175,-34.642
30.39,-241.49,-34.401
30.42,-239.806,-34.275
30.46,-238.121,-33.989
30.49,-236.472,-33.828
30.52,-234.962,-33.794
30.55,-233.418,-33.45
30.59,-231.628,-32.981
30.62,-229.768,-32.728
30.65,-228.154,-32.625
30.68,-226.505,-32.385
30.72,-224.68,-32.018
30.75,-222.89,-31.778
30.78,-221.03,-31.526
30.81,-219.135,-31.239
30.85,-217.239,-30.919
30.88,-215.379,-30.621
30.91,-213.414,-30.414
30.94,-211.554,-30.151
30.98,-209.518,-29.807
31.01,-207.658,-29.716
31.04,-206.079,-29.59
31.07,-204.254,-29.131
31.11,-202.113,-28.57
31.14,-199.797,-28.181
31.17,-197.516,-27.871
31.2,-195.2,-27.654
31.24,-192.953,-27.436
31.27,-190.848,-27.184
31.3,-188.812,-26.943
31.34,-186.601,-26.508
31.37,-184.25,-26.016
31.4,-181.863,-25.534
31.43,-179.161,-25.076
31.47,-176.494,-24.755
31.5,-173.932,-24.503
31.53,-171.405,-24.16
31.56,-168.773,-23.828
31.6,-166.176,-23.392
31.63,-163.614,-22.9
31.66,-160.982,-22.441
31.69,-158.279,-21.96
31.73,-155.331,-21.651
31.76,-152.524,-21.479
31.79,-149.786,-21.147
31.82,-147.154,-20.78
31.86,-144.487,-20.276
31.89,-141.609,-19.726
31.92,-138.766,-19.348
31.95,-135.783,-18.959
31.99,-133.116,-18.913
32.02,-130.765,-18.684
32.05,-128.343,-18.203
32.08,-125.816,-17.642
32.12,-123.044,-17.046
32.15,-119.991,-16.439
32.18,-116.762,-15.877
32.21,-113.498,-15.385
32.25,-110.164,-14.961
32.28,-106.935,-14.686
32.31,-103.847,-14.365
32.34,-100.583,-13.884
32.38,-97.179,-13.323
32.41,-93.739,-12.635
32.44,-90.089,-11.937
32.47,-86.299,-11.375
32.51,-82.579,-10.906
32.54,-78.789,-10.379
32.57,-74.893,-9.875
32.6,-71.243,-9.416
32.64,-67.558,-8.901
32.67,-63.698,-8.408
32.7,-60.083,-7.927
32.73,-56.573,-7.435
32.77,-52.959,-7.022
32.8,-49.695,-6.621
32.83,-46.571,-6.175
32.86,-43.378,-5.67
32.9,-40.219,-5.144
32.93,-37.271,-4.468
32.96,-33.937,-3.987
32.99,-31.656,-4.376
33.03,-31.235,-5.9
33.06,-30.392,-4.846
33.09,-26.321,-1.26
33.12,-20.496,0.378
33.16,-14.424,0.389
33.19,-8.669,0.768
33.22,-1.544,1.398
33.25,1.685,1.902
33.29,1.895,3.15
33.32,4.176,3.563
33.35,5.756,3.746
33.39,8.528,4.834
33.42,13.161,5.51
33.45,18.636,5.212
33.48,23.654,4.766
33.52,28.287,4.605
33.55,32.568,4.502
33.58,36.183,4.33
33.61,38.605,4.101
33.65,39.833,3.792
33.68,40.465,4.009
33.71,41.132,5.04
33.74,42.676,6.461
33.78,45.378,7.801
33.81,48.958,9.016
33.84,53.415,9.966
33.87,58.363,10.528
33.91,63.312,10.688
33.94,67.769,10.642
33.97,71.594,10.47
34.0,74.472,10.516
34.04,77.139,10.871
34.07,79.947,11.41
34.1,82.509,12.074
34.13,85.071,13.014
34.17,88.3,13.907
34.2,91.809,14.606
34.23,95.494,15.144
34.26,99.425,15.476
34.3,103.04,15.82
34.33,106.584,16.244
34.36,110.129,16.588
34.39,113.287,16.954
34.43,116.27,17.401
34.46,119.429,17.745
34.49,122.342,18.123
34.52,124.974,18.73
34.56,128.027,19.371
34.59,131.151,19.921
34.62,134.099,20.437
34.65,137.503,20.918
34.69,140.732,21.17
34.72,143.539,21.433
34.75,146.242,21.651
34.78,148.874,21.937
34.82,151.225,22.419
34.85,153.822,22.945
34.88,156.665,23.415
34.91,159.367,23.896
34.95,162.105,24.366
34.98,164.877,24.664
35.01,167.404,24.881
35.04,169.896,25.168
35.08,172.598,25.546
35.11,175.125,26.05
35.14,177.652,26.6
35.17,180.495,27.047
35.21,183.092,27.39
35.24,185.619,27.734
35.27,188.181,28.009
35.3,190.567,28.238
35.34,192.813,28.582
35.37,195.34,28.914
35.4,197.656,29.2
35.44,199.657,29.532
35.47,201.938,29.796
35.5,203.833,29.922
35.53,205.342,30.105
35.57,206.956,30.38
35.6,208.606,30.793
35.63,210.431,31.297
35.66,212.572,31.72
35.7,214.853,32.03
35.73,217.029,32.27
35.76,218.994,32.316
35.79,220.714,32.247
35.83,222.153,32.419
35.86,223.697,32.763
35.89,225.311,33.164
35.92,226.82,33.439
35.96,228.575,33.863
35.99,230.681,34.321
36.02,232.751,34.607
36.05,234.717,34.733
36.09,236.472,34.584
36.12,237.84,34.756
36.15,239.455,35.1
36.18,240.999,35.34
36.22,242.403,35.581
36.25,243.877,35.856
36.28,245.316,35.925
36.31,246.404,36.039
36.35,247.772,36.406
36.38,249.422,36.761
36.41,251.106,37.059
36.44,252.756,37.379
36.48,254.546,37.528
36.51,256.02,37.586
36.54,257.353,37.574
36.57,258.582,37.505
36.61,259.319,37.528
36.64,260.126,37.803
36.67,261.249,38.216
36.7,262.582,38.64
36.74,263.846,38.937
36.77,265.32,39.041
36.8,266.583,39.086
36.83,267.741,39.224
36.87,269.075,39.338
36.9,270.233,39.407
36.93,271.286,39.636
36.96,272.514,39.831
37.0,273.602,39.934
37.03,274.445,40.094
37.06,275.357,40.106
37.09,276.024,40.049
37.13,276.305,40.083
37.16,276.796,40.14
37.19,277.287,40.243
37.22,277.779,40.598
37.26,278.481,40.816
37.29,279.182,40.828
37.32,279.849,40.885
37.35,280.586,40.976
37.39,281.078,40.862
37.42,281.218,40.644
37.45,281.288,40.69
37.49,281.744,41.137
37.52,281.99,40.976
37.55,281.815,40.736
37.58,281.744,40.759
37.62,281.604,40.736
37.65,281.288,40.69
37.68,280.902,40.484
37.71,280.376,40.53
37.75,280.095,40.724
37.78,279.849,40.77
37.81,279.463,40.541
37.84,278.831,40.198
37.88,277.779,39.945
37.91,276.656,39.682
37.94,275.392,39.43
37.97,274.129,39.522
38.01,273.322,39.751
38.04,272.549,39.739
38.07,271.672,39.499
38.1,270.654,39.132
38.14,269.496,38.628
38.17,267.636,38.136
38.2,265.636,37.826
38.23,263.741,37.723
38.27,261.88,37.746
38.3,260.301,37.757
38.33,259.003,37.723
38.36,257.704,37.666
38.4,256.581,37.517
38.43,255.739,37.127
38.46,254.51,36.749
38.49,253.072,36.452
38.53,251.738,36.177
38.56,250.264,35.959
38.59,248.72,35.787
38.62,247.07,35.501
38.66,245.245,35.134
38.69,243.245,34.871
38.72,241.49,34.745
38.75,239.7,34.55
38.79,237.981,34.412
38.82,236.647,34.355
38.85,235.068,34.046
38.88,233.243,33.576
38.92,231.453,33.152
38.95,229.628,32.9
38.98,227.592,32.706
39.01,225.768,32.419
39.05,223.907,32.213
39.08,221.802,31.984
39.11,220.082,31.801
39.14,218.433,31.514
39.18,216.467,31.148
39.21,214.853,31.079
39.24,213.449,30.953
39.27,211.87,30.712
39.31,210.361,30.46
39.34,209.062,30.151
39.37,207.307,29.727
39.4,205.132,29.154
39.44,202.885,28.547
39.47,200.148,28.215
39.5,197.551,28.032
39.53,195.2,27.883
39.57,192.708,27.745
39.6,190.602,27.596
39.63,188.882,27.31
39.67,186.812,26.863
39.7,184.46,26.405
39.73,182.32,25.752
39.76,179.758,25.122
39.8,176.81,24.721
39.83,174.178,24.538
39.86,171.44,24.343
39.89,168.633,24.057
39.93,166.211,23.702
39.96,163.649,23.255
39.99,160.701,22.785
40.02,158.139,22.373
40.06,155.542,22.018
40.09,152.348,21.491
40.12,149.611,21.25
40.15,146.944,20.987
40.19,144.206,20.78
40.22,141.89,20.437
40.25,139.503,19.715
40.28,136.661,19.348
40.32,134.134,19.016
40.35,131.888,18.695
40.38,129.221,18.283
40.41,126.553,17.79
40.45,123.816,17.16
40.48,120.447,16.588
40.51,117.183,16.141
40.54,114.059,15.614
40.58,110.55,15.202
40.61,107.321,14.961
40.64,104.443,14.526
40.67,100.864,13.953
40.71,97.319,13.392
40.74,94.125,12.704
40.77,90.23,12.086
40.8,86.404,11.639
40.84,82.895,11.089
40.87,78.999,10.596
40.9,75.56,10.528
40.93,73.419,10.722
40.97,71.384,10.619
41.0,69.243,10.127
41.03,67.313,9.245
41.06,64.435,8.179
41.1,60.785,7.32
41.13,56.889,6.575
41.16,52.432,5.9
41.19,47.414,5.235
41.23,42.57,4.559
41.26,37.341,3.987
41.29,32.323,3.769
41.32,29.059,4.319
41.36,27.339,5.292
41.39,24.321,3.7
41.42,19.688,0.768
41.45,13.687,-0.481
41.49,7.686,-0.619
41.52,1.649,-0.653
41.55,-1.193,-1.077
41.58,-0.948,-2.417
41.62,-2.632,-2.818
41.65,-4.106,-2.658
41.68,-5.58,-3.746
41.72,-8.598,-4.834
41.75,-13.301,-5.063
41.78,-18.495,-4.995
41.81,-23.584,-4.857
41.85,-28.392,-4.582
41.88,-32.849,-4.41
41.91,-36.499,-4.422
41.94,-39.377,-4.628
41.98,-42.009,-4.846
42.01,-43.729,-4.892
42.04,-44.501,-5.407
42.07,-45.869,-6.575
42.11,-48.466,-7.927
42.14,-51.625,-9.13
42.17,-55.696,-10.058
42.2,-60.294,-10.688
42.24,-64.961,-11.089
42.27,-69.453,-11.1
42.3,-73.209,-10.86
42.33,-75.735,-10.929
42.37,-78.543,-11.375
42.4,-81.631,-11.856
42.43,-83.948,-12.509
42.46,-86.58,-13.437
42.5,-90.089,-14.274
42.53,-93.494,-14.915
42.56,-97.038,-15.396
42.59,-101.039,-15.786
42.63,-104.724,-16.255
42.66,-108.374,-16.737
42.69,-112.199,-17.0
42.72,-115.253,-17.332
42.76,-118.13,-17.768
42.79,-121.394,-18.031
42.82,-123.886,-18.317
42.85,-126.202,-19.016
42.89,-129.291,-19.795
42.92,-132.414,-20.448
42.95,-135.503,-20.998
42.98,-139.153,-21.399
43.02,-142.311,-21.582
43.05,-145.013,-21.823
43.08,-147.961,-22.04
43.11,-150.418,-22.304
43.15,-152.734,-22.865
43.18,-155.717,-23.507
43.21,-158.771,-23.976
43.24,-161.227,-24.435
43.28,-164.105,-24.847
43.31,-166.913,-25.019
43.34,-169.159,-25.225
43.37,-171.721,-25.58
43.41,-174.283,-26.016
43.44,-176.669,-26.6
43.47,-179.442,-27.115
43.5,-182.32,-27.459
43.54,-184.846,-27.826
43.57,-187.549,-28.1
43.6,-190.216,-28.261
43.63,-190.813,-27.173
43.67,-188.637,-24.813
43.7,-185.162,-23.954
43.73,-182.004,-24.87
43.77,-180.074,-26.29
43.8,-180.249,-28.066
43.83,-182.004,-29.498
43.86,-184.952,-30.506
43.9,-189.128,-31.537
43.93,-194.919,-31.972
43.96,-200.955,-31.732
43.99,-206.5,-31.514
44.03,-211.063,-31.617
44.06,-215.099,-31.56
44.09,-218.327,-31.171
44.12,-219.801,-30.953
44.16,-220.503,-31.48
44.19,-222.188,-32.282
44.22,-223.767,-32.992
44.25,-225.276,-33.897
44.29,-227.873,-34.745
44.32,-230.751,-35.02
44.35,-233.243,-35.008
44.38,-235.419,-34.974
44.42,-237.349,-35.043
44.45,-239.174,-35.272
44.48,-241.069,-35.421
44.51,-242.683,-35.547
44.55,-243.771,-35.81
44.58,-245.0,-36.074
44.61,-246.228,-36.222
44.64,-247.176,-36.452
44.68,-248.474,-36.795
44.71,-249.948,-37.082
44.74,-251.352,-37.46
44.77,-253.001,-37.792
44.81,-254.897,-37.975
44.84,-256.546,-38.067
44.87,-257.95,-38.044
44.9,-259.038,-37.941
44.94,-259.845,-38.021
44.97,-260.757,-38.307
45.0,-261.916,-38.685
45.03,-262.968,-39.052
45.07,-263.986,-39.419
45.1,-265.285,-39.659
45.13,-266.724,-39.693
45.16,-268.092,-39.682
45.2,-269.461,-39.659
45.23,-270.549,-39.693
45.26,-271.461,-39.911
45.29,-272.62,-40.129
45.33,-273.672,-40.289
45.36,-274.55,-40.438
45.39,-275.322,-40.438
45.42,-275.848,-40.346
45.46,-276.199,-40.324
45.49,-276.48,-40.358
45.52,-276.831,-40.541
45.55,-277.252,-40.931
45.59,-277.919,-41.103
45.62,-278.516,-41.091
45.65,-278.902,-41.057
45.68,-279.288,-40.942
45.72,-279.323,-40.736
45.75,-279.253,-40.644
45.78,-279.253,-40.793
45.82,-279.428,-41.045
45.85,-279.604,-41.137
45.88,-279.709,-41.137
45.91,-279.884,-41.057
45.95,-279.744,-40.919
45.98,-279.393,-40.69
46.01,-279.007,-40.633
46.04,-278.831,-40.782
46.08,-278.726,-40.965
46.11,-278.621,-40.942
46.14,-278.235,-40.805
46.17,-277.744,-40.53
46.21,-276.971,-40.152
46.24,-275.919,-39.877
46.27,-274.796,-39.797
46.3,-273.883,-39.877
46.34,-273.006,-39.934
46.37,-272.128,-39.877
46.4,-271.111,-39.716
46.43,-270.163,-39.43
46.47,-269.005,-38.995
46.5,-267.32,-38.571
46.53,-265.636,-38.376
46.56,-264.162,-38.376
46.6,-262.723,-38.388
46.63,-261.53,-38.296
46.66,-260.301,-38.136
46.69,-259.038,-37.895
46.73,-257.634,-37.574
46.76,-256.335,-37.242
46.79,-254.791,-37.024
46.82,-253.493,-36.91
46.86,-252.124,-36.726
46.89,-250.615,-36.497
46.92,-249.281,-36.245
46.95,-247.737,-35.879
46.99,-245.772,-35.478
47.02,-243.771,-35.214
47.05,-241.946,-35.077
47.08,-240.121,-34.974
47.12,-238.472,-34.836
47.15,-237.068,-34.699
47.18,-235.664,-34.664
47.21,-234.331,-34.424
47.25,-232.927,-33.966
47.28,-231.418,-33.633
47.31,-229.839,-33.404
47.34,-228.224,-33.061
47.38,-226.399,-32.694
47.41,-224.188,-32.396
47.44,-222.258,-32.202
47.47,-220.152,-31.766
47.51,-217.836,-31.445
47.54,-215.836,-31.377
47.57,-213.87,-31.09
47.6,-211.484,-30.632
47.64,-209.413,-30.426
47.67,-207.483,-30.197
47.7,-205.518,-29.853
47.73,-203.482,-29.452
47.77,-201.411,-29.223
47.8,-199.2,-28.937
47.83,-197.06,-28.478
47.86,-194.989,-28.135
47.9,-192.743,-27.86
47.93,-190.848,-27.848
47.96,-189.093,-27.574
48.0,-187.057,-27.047
48.03,-184.741,-26.474
48.06,-182.355,-25.89
48.09,-179.582,-25.408
48.13,-176.845,-25.156
48.16,-174.458,-25.111
48.19,-171.721,-24.641
48.22,-168.843,-24.206
48.26,-166.246,-23.782
48.29,-163.474,-23.358
48.32,-160.841,-23.152
48.35,-158.35,-22.625
48.39,-155.542,-22.315
48.42,-152.91,-22.155
48.45,-150.629,-21.788
48.48,-148.172,-21.273
48.52,-145.364,-20.746
48.55,-142.802,-20.208
48.58,-140.03,-19.669
48.61,-136.942,-19.234
48.65,-133.994,-18.936
48.68,-131.221,-18.776
48.71,-128.589,-18.569
48.74,-125.992,-18.146
48.78,-123.325,-17.538
48.81,-120.271,-16.863
48.84,-117.218,-16.244
48.87,-113.954,-15.774
48.91,-110.62,-15.431
48.94,-107.462,-15.053
48.97,-104.268,-14.594
49.0,-100.899,-14.136
49.04,-97.495,-13.621
49.07,-94.125,-13.002
49.1,-90.265,-12.372
49.13,-86.615,-11.811
49.17,-82.93,-11.215
49.2,-78.999,-10.688
49.23,-75.314,-10.253
49.26,-71.735,-9.783
49.3,-67.874,-9.302
49.33,-64.224,-8.821
49.36,-60.855,-8.237
49.39,-57.275,-7.641
49.43,-53.731,-7.206
49.46,-50.362,-6.736
49.49,-46.992,-6.278
49.52,-43.729,-5.682
49.56,-40.359,-4.914
49.59,-36.815,-4.204
49.62,-33.06,-3.849
49.65,-30.357,-4.193
49.69,-29.445,-5.682
49.72,-28.462,-4.96
49.75,-24.918,-1.707
49.78,-19.724,-0.252
49.82,-14.494,-0.298
49.85,-9.581,0.183
49.88,-3.51,0.997
49.91,1.123,1.168
49.95,1.018,2.085
49.98,2.632,3.23
50.01,5.159,3.505
50.05,7.44,4.261
50.08,11.441,5.338
50.11,16.846,5.636
50.14,22.25,5.052
50.18,26.848,4.353
50.21,30.779,4.158
50.24,34.288,4.353
50.27,37.341,4.376
50.31,39.482,4.25
50.34,40.746,4.41
50.37,41.798,5.155
50.4,43.518,6.358
50.44,46.15,7.71
50.47,49.73,8.935
50.5,53.906,9.84
50.53,58.539,10.379
50.57,63.206,10.619
50.6,67.593,10.711
50.63,71.349,10.722
50.66,74.542,10.791
50.7,77.42,11.043
50.73,80.017,11.524
50.76,82.404,12.2
50.79,85.141,13.036
50.83,88.194,13.815
50.86,91.458,14.594
50.89,95.178,15.224
50.92,98.933,15.683
50.96,102.654,16.026
50.99,106.233,16.404
51.02,109.743,16.794
51.05,113.217,17.286
51.09,116.411,17.516
51.12,119.429,17.859
51.15,122.202,18.272
51.18,124.763,18.776
51.22,127.606,19.394
51.25,130.414,19.91
51.28,133.432,20.54
51.31,136.766,21.101
51.35,139.96,21.422
51.38,142.873,21.651
51.41,145.61,21.995
51.44,148.347,22.407
51.48,151.155,22.797
51.51,153.963,23.209
51.54,156.805,23.621
51.57,159.578,24.08
51.61,162.28,24.481
51.64,164.842,24.755
51.67,167.229,25.065
51.7,169.756,25.42
51.74,172.282,25.867
51.77,174.809,26.394
51.8,177.441,26.943
51.83,180.214,27.367
51.87,182.986,27.711
51.9,185.513,27.963
51.93,187.97,28.169
51.96,190.356,28.375
52.0,192.532,28.685
52.03,194.708,29.109
52.06,196.779,29.521
52.1,198.99,29.91
52.13,201.201,30.243
52.16,203.201,30.403
52.19,205.096,30.552
52.23,206.956,30.793
52.26,208.852,31.171
52.29,210.782,31.514
52.32,212.677,31.846
52.36,214.748,32.236
52.39,216.924,32.591
52.42,218.819,32.728
52.45,220.609,32.797
52.49,222.188,33.015
52.52,223.943,33.416
52.55,225.732,33.759
52.58,227.522,34.0
52.62,229.312,34.172
52.65,231.067,34.458
52.68,232.751,34.676
52.71,234.331,34.905
52.75,235.875,35.031
52.78,237.384,35.214
52.81,238.858,35.512
52.84,240.262,35.707
52.88,241.736,36.028
52.91,243.315,36.348
52.94,244.824,36.543
52.97,246.333,36.704
53.01,247.772,36.933
53.04,249.387,37.162
53.07,250.966,37.379
53.1,252.51,37.62
53.14,254.16,37.872
53.17,255.774,38.055
53.2,257.143,38.067
53.23,258.16,38.055
53.27,259.073,38.124
53.3,260.02,38.376
53.33,261.179,38.777
53.36,262.512,39.201
53.4,263.951,39.407
53.43,265.32,39.487
53.46,266.478,39.545
53.49,267.636,39.613
53.53,268.794,39.728
53.56,269.812,39.945
53.59,270.97,40.163
53.62,272.163,40.404
53.66,273.357,40.564
53.69,274.409,40.656
53.72,275.252,40.633
53.75,275.989,40.598
53.79,276.55,40.598
53.82,276.901,40.702
53.85,277.428,40.954
53.88,278.059,41.217
53.92,278.656,41.286
53.95,279.288,41.332
53.98,279.674,41.217
54.01,280.095,41.206
54.05,280.446,41.389
54.08,280.762,41.286
54.11,280.972,41.389
54.15,281.323,41.584
54.18,281.674,41.572
54.21,281.709,41.412
54.24,281.744,41.355
54.28,281.744,41.309
54.31,281.288,41.103
54.34,280.621,40.908
54.37,280.095,41.022
54.41,279.744,41.183
54.44,279.358,41.148
54.47,278.796,40.954
54.5,278.094,40.713
54.54,277.252,40.45
54.57,276.059,40.117
54.6,274.69,39.911
54.63,273.497,40.049
54.67,272.655,40.255
54.7,271.988,40.22
54.73,271.04,39.991
54.76,270.023,39.636
54.8,268.759,39.132
54.83,267.075,38.582
54.86,265.074,38.284
54.89,263.214,38.284
54.93,261.565,38.307
54.96,259.985,38.284
54.99,258.722,38.25
55.02,257.739,38.032
55.06,256.546,37.757
55.09,255.283,37.551
55.12,254.335,37.322
55.15,253.142,37.024
55.19,251.808,36.738
55.22,250.404,36.497
55.25,248.825,36.2
55.28,247.0,35.844
55.32,245.105,35.524
55.35,243.069,35.352
55.38,241.139,35.214
55.41,239.349,34.951
55.45,237.524,34.813
55.48,236.015,34.894
55.51,234.892,34.905
55.54,233.804,34.424
55.58,232.155,33.817
55.61,230.365,33.381
55.64,228.505,32.992
55.67,226.329,32.625
55.71,224.153,32.465
55.74,222.012,32.396
55.77,220.187,32.419
55.8,218.643,32.19
55.84,216.924,31.789
55.87,214.958,31.491
55.9,213.274,31.285
55.93,211.729,30.941
55.97,209.904,30.552
56.0,208.044,30.197
56.03,206.149,29.784
56.06,203.693,29.212
56.1,201.06,28.822
56.13,198.393,28.582
56.16,195.901,28.478
56.2,193.69,28.364
56.23,191.83,28.249
56.26,189.865,28.066
56.29,188.11,27.86
56.33,186.671,27.321
56.36,184.882,26.806
56.39,182.565,26.027
56.42,179.863,25.317
56.46,177.055,25.088
56.49,174.423,25.099
56.52,171.896,24.744
56.55,168.983,24.263
56.59,166.141,23.942
56.62,163.789,23.759
56.65,161.157,23.175
56.68,158.279,22.636
56.72,155.542,22.373
56.75,152.84,21.972
56.78,150.102,21.788
56.81,147.821,21.617
56.85,145.61,21.147
56.88,142.873,20.574
56.91,140.24,20.013
56.94,137.503,19.486
56.98,134.485,19.188
57.01,131.888,18.947
57.04,129.291,18.478
57.07,126.273,17.939
57.11,123.219,17.401
57.14,120.131,16.828
57.17,116.516,16.381
57.2,113.252,15.992
57.24,110.199,15.637
57.27,107.005,15.316
57.3,104.128,14.858
57.33,101.32,14.148
57.37,97.916,13.449
57.4,94.371,12.773
57.43,90.721,12.086
57.46,86.58,11.559
57.5,82.895,11.398
57.53,79.807,11.261
57.56,76.648,10.94
57.59,73.524,10.459
57.63,70.576,9.783
57.66,66.997,8.981
57.69,63.066,8.259
57.72,59.346,7.515
57.76,55.135,6.805
57.79,50.607,6.232
57.82,46.396,5.751
57.85,42.184,5.327
57.89,37.973,5.029
57.92,34.569,4.651
57.95,31.34,4.319
57.98,28.883,4.628
58.02,28.462,5.544
58.05,27.76,4.261
58.08,24.286,1.466
58.11,19.653,0.332
58.15,14.705,0.103
58.18,9.686,-0.424
58.21,3.65,-0.985
58.24,-0.842,-1.031
58.28,-0.842,-2.005
58.31,-2.386,-3.208
58.34,-4.984,-3.368
58.38,-6.879,-4.124
58.41,-10.564,-5.453
58.44,-16.425,-6.049
58.47,-22.777,-5.888
58.51,-28.673,-5.373
58.54,-33.586,-4.777
58.57,-37.587,-4.33
58.6,-40.289,-4.193
58.64,-41.869,-4.239
58.67,-42.816,-4.307
58.7,-43.378,-4.834
58.73,-44.009,-6.175
58.77,-46.185,-7.836
58.8,-49.835,-9.256
58.83,-54.187,-10.276
58.86,-58.96,-10.894
58.9,-63.908,-11.089
58.93,-68.471,-11.009
58.96,-72.577,-10.757
58.99,-75.806,-10.539
59.03,-77.736,-10.803
59.06,-79.912,-11.421
59.09,-82.579,-12.086
59.12,-84.79,-13.014
59.16,-87.563,-14.136
59.19,-91.423,-14.995
59.22,-95.319,-15.568
59.25,-99.249,-15.877
59.29,-103.355,-16.072
59.32,-106.689,-16.267
59.35,-109.848,-16.507
59.38,-113.147,-16.794
59.42,-115.498,-17.011
59.45,-117.885,-17.768
59.48,-121.008,-18.478
59.51,-123.921,-19.016
59.55,-127.01,-19.921
59.58,-130.835,-20.437
59.61,-134.415,-20.803
59.64,-137.679,-21.33
59.68,-141.223,-21.502
59.71,-144.136,-21.559
59.74,-146.558,-21.972
59.77,-149.541,-22.361
59.81,-152.243,-22.716
59.84,-154.524,-23.278
59.87,-157.191,-23.782
59.9,-159.964,-24.148
59.94,-162.21,-24.641
59.97,-164.877,-25.168
60.0,-167.58,-25.534
60.03,-170.142,-25.844
60.07,-172.914,-26.084
60.1,-175.652,-26.416
60.13,-178.003,-26.875
60.16,-180.53,-27.207
60.2,-182.881,-27.058
60.23,-184.039,-26.806
60.26,-184.882,-26.921
60.29,-185.899,-27.23
60.33,-186.882,-27.791
60.36,-188.426,-28.742
60.39,-191.058,-29.658
60.43,-194.147,-30.392
60.46,-197.551,-30.884
60.49,-201.131,-31.045
60.52,-204.289,-31.079
60.56,-207.343,-31.136
60.59,-210.326,-31.171
60.62,-212.502,-31.514
60.65,-214.783,-32.041
60.69,-217.38,-32.27
60.72,-219.099,-32.362
60.75,-220.363,-32.671
60.78,-222.047,-32.9
60.82,-223.346,-33.095
60.85,-224.574,-33.45
60.88,-226.259,-33.782
60.91,-227.768,-34.126
60.95,-229.277,-34.412
60.98,-231.032,-34.642
61.01,-232.751,-34.871
61.04,-234.401,-35.146
61.08,-236.156,-35.306
61.11,-237.77,-35.409
61.14,-239.174,-35.592
61.17,-240.718,-35.776
61.21,-242.087,-36.005
61.24,-243.175,-36.348
61.27,-244.614,-36.612
61.3,-246.158,-36.784
61.34,-247.527,-37.024
61.37,-249.141,-37.265
61.4,-250.79,-37.448
61.43,-252.229,-37.643
61.47,-253.844,-37.906
61.5,-255.458,-38.01
61.53,-256.546,-37.987
61.56,-257.669,-38.044
61.6,-258.757,-38.262
61.63,-259.74,-38.525
61.66,-260.863,-38.823
61.69,-262.267,-39.178
61.73,-263.705,-39.476
61.76,-265.039,-39.613
61.79,-266.373,-39.625
61.82,-267.566,-39.693
61.86,-268.759,-39.819
61.89,-269.917,-39.854
61.92,-270.83,-40.106
61.95,-271.848,-40.495
61.99,-273.111,-40.644
62.02,-274.129,-40.61
62.05,-274.725,-40.633
62.08,-275.357,-40.61
62.12,-275.848,-40.553
62.15,-276.199,-40.667
62.18,-276.761,-40.942
62.21,-277.533,-41.16
62.25,-278.024,-41.297
62.28,-278.621,-41.332
62.31,-279.253,-41.309
62.34,-279.604,-41.32
62.38,-279.919,-41.24
62.41,-280.095,-41.24
62.44,-280.446,-41.446
62.48,-280.902,-41.595
62.51,-281.253,-41.698
62.54,-281.709,-41.755
62.57,-282.025,-41.664
62.61,-282.06,-41.492
62.64,-281.885,-41.263
62.67,-281.429,-41.091
62.7,-280.937,-41.103
62.74,-280.446,-41.206
62.77,-279.884,-41.24
62.8,-279.323,-41.057
62.83,-278.481,-40.77
62.87,-277.393,-40.495
62.9,-276.129,-40.255
62.93,-274.971,-40.175
62.96,-273.918,-40.278
63.0,-273.006,-40.392
63.03,-272.269,-40.243
63.06,-271.356,-39.9
63.09,-270.023,-39.487
63.13,-268.619,-39.041
63.16,-266.864,-38.594
63.19,-264.828,-38.365
63.22,-263.039,-38.353
63.26,-261.389,-38.422
63.29,-259.88,-38.468
63.32,-258.757,-38.41
63.35,-257.774,-38.09
63.39,-256.406,-37.769
63.42,-255.002,-37.448
63.45,-253.703,-37.139
63.48,-252.299,-36.933
63.52,-250.861,-36.738
63.55,-249.562,-36.52
63.58,-247.878,-36.303
63.61,-246.158,-35.925
63.65,-244.368,-35.489
63.68,-242.297,-35.26
63.71,-240.402,-35.18
63.74,-238.823,-34.997
63.78,-236.858,-34.71
63.81,-235.278,-34.802
63.84,-234.401,-34.768
63.87,-233.067,-34.321
63.91,-231.313,-33.805
63.94,-229.663,-33.439
63.97,-227.873,-33.141
64.0,-225.803,-32.797
64.04,-223.802,-32.465
64.07,-221.732,-32.236
64.1,-219.591,-32.053
64.13,-217.59,-31.755
64.17,-215.52,-31.526
64.2,-213.519,-31.434
64.23,-212.01,-31.274
64.26,-210.501,-31.033
64.3,-208.781,-30.793
64.33,-207.343,-30.483
64.36,-205.728,-30.002
64.39,-203.693,-29.567
64.43,-201.552,-29.074
64.46,-199.306,-28.662
64.49,-196.709,-28.41
64.53,-194.568,-28.33
64.56,-192.532,-28.181
64.59,-190.392,-28.032
64.62,-188.461,-27.665
64.66,-186.566,-27.081
64.69,-184.039,-26.554
64.72,-181.477,-26.153
64.75,-179.196,-25.741
64.79,-176.599,-25.5
64.82,-174.142,-25.351
64.85,-172.037,-25.019
64.88,-169.405,-24.526
64.92,-166.632,-24.022
64.95,-164.14,-23.484
64.98,-161.192,-22.923
65.01,-157.964,-22.51
65.05,-155.226,-22.304
65.08,-152.454,-22.189
65.11,-149.821,-21.983
65.14,-147.54,-21.514
65.18,-144.943,-21.032
65.21,-142.311,-20.551
65.24,-139.925,-19.967
65.27,-137.082,-19.383
65.31,-133.923,-18.936
65.34,-131.046,-18.65
65.37,-128.203,-18.398
65.4,-125.36,-18.1
65.44,-122.763,-17.619
65.47,-119.815,-17.057
65.5,-116.516,-16.576
65.53,-113.533,-16.106
65.57,-110.55,-15.58
65.6,-107.286,-15.19
65.63,-104.303,-14.743
65.66,-101.144,-14.102
65.7,-97.319,-13.46
65.73,-93.564,-12.819
65.76,-89.809,-12.086
65.79,-85.597,-11.57
65.83,-81.737,-11.192
65.86,-78.017,-10.711
65.89,-73.946,-10.356
65.92,-70.506,-9.989
65.96,-67.488,-9.439
65.99,-63.908,-8.901
66.02,-60.539,-8.397
66.05,-57.451,-7.744
66.09,-53.766,-7.137
66.12,-50.291,-6.656
66.15,-47.133,-6.129
66.18,-43.694,-5.682
66.22,-40.324,-5.35
66.25,-37.236,-4.708
66.28,-33.551,-4.078
66.31,-30.533,-4.135
66.35,-29.726,-5.602
66.38,-29.515,-5.59
66.41,-26.357,-2.291
66.44,-21.127,-0.046
66.48,-15.266,0.206
66.51,-9.616,0.538
66.54,-2.878,1.226
66.57,1.474,1.558
66.61,1.474,2.749
66.64,3.51,3.574
66.67,5.475,3.7
66.71,7.721,4.571
66.74,12.108,5.682
66.77,18.074,5.842
66.8,23.865,5.258
66.84,28.883,4.788
66.87,33.235,4.559
66.9,37.025,4.365
66.93,39.377,4.044
66.97,40.395,3.895
67.0,41.167,4.296
67.03,42.044,5.327
67.06,43.588,6.862
67.1,46.606,8.328
67.13,50.713,9.474
67.16,55.24,10.344
67.19,60.294,10.848
67.23,65.102,10.848
67.26,69.138,10.619
67.29,72.787,10.333
67.32,75.455,10.253
67.36,77.174,10.768
67.39,79.456,11.639
67.42,82.018,12.498
67.45,84.579,13.449
67.49,87.808,14.297
67.52,91.599,14.881
67.55,95.354,15.328
67.58,99.249,15.522
67.62,102.899,15.671
67.65,105.672,15.797
67.68,108.479,16.187
67.71,111.392,16.737
67.75,114.165,17.573
67.78,117.323,18.249
67.81,120.692,18.821
67.84,124.202,19.509
67.88,127.852,19.933
67.91,131.712,20.368
67.94,134.941,20.689
67.97,138.135,21.044
68.01,141.328,21.193
68.04,143.785,21.319
68.07,145.926,21.777
68.1,148.453,22.304
68.14,150.804,22.934
68.17,153.331,23.598
68.2,156.384,24.148
68.23,159.297,24.549
68.27,162.175,24.87
68.3,165.193,25.053
68.33,167.825,25.225
68.36,170.107,25.512
68.4,172.598,25.867
68.43,174.985,26.29
68.46,177.301,26.898
68.49,179.933,27.436
68.53,182.565,27.734
68.56,184.776,27.917
68.59,187.163,28.135
68.62,189.374,28.364
68.66,191.444,28.799
68.69,193.796,29.326
68.72,196.323,29.739
68.76,198.569,30.082
68.79,200.92,30.346
68.82,203.096,30.449
68.85,204.991,30.621
68.89,206.851,30.896
68.92,208.676,31.171
68.95,210.326,31.537
68.98,212.151,31.961
69.02,214.326,32.385
69.05,216.467,32.797
69.08,218.468,32.958
69.11,220.258,32.958
69.15,221.802,33.129
69.18,223.381,33.45
69.21,225.171,33.679
69.24,226.68,33.943
69.28,228.294,34.367
69.31,230.154,34.653
69.34,231.874,34.79
69.37,233.453,34.985
69.41,235.173,35.237
69.44,236.823,35.466
69.47,238.437,35.684
69.5,240.192,35.982
69.54,241.946,36.314
69.57,243.631,36.6
69.6,245.21,36.6
69.63,246.544,36.589
69.67,247.702,36.818
69.7,249.106,37.196
69.73,250.615,37.54
69.76,252.124,37.861
69.8,253.738,38.147
69.83,255.388,38.376
69.86,256.862,38.388
69.89,258.125,38.262
69.93,259.108,38.284
69.96,259.915,38.571
69.99,261.073,38.949
70.02,262.512,39.338
70.06,263.776,39.602
70.09,265.074,39.705
70.12,266.338,39.716
70.15,267.496,39.877
70.19,268.689,40.026
70.22,269.777,40.198
70.25,270.76,40.484
70.28,271.953,40.782
70.32,273.286,40.873
70.35,274.339,40.828
70.38,275.252,40.747
70.41,275.919,40.702
70.45,276.34,40.69
70.48,276.656,40.77
70.51,277.112,41.034
70.54,277.673,41.332
70.58,278.27,41.469
70.61,278.831,41.446
70.64,279.393,41.503
70.67,279.919,41.561
70.71,280.235,41.481
70.74,280.481,41.435
70.77,280.762,41.595
70.81,281.148,41.778
70.84,281.323,41.664
70.87,281.393,41.629
70.9,281.358,41.481
70.94,281.113,41.332
70.97,280.867,41.412
71.0,280.621,41.332
71.03,280.2,41.389
71.07,279.99,41.469
71.1,279.674,41.389
71.13,279.077,41.125
71.16,278.375,40.862
71.2,277.393,40.644
71.23,276.199,40.427
71.26,274.971,40.278
71.29,273.953,40.415
71.33,273.146,40.541
71.36,272.374,40.461
71.39,271.461,40.152
71.42,270.374,39.774
71.46,269.075,39.373
71.49,267.426,38.983
71.52,265.601,38.8
71.55,264.056,38.823
71.59,262.653,38.811
71.62,261.249,38.651
71.65,259.88,38.388
71.68,258.476,38.113
71.72,257.037,37.872
71.75,255.669,37.689
71.78,254.335,37.448
71.81,252.686,37.208
71.85,251.387,36.967
71.88,249.913,36.795
71.91,248.474,36.658
71.94,247.0,36.314
71.98,245.245,35.867
72.01,243.35,35.524
72.04,241.525,35.398
72.07,239.7,35.169
72.11,237.805,34.974
72.14,236.156,34.871
72.17,234.576,34.561
72.2,232.751,34.126
72.24,230.856,33.782
72.27,228.961,33.553
72.3,227.101,33.359
72.33,225.452,33.29
72.37,223.907,33.003
72.4,222.118,32.591
72.43,220.398,32.442
72.46,218.889,32.293
72.5,217.274,31.961
72.53,215.485,31.594
72.56,213.765,31.377
72.59,211.975,31.125
72.63,210.255,30.815
72.66,208.43,30.506
72.69,206.43,30.151
72.72,204.324,29.727
72.76,202.008,29.326
72.79,199.657,28.96
72.82,197.2,28.673
72.86,194.989,28.559
72.89,192.883,28.444
72.92,191.023,28.181
72.95,189.058,27.745
72.99,186.917,27.207
73.02,184.39,26.749
73.05,182.004,26.313
73.08,179.442,25.809
73.12,176.704,25.489
73.15,174.178,25.305
73.18,171.721,25.076
73.21,169.229,24.595
73.25,166.597,24.102
73.28,163.789,23.633
73.31,160.982,23.152
73.34,158.104,22.762
73.38,155.402,22.533
73.41,152.805,22.258
73.44,150.137,21.903
73.47,147.47,21.33
73.51,144.627,20.735
73.54,141.644,20.162
73.57,138.626,19.921
73.6,135.818,19.635
73.64,133.151,19.36
73.67,130.73,19.257
73.7,128.519,18.856
73.73,125.992,18.214
73.77,123.114,17.527
73.8,120.131,16.851
73.83,116.902,16.244
73.86,113.498,15.774
73.9,110.199,15.511
73.93,107.146,15.259
73.96,104.128,14.812
73.99,100.899,14.182
74.03,97.53,13.54
74.06,94.055,12.887
74.09,90.475,12.257
74.12,86.545,11.616
74.16,82.474,11.181
74.19,78.578,10.883
74.22,74.963,10.585
74.25,71.594,10.15
74.29,68.295,9.623
74.32,64.961,8.993
74.35,61.452,8.385
74.38,57.977,7.87
74.42,54.608,7.343
74.45,51.099,6.724
74.48,47.379,6.117
74.51,43.729,5.499
74.55,40.009,4.972
74.58,36.218,4.513
74.61,32.639,4.17
74.64,30.042,4.468
74.68,29.48,5.934
74.71,28.918,5.155
74.74,25.76,1.993
74.77,20.811,0.596
74.81,16.039,0.458
74.84,11.16,-0.046
74.87,5.615,-0.836
74.9,0.0,-0.974
74.94,-0.912,-1.558
74.97,-1.79,-3.013
75.0,-4.738,-3.62
75.04,-7.405,-4.319
75.07,-11.511,-5.522
75.1,-17.232,-5.945
75.13,-23.268,-5.567
75.17,-28.673,-4.937
75.2,-33.165,-4.525
75.23,-36.569,-4.261
75.26,-38.991,-3.998
75.3,-40.149,-3.78
75.33,-40.43,-4.032
75.36,-41.061,-5.029
75.39,-42.711,-6.564
75.43,-45.624,-8.168
75.46,-49.379,-9.428
75.49,-53.836,-10.23
75.52,-58.82,-10.665
75.56,-63.733,-10.768
75.59,-68.085,-10.699
75.62,-71.629,-10.654
75.65,-74.542,-10.734
75.69,-77.245,-11.043
75.72,-79.561,-11.65
75.75,-82.228,-12.452
75.78,-85.246,-13.266
75.82,-88.37,-14.079
75.85,-91.985,-14.835
75.88,-95.845,-15.396
75.91,-99.67,-15.774
75.95,-103.285,-16.129
75.98,-106.865,-16.404
76.01,-110.023,-16.759
76.04,-113.112,-17.252
76.08,-116.341,-17.607
76.11,-119.183,-18.054
76.14,-121.956,-18.592
76.17,-125.079,-19.108
76.21,-128.027,-19.543
76.24,-130.975,-20.185
76.27,-134.274,-20.746
76.3,-137.538,-21.147
76.34,-140.591,-21.605
76.37,-143.61,-21.594
76.4,-146.136,-21.811
76.43,-148.488,-22.189
76.47,-150.98,-22.636
76.5,-153.401,-23.071
76.53,-155.612,-23.587
76.56,-158.279,-24.228
76.6,-161.227,-24.755
76.63,-164.07,-25.248
76.66,-167.159,-25.58
76.69,-170.036,-25.683
76.73,-172.423,-25.867
76.76,-175.055,-26.222
76.79,-177.687,-26.634
76.82,-179.933,-27.081
76.86,-182.285,-27.447
76.89,-184.566,-27.619
76.92,-186.531,-27.883
76.95,-188.531,-28.364
76.99,-190.953,-28.914
77.02,-193.515,-29.567
77.05,-196.428,-30.117
77.09,-199.551,-30.483
77.12,-202.324,-30.712
77.15,-204.991,-30.861
77.18,-207.307,-30.827
77.22,-209.062,-30.896
77.25,-210.712,-31.182
77.28,-212.537,-31.606
77.31,-214.326,-32.03
77.35,-215.976,-32.499
77.38,-217.801,-32.751
77.41,-219.591,-33.026
77.44,-221.31,-33.221
77.48,-223.03,-33.267
77.51,-224.504,-33.507
77.54,-226.189,-33.931
77.57,-227.979,-34.16
77.61,-229.382,-34.229
77.64,-230.786,-34.47
77.67,-232.365,-34.699
77.7,-233.839,-34.871
77.74,-235.208,-35.169
77.77,-236.858,-35.524
77.8,-238.472,-35.787
77.83,-240.051,-36.062
77.87,-241.982,-36.394
77.9,-243.771,-36.509
77.93,-245.105,-36.509
77.96,-246.404,-36.578
78.0,-247.667,-36.738
78.03,-248.72,-37.036
78.06,-250.159,-37.391
78.09,-251.738,-37.723
78.13,-253.177,-38.055
78.16,-254.861,-38.262
78.19,-256.371,-38.284
78.22,-257.634,-38.284
78.26,-258.862,-38.33
78.29,-259.985,-38.433
78.32,-260.968,-38.777
78.35,-262.302,-39.178
78.39,-263.67,-39.373
78.42,-264.793,-39.464
78.45,-265.952,-39.659
78.48,-267.215,-39.785
78.52,-268.373,-39.945
78.55,-269.461,-40.163
78.58,-270.865,-40.358
78.61,-272.023,-40.53
78.65,-273.322,-40.736
78.68,-274.48,-40.713
78.71,-275.252,-40.656
78.74,-275.919,-40.69
78.78,-276.375,-40.679
78.81,-276.656,-40.679
78.84,-276.936,-41.011
78.87,-277.673,-41.332
78.91,-278.375,-41.32
78.94,-278.726,-41.32
78.97,-279.218,-41.492
79.0,-279.779,-41.503
79.04,-279.919,-41.343
79.07,-280.13,-41.309
79.1,-280.341,-41.423
79.14,-280.376,-41.423
79.17,-280.727,-41.755
79.2,-281.078,-41.778
79.23,-281.253,-41.584
79.27,-281.218,-41.412
79.3,-280.762,-41.022
79.33,-280.095,-40.931
79.36,-279.709,-41.148
79.4,-279.463,-41.32
79.43,-279.112,-41.194
79.46,-278.34,-40.942
79.49,-277.498,-40.69
79.53,-276.48,-40.404
79.56,-275.146,-40.14
79.59,-273.848,-40.106
79.62,-272.83,-40.358
79.66,-272.234,-40.507
79.69,-271.672,-40.369
79.72,-270.9,-40.003
79.75,-269.847,-39.522
79.79,-268.373,-39.155
79.82,-266.794,-38.834
79.85,-265.074,-38.571
79.88,-263.39,-38.571
79.92,-262.161,-38.674
79.95,-261.003,-38.651
79.98,-259.74,-38.491
80.01,-258.582,-38.136
80.05,-257.388,-37.746
80.08,-255.914,-37.494
80.11,-254.581,-37.437
80.14,-253.317,-37.265
80.18,-252.019,-37.047
80.21,-250.615,-36.91
80.24,-249.352,-36.612
80.27,-247.562,-36.131
80.31,-245.491,-35.684
80.34,-243.456,-35.409
80.37,-241.49,-35.226
80.4,-239.525,-35.191
80.44,-237.805,-34.997
80.47,-235.945,-34.802
80.5,-234.261,-34.63
80.53,-232.892,-34.218
80.57,-230.997,-33.759
80.6,-228.961,-33.565
80.63,-227.487,-33.439
80.66,-225.803,-33.152
80.7,-223.837,-32.809
80.73,-222.223,-32.706
80.76,-220.749,-32.545
80.79,-219.064,-32.282
80.83,-217.45,-31.801
80.86,-215.45,-31.331
80.89,-213.554,-31.319
80.92,-212.08,-31.239
80.96,-210.501,-30.964
80.99,-208.536,-30.632
81.02,-206.816,-30.266
81.05,-204.886,-29.716
81.09,-202.429,-29.235
81.12,-199.973,-28.834
81.15,-197.446,-28.456
81.19,-194.778,-28.307
81.22,-192.497,-28.226
81.25,-190.532,-27.997
81.28,-188.321,-27.688
81.32,-186.145,-27.276
81.35,-184.039,-26.737
81.38,-181.442,-26.187
81.41,-178.74,-25.764
81.45,-176.389,-25.489
81.48,-173.827,-25.248
81.51,-171.475,-24.893
81.54,-169.019,-24.435
81.58,-166.246,-23.965
81.61,-163.438,-23.495
81.64,-160.701,-22.911
81.67,-157.472,-22.453
81.71,-154.454,-22.292
81.74,-151.892,-22.075
81.77,-148.874,-21.594
81.8,-145.926,-21.227
81.84,-143.504,-20.746
81.87,-140.837,-20.391
81.9,-137.924,-20.024
81.93,-135.538,-19.589
81.97,-133.116,-19.257
82.0,-130.519,-18.993
82.03,-128.308,-18.673
82.06,-125.922,-18.134
82.1,-122.939,-17.516
82.13,-120.061,-16.84
82.16,-116.867,-16.244
82.19,-113.393,-15.854
82.23,-110.199,-15.511
82.26,-107.005,-15.11
82.29,-103.566,-14.801
82.32,-100.583,-14.388
82.36,-97.424,-13.655
82.39,-93.599,-12.945
82.42,-89.984,-12.303
82.45,-86.369,-11.708
82.49,-82.088,-11.249
82.52,-78.333,-10.803
82.55,-74.753,-10.23
82.58,-70.647,-9.806
82.62,-67.207,-9.336
82.65,-63.873,-8.615
82.68,-59.662,-8.065
82.71,-56.047,-7.744
82.75,-53.099,-7.263
82.78,-49.625,-6.77
82.81,-46.326,-6.312
82.84,-43.378,-5.67
82.88,-39.903,-5.063
82.91,-36.429,-4.628
82.94,-33.446,-4.273
82.97,-31.445,-4.743
83.01,-31.235,-6.312
83.04,-31.094,-5.121
83.07,-27.234,-1.569
83.1,-21.619,-0.103
83.14,-15.933,0.137
83.17,-10.283,0.905
83.2,-2.948,1.684
83.23,1.439,1.913
83.27,1.93,3.104
83.3,4.387,3.895
83.33,6.563,4.09
83.37,9.756,4.811
83.4,14.249,5.35
83.43,19.267,5.018
83.46,24.075,4.594
83.5,28.638,4.571
83.53,32.639,4.513
83.56,35.973,4.158
83.59,38.113,3.7
83.63,38.815,3.608
83.66,39.131,4.284
83.69,40.465,5.476
83.72,42.57,6.816
83.76,45.308,8.225
83.79,49.309,9.382
83.82,54.047,10.138
83.85,59.03,10.516
83.89,63.979,10.619
83.92,68.225,10.608
83.95,71.7,10.619
83.98,75.104,10.608
84.02,77.56,10.814
84.05,79.456,11.524
84.08,82.193,12.406
84.11,85.387,13.14
84.15,88.054,13.907
84.18,91.458,14.652
84.21,95.178,15.19
84.24,98.723,15.66
84.28,102.689,16.061
84.31,106.584,16.404
84.34,109.708,16.794
84.37,113.112,17.206
84.41,116.516,17.447
84.44,118.832,17.802
84.47,121.535,18.283
84.5,124.553,18.856
84.54,127.396,19.543
84.57,130.73,20.368
84.6,134.695,21.044
84.63,138.135,21.422
84.67,141.399,21.468
84.7,144.592,21.514
84.73,146.944,21.743
84.76,149.33,22.155
84.8,152.138,22.533
84.83,154.279,22.854
84.86,156.314,23.553
84.89,158.911,24.183
84.93,161.649,24.664
84.96,164.281,25.076
84.99,167.229,25.328
85.02,169.931,25.489
85.06,172.282,25.832
85.09,174.915,26.21
85.12,177.371,26.565
85.15,179.617,27.024
85.19,182.355,27.493
85.22,185.057,27.871
85.25,187.444,28.249
85.28,190.076,28.513
85.32,192.462,28.788
85.35,194.743,29.257
85.38,197.481,29.67
85.42,200.043,29.865
85.45,201.938,30.117
85.48,203.833,30.288
85.51,205.693,30.369
85.55,207.097,30.621
85.58,208.781,31.159
85.61,210.922,31.64
85.64,212.817,32.007
85.68,214.958,32.396
85.71,217.204,32.66
85.74,219.029,32.683
85.77,220.714,32.625
85.81,222.574,32.946
85.84,224.153,33.347
85.87,225.838,33.679
85.9,227.768,33.908
85.94,229.242,34.046
85.97,230.821,34.344
86.0,232.611,34.619
86.03,234.12,34.813
86.07,235.524,35.008
86.1,237.173,35.283
86.13,238.928,35.661
86.16,240.648,36.016
86.2,242.648,36.222
86.23,244.333,36.303
86.26,245.667,36.348
86.29,247.0,36.417
86.33,248.123,36.6
86.36,249.316,37.001
86.39,250.896,37.379
86.42,252.545,37.666
86.46,253.984,37.952
86.49,255.669,38.158
86.52,257.213,38.147
86.55,258.371,38.113
86.59,259.424,38.147
86.62,260.512,38.307
86.65,261.459,38.662
86.68,262.758,39.075
86.72,264.127,39.258
86.75,265.355,39.441
86.78,266.618,39.556
86.81,267.847,39.59
86.85,268.864,39.728
86.88,269.952,39.911
86.91,271.146,40.049
86.94,272.093,40.404
86.98,273.392,40.644
87.01,274.55,40.598
87.04,275.357,40.53
87.07,275.989,40.576
87.11,276.585,40.495
87.14,276.691,40.484
87.17,276.936,40.736
87.2,277.533,40.999
87.24,278.13,41.183
87.27,278.656,41.309
87.3,279.323,41.4
87.33,279.99,41.446
87.37,280.551,41.297
87.4,280.797,41.16
87.43,281.007,41.24
87.47,281.218,41.423
87.5,281.569,41.435
87.53,281.709,41.435
87.56,281.604,41.309
87.6,281.464,41.148
87.63,281.218,41.183
87.66,280.937,41.217
87.69,280.656,41.286
87.73,280.516,41.32
87.76,280.305,41.297
87.79,279.779,41.068
87.82,279.042,40.633
87.86,277.989,40.266
87.89,276.656,40.072
87.92,275.322,39.991
87.95,274.129,40.094
87.99,273.111,40.232
88.02,272.374,40.198
88.05,271.602,39.923
88.08,270.338,39.556
88.12,268.935,39.155
88.15,267.601,38.788
88.18,265.846,38.559
88.21,264.091,38.479
88.25,262.582,38.353
88.28,261.073,38.25
88.31,259.494,38.193
88.34,258.301,37.998
88.38,257.002,37.631
88.41,255.493,37.425
88.44,254.195,37.208
88.47,252.791,36.875
88.51,251.176,36.681
88.54,249.773,36.578
88.57,248.369,36.371
88.6,246.79,35.993
88.64,245.035,35.558
88.67,243.21,35.226
88.7,241.28,35.111
88.73,239.49,35.008
88.77,238.051,34.848
88.8,236.436,34.676
88.83,234.752,34.298
88.86,232.927,33.782
88.9,230.821,33.496
88.93,228.996,33.485
88.96,227.452,33.324
88.99,225.697,33.107
89.03,224.153,32.843
89.06,222.679,32.557
89.09,221.065,32.35
89.12,219.38,32.064
89.16,217.801,31.64
89.19,215.836,31.251
89.22,213.8,31.033
89.25,212.045,30.804
89.29,210.185,30.586
89.32,208.15,30.392
89.35,206.325,30.071
89.38,204.254,29.624
89.42,201.833,29.177
89.45,199.657,28.788
89.48,197.2,28.421
89.52,194.849,28.33
89.55,192.953,28.284
89.58,191.164,28.02
89.61,189.128,27.551
89.65,186.987,26.978
89.68,184.496,26.451
89.71,181.793,26.061
89.74,179.196,25.706
89.78,176.634,25.374
89.81,174.002,25.122
89.84,171.581,24.824
89.87,169.089,24.332
89.91,166.246,23.908
89.94,163.614,23.484
89.97,160.876,23.003
90.0,157.928,22.682
90.04,155.437,22.453
90.07,153.05,22.052
90.1,150.243,21.582
90.13,147.26,21.067
90.17,144.487,20.609
90.2,141.399,20.127
90.23,138.556,19.887
90.26,135.924,19.474
90.3,132.976,19.096
90.33,130.309,19.005
90.36,128.027,18.592
90.39,125.465,18.088
90.43,122.693,17.55
90.46,120.026,16.931
90.49,116.937,16.324
90.52,113.638,15.877
90.56,110.725,15.465
90.59,107.391,15.064
90.62,103.882,14.652
90.65,100.899,14.136
90.69,97.705,13.483
90.72,94.09,12.853
90.75,90.475,12.212
90.78,86.369,11.57
90.82,82.228,11.215
90.85,78.543,10.825
90.88,74.928,10.344
90.91,71.138,9.863
90.95,67.664,9.325
90.98,64.084,8.683
91.01,60.399,8.259
91.04,57.24,7.847
91.08,54.187,7.297
91.11,50.713,6.747
91.14,47.308,6.22
91.17,43.834,5.579
91.21,39.973,4.983
91.24,36.218,4.468
91.27,32.884,4.17
91.3,30.498,4.731
91.34,30.182,6.22
91.37,29.796,5.121
91.4,26.321,1.867
91.43,21.233,0.493
91.47,16.319,0.286
91.5,11.195,-0.332
91.53,5.054,-1.1
91.56,-0.562,-1.214
91.6,-1.088,-2.062
91.63,-2.562,-3.494
91.66,-5.44,-3.883
91.7,-8.002,-4.662
91.73,-12.213,-5.556
91.76,-17.828,-5.739
91.79,-23.759,-5.579
91.83,-29.094,-5.052
91.86,-33.411,-4.479
91.89,-36.71,-4.021
91.92,-38.71,-3.712
91.96,-39.447,-3.666
91.99,-39.833,-4.17
92.02,-40.816,-5.292
92.05,-42.676,-6.828
92.09,-45.659,-8.42
92.12,-49.835,-9.611
92.15,-54.538,-10.264
92.18,-59.521,-10.562
92.22,-64.4,-10.585
92.25,-68.576,-10.516
92.28,-71.945,-10.436
92.31,-74.753,-10.413
92.35,-76.823,-10.711
92.38,-78.929,-11.467
92.41,-81.702,-12.429
92.44,-84.685,-13.369
92.48,-87.878,-14.216
92.51,-91.599,-14.904
92.54,-95.529,-15.408
92.57,-99.39,-15.728
92.61,-103.18,-15.946
92.64,-106.584,-16.21
92.67,-109.673,-16.565
92.7,-112.796,-17.057
92.74,-115.779,-17.516
92.77,-118.517,-18.042
92.8,-121.465,-18.569
92.83,-124.518,-19.096
92.87,-127.571,-19.635
92.9,-130.94,-20.311
92.93,-134.415,-20.872
92.96,-137.573,-21.181
93.0,-140.802,-21.582
93.03,-143.61,-21.536
93.06,-146.101,-21.811
93.09,-148.628,-22.304
93.13,-151.26,-22.797
93.16,-153.717,-23.335
93.19,-156.349,-23.873
93.22,-159.227,-24.423
93.26,-162.21,-24.847
93.29,-165.193,-25.145
93.32,-168.001,-25.351
93.35,-170.352,-25.523
93.39,-172.598,-25.821
93.42,-175.055,-26.371
93.45,-177.617,-26.966
93.48,-180.354,-27.459
93.52,-183.162,-27.78
93.55,-185.654,-28.009
93.58,-187.865,-28.215
93.61,-190.251,-28.49
93.65,-192.462,-28.868
93.68,-194.778,-29.395
93.71,-197.27,-29.865
93.75,-199.762,-30.266
93.78,-202.148,-30.609
93.81,-204.535,-30.827
93.84,-206.676,-30.907
93.88,-208.501,-31.033
93.91,-210.361,-31.216
93.94,-212.08,-31.48
93.97,-213.589,-31.846
94.01,-215.309,-32.328
94.04,-216.994,-32.614
94.07,-218.713,-32.912
94.1,-220.538,-33.221
94.14,-222.258,-33.359
94.17,-224.048,-33.714
94.2,-225.978,-34.092
94.23,-227.873,-34.378
94.27,-229.698,-34.664
94.3,-231.769,-35.043
94.33,-233.945,-35.386
94.36,-236.261,-35.604
94.4,-238.437,-35.799
94.43,-240.472,-36.016
94.46,-242.473,-36.234
94.49,-244.473,-36.463
94.53,-246.298,-36.715
94.56,-247.983,-36.979
94.59,-249.632,-37.276
94.62,-251.317,-37.586
94.66,-252.966,-37.849
94.69,-254.686,-38.101
94.72,-256.441,-38.353
94.75,-258.16,-38.571
94.79,-259.81,-38.766
94.82,-261.389,-38.972
94.85,-262.617,-38.903
94.88,-263.425,-38.662
94.92,-264.056,-38.811
94.95,-264.864,-39.293
94.98,-265.846,-39.659
95.01,-266.899,-39.968
95.05,-268.233,-40.198
95.08,-269.531,-40.266
95.11,-270.549,-40.22
95.14,-271.532,-40.232
95.18,-272.444,-40.381
95.21,-273.427,-40.633
95.24,-274.409,-40.805
95.27,-275.322,-40.965
95.31,-276.164,-41.068
95.34,-276.936,-40.999
95.37,-277.357,-40.85
95.4,-277.603,-40.828
95.44,-277.814,-40.954
95.47,-278.094,-41.114
95.5,-278.445,-41.412
95.53,-279.147,-41.733
95.57,-279.849,-41.79
95.6,-280.376,-41.595
95.63,-280.656,-41.503
95.66,-280.902,-41.481
95.7,-280.972,-41.366
95.73,-280.902,-41.446
95.76,-281.183,-41.721
95.8,-281.639,-41.893
95.83,-281.815,-41.824
95.86,-281.885,-41.641
95.89,-281.815,-41.538
95.93,-281.604,-41.446
95.96,-281.253,-41.24
95.99,-280.656,-41.194
96.02,-280.2,-41.309
96.06,-279.919,-41.435
96.09,-279.533,-41.32
96.12,-278.902,-40.976
96.15,-277.919,-40.633
96.19,-276.866,-40.461
96.22,-275.708,-40.381
96.25,-274.585,-40.404
96.28,-273.813,-40.518
96.32,-273.181,-40.576
96.35,-272.514,-40.381
96.38,-271.461,-39.923
96.41,-270.128,-39.361
96.45,-268.303,-38.937
96.48,-266.443,-38.708
96.51,-264.688,-38.674
96.54,-263.144,-38.766
96.58,-261.88,-38.823
96.61,-260.722,-38.685
96.64,-259.529,-38.342
96.67,-257.985,-37.826
96.71,-256.335,-37.483
96.74,-254.791,-37.299
96.77,-253.177,-37.127
96.8,-251.633,-37.036
96.84,-250.334,-36.99
96.87,-249.001,-36.852
96.9,-247.632,-36.52
96.93,-246.123,-35.982
96.97,-244.087,-35.489
97.0,-240.192,-33.496
97.03,-232.997,-30.059
97.06,-223.907,-28.375
97.1,-215.695,-29.326
97.13,-209.799,-31.319
97.16,-206.676,-32.969
97.19,-205.693,-33.989
97.23,-206.886,-34.664
97.26,-209.799,-35.1
97.29,-213.554,-34.779
97.32,-217.52,-33.954
97.36,-220.995,-33.267
97.39,-223.451,-32.671
97.42,-224.118,-31.594
97.45,-222.784,-30.036
97.49,-219.696,-29.017
97.52,-215.765,-29.109
97.55,-212.221,-29.899
97.58,-209.483,-30.632
97.62,-207.378,-31.125
97.65,-205.974,-31.468
97.68,-205.026,-31.411
97.71,-204.289,-30.873
97.75,-203.307,-30.002
97.78,-201.762,-29.223
97.81,-199.797,-28.57
97.85,-197.446,-28.066
97.88,-194.778,-27.722
97.91,-192.076,-27.574
97.94,-189.479,-27.447
97.98,-186.707,-27.253
98.01,-184.25,-26.966
98.04,-181.863,-26.68
98.07,-179.617,-26.462
98.11,-177.652,-26.233
98.14,-175.792,-25.752
98.17,-173.511,-25.179
98.2,-171.054,-24.607
98.24,-168.387,-23.976
98.27,-165.228,-23.415
98.3,-161.754,-22.865
98.33,-158.279,-22.384
98.37,-154.805,-22.166
98.4,-151.576,-22.006
98.43,-148.663,-21.662
98.46,-145.715,-21.273
98.5,-142.732,-20.906
98.53,-140.135,-20.414
98.56,-137.328,-19.795
98.59,-134.344,-19.314
98.63,-131.607,-18.936
98.66,-128.799,-18.604
98.69,-126.027,-18.398
98.72,-123.781,-18.111
98.76,-121.5,-17.584
98.79,-118.797,-16.977
98.82,-116.095,-16.381
98.85,-113.182,-15.889
98.89,-110.094,-15.511
98.92,-107.146,-15.133
98.95,-104.057,-14.652
98.98,-100.793,-14.193
99.02,-97.6,-13.644
99.05,-94.231,-12.968
99.08,-90.37,-12.372
99.11,-86.685,-11.914
99.15,-83.0,-11.41
99.18,-79.07,-10.952
99.21,-75.49,-10.493
99.24,-71.98,-9.966
99.28,-68.295,-9.428
99.31,-64.751,-8.947
99.34,-61.382,-8.42
99.37,-57.802,-7.939
99.41,-54.468,-7.48
99.44,-51.344,-6.896
99.47,-47.905,-6.392
99.5,-44.536,-5.957
99.54,-41.307,-5.304
99.57,-37.517,-4.559
99.6,-33.656,-4.09
99.63,-30.989,-4.41
99.67,-30.217,-6.083
99.7,-29.691,-5.418
99.73,-26.146,-1.81
99.76,-20.671,-0.126
99.8,-15.196,-0.183
99.83,-10.002,0.206
99.86,-3.825,0.997
99.9,1.018,1.088
99.93,0.948,1.867
99.96,2.176,3.059
99.99,4.668,3.391
100.03,6.984,4.135
100.06,10.739,5.281
100.09,16.039,5.59
100.12,21.478,5.281
100.16,26.567,4.72
100.19,30.989,4.456
100.22,34.814,4.513
100.25,38.043,4.456
100.29,40.254,4.181
100.32,41.202,4.342
100.35,41.974,5.166
100.38,43.694,6.335
100.42,46.115,7.618
100.45,49.168,8.993
100.48,53.31,10.058
100.51,58.258,10.734
100.55,63.171,11.009
100.58,67.909,10.94
100.61,71.7,10.791
100.64,74.718,10.768
100.68,77.525,10.86
100.71,79.701,11.204
100.74,81.386,12.097
100.77,84.018,13.128
100.81,87.282,13.999
100.84,90.405,14.766
100.87,94.16,15.442
100.9,98.196,15.9
100.94,101.811,16.233
100.97,105.742,16.507
101.0,109.462,16.759
101.03,112.48,17.16
101.07,115.639,17.493
101.1,118.622,17.642
101.13,120.798,18.077
101.16,123.114,18.776
101.2,126.202,19.44
101.23,129.08,20.173
101.26,132.344,20.941
101.29,136.205,21.468
101.33,139.503,21.766
101.36,142.662,21.914
101.39,145.856,21.995
101.42,148.207,22.189
101.46,150.348,22.567
101.49,152.805,23.014
101.52,155.121,23.61
101.55,157.648,24.32
101.59,160.771,24.881
101.62,163.719,25.271
101.65,166.562,25.695
101.68,169.615,25.97
101.72,172.318,26.176
101.75,174.809,26.52
101.78,177.722,26.932
101.81,180.284,27.287
101.85,182.635,27.757
101.88,185.233,28.089
101.91,187.584,28.307
101.94,189.549,28.662
101.98,192.076,29.189
102.01,194.638,29.624
102.04,196.919,30.048
102.08,199.376,30.346
102.11,201.762,30.518
102.14,203.587,30.667
102.17,205.412,30.815
102.21,207.237,30.999
102.24,208.746,31.377
102.27,210.571,31.858
102.3,212.712,32.224
102.34,214.502,32.522
102.37,216.467,32.946
102.4,218.503,33.141
102.43,220.117,33.255
102.47,221.907,33.416
102.5,223.837,33.714
102.53,225.487,34.069
102.56,227.242,34.401
102.6,229.312,34.664
102.63,231.172,34.962
102.66,232.892,35.123
102.69,234.647,35.169
102.73,236.156,35.524
102.76,237.77,35.925
102.79,239.7,36.131
102.82,241.174,36.257
102.86,242.754,36.658
102.89,244.649,36.91
102.92,246.123,37.024
102.95,247.351,37.059
102.99,248.439,36.979
103.02,249.492,37.208
103.05,250.58,37.723
103.08,252.159,38.09
103.12,253.633,38.273
103.15,254.861,38.502
103.18,256.23,38.594
103.21,257.529,38.536
103.25,258.546,38.685
103.28,259.775,38.96
103.31,261.003,39.155
103.34,262.161,39.476
103.38,263.67,39.716
103.41,265.074,39.751
103.44,266.092,39.865
103.47,267.18,40.049
103.51,268.373,40.232
103.54,269.461,40.461
103.57,270.689,40.702
103.6,272.128,40.828
103.64,273.251,40.942
103.67,274.339,41.045
103.7,275.287,40.988
103.73,275.919,41.068
103.77,276.55,41.137
103.8,277.042,41.068
103.83,277.322,41.355
103.86,278.165,41.927
103.9,278.937,41.778
103.93,279.323,41.618
103.96,279.709,41.71
103.99,280.095,41.733
104.03,280.376,41.847
104.06,280.551,41.893
104.09,280.972,42.007
104.13,281.393,42.111
104.16,281.779,42.122
104.19,281.99,42.019
104.22,282.06,41.916
104.26,281.885,41.836
104.29,281.569,41.652
104.32,281.042,41.458
104.35,280.516,41.561
104.39,280.13,41.698
104.42,279.709,41.618
104.45,279.042,41.4
104.48,278.13,41.171
104.52,277.147,40.931
104.55,276.164,40.736
104.58,274.971,40.702
104.61,274.129,40.782
104.65,273.322,40.747
104.68,272.444,40.61
104.71,271.532,40.484
104.74,270.76,40.175
104.78,269.496,39.659
104.81,267.776,39.212
104.84,265.987,38.937
104.87,264.127,38.903
104.91,262.512,38.926
104.94,261.073,38.8
104.97,259.389,38.617
105.0,257.845,38.399
105.04,256.441,38.01
105.07,254.791,37.631
105.1,252.966,37.483
105.13,251.562,37.368
105.17,250.194,37.116
105.2,248.65,36.967
105.23,247.456,36.818
105.26,246.158,36.44
105.3,244.333,35.982
105.33,242.613,35.684
105.36,240.894,35.478
105.39,238.998,35.329
105.43,237.384,35.169
105.46,235.945,35.031
105.49,234.366,34.951
105.52,233.102,34.79
105.56,231.839,34.344
105.59,230.049,33.886
105.62,228.365,33.691
105.65,226.855,33.496
105.69,225.136,33.175
105.72,223.241,32.82
105.75,221.31,32.488
105.78,219.029,32.121
105.82,216.678,31.766
105.85,214.432,31.434
105.88,212.08,31.228
105.91,209.869,31.171
105.95,208.185,30.999
105.98,206.255,30.781
106.01,204.5,30.598
106.04,203.096,30.14
106.08,201.271,29.601
106.11,199.06,29.269
106.14,197.165,28.902
106.18,195.059,28.49
106.21,192.708,28.318
106.24,190.778,28.135
106.27,188.812,27.803
106.31,186.566,27.413
106.34,184.425,26.978
106.37,182.004,26.497
106.4,179.266,26.119
106.44,176.81,25.786
106.47,174.423,25.512
106.5,171.826,25.214
106.53,169.475,24.813
106.57,166.948,24.286
106.6,164.14,24.091
106.63,161.543,23.564
106.66,158.841,22.808
106.7,155.717,22.545
106.73,152.945,22.304
106.76,150.699,22.27
106.79,148.102,22.006
106.83,145.61,21.502
106.86,143.013,20.964
106.89,139.89,20.322
106.92,136.942,19.887
106.96,134.344,19.383
106.99,131.291,18.947
107.02,128.133,18.615
107.05,125.536,18.123
107.09,122.307,17.516
107.12,119.043,17.057
107.15,116.06,16.553
107.18,112.726,16.061
107.22,109.251,15.82
107.25,106.549,15.488
107.28,103.566,14.927
107.31,100.337,14.388
107.35,97.354,13.735
107.38,93.915,13.048
107.41,90.125,12.532
107.44,86.615,11.948
107.48,82.825,11.318
107.51,78.683,10.906
107.54,75.209,10.516
107.57,71.7,10.069
107.61,67.909,9.668
107.64,64.751,9.05
107.67,61.346,8.271
107.7,57.346,7.687
107.74,53.836,7.194
107.77,50.397,6.541
107.8,46.396,6.037
107.83,42.781,5.579
107.87,39.412,5.063
107.9,35.657,4.651
107.93,32.498,4.445
107.96,30.743,4.96
108.0,30.568,6.404
108.03,30.042,5.132
108.06,26.848,1.764
108.09,21.724,0.447
108.13,16.495,0.309
108.16,11.266,-0.389
108.19,4.948,-1.214
108.23,-0.456,-1.214
108.26,-0.877,-1.89
108.29,-2.246,-3.139
108.32,-4.773,-3.334
108.36,-6.703,-3.929
108.39,-10.213,-5.315
108.42,-15.723,-6.026
108.45,-22.04,-5.957
108.49,-28.181,-5.418
108.52,-33.2,-4.846
108.55,-37.096,-4.525
108.58,-40.219,-4.25
108.62,-42.044,-3.861
108.65,-42.114,-3.906
108.68,-42.079,-4.846
108.71,-43.553,-6.346
108.75,-45.834,-7.939
108.78,-49.133,-9.416
108.81,-53.731,-10.631
108.84,-59.1,-11.169
108.88,-64.33,-11.158
108.91,-68.927,-10.86
108.94,-72.401,-10.596
108.97,-75.139,-10.699
109.01,-77.771,-10.883
109.04,-79.596,-11.375
109.07,-81.421,-12.383
109.1,-84.439,-13.46
109.14,-87.878,-14.319
109.17,-91.283,-15.156
109.2,-95.424,-15.706
109.23,-99.425,-15.98
109.27,-103.18,-16.221
109.3,-107.04,-16.381
109.33,-110.199,-16.53
109.36,-112.796,-17.0
109.4,-115.604,-17.378
109.43,-118.271,-17.962
109.46,-120.692,-18.627
109.49,-123.64,-19.222
109.53,-126.974,-19.852
109.56,-130.168,-20.471
109.59,-133.643,-21.032
109.62,-137.328,-21.445
109.66,-140.381,-21.674
109.69,-143.61,-21.754
109.72,-146.487,-21.926
109.75,-148.698,-22.292
109.79,-151.12,-22.797
109.82,-153.893,-23.335
109.85,-156.279,-23.942
109.88,-158.946,-24.572
109.92,-162.035,-25.007
109.95,-164.772,-25.351
109.98,-167.65,-25.66
110.01,-170.422,-25.89
110.05,-172.774,-26.119
110.08,-175.195,-26.565
110.11,-178.038,-27.012
110.14,-180.635,-27.47
110.18,-183.057,-27.963
110.21,-185.864,-28.249
110.24,-188.075,-28.398
110.27,-190.146,-28.753
110.31,-192.603,-29.109
110.34,-194.814,-29.555
110.37,-196.884,-30.105
110.41,-199.341,-30.495
110.44,-201.692,-30.689
110.47,-203.798,-30.907
110.5,-206.044,-31.056
110.54,-207.974,-31.148
110.57,-209.448,-31.377
110.6,-211.063,-31.697
110.63,-212.817,-32.03
110.67,-214.432,-32.511
110.7,-216.467,-32.958
110.73,-218.678,-33.29
110.76,-221.065,-34.012
110.8,-223.978,-34.561
110.83,-226.82,-34.607
110.86,-228.891,-34.447
110.89,-230.856,-34.458
110.93,-232.506,-34.538
110.96,-233.699,-34.756
110.99,-234.962,-34.974
111.02,-236.261,-35.157
111.06,-237.138,-35.363
111.09,-238.051,-35.627
111.12,-239.209,-35.982
111.15,-240.367,-36.314
111.19,-241.876,-36.784
111.22,-243.771,-37.208
111.25,-245.491,-37.288
111.28,-247.0,-37.116
111.32,-248.158,-36.967
111.35,-248.965,-36.91
111.38,-249.422,-36.967
111.41,-250.018,-37.07
111.45,-250.475,-37.357
111.48,-251.071,-37.826
111.51,-252.229,-38.147
111.54,-253.387,-38.445
111.58,-254.826,-38.788
111.61,-256.581,-38.995
111.64,-258.336,-39.121
111.67,-260.056,-39.27
111.71,-261.88,-39.464
111.74,-263.425,-39.567
111.77,-264.828,-39.625
111.8,-266.232,-39.762
111.84,-267.496,-39.98
111.87,-268.654,-40.22
111.9,-269.882,-40.45
111.93,-271.146,-40.621
111.97,-272.198,-40.828
112.0,-273.427,-40.988
112.03,-274.445,-40.999
112.06,-275.252,-41.034
112.1,-275.954,-41.08
112.13,-276.55,-41.045
112.16,-276.971,-41.148
112.19,-277.463,-41.435
112.23,-277.989,-41.572
112.26,-278.445,-41.595
112.29,-278.902,-41.698
112.32,-279.253,-41.572
112.36,-279.674,-41.755
112.39,-280.165,-41.927
112.42,-280.446,-41.79
112.46,-280.586,-41.721
112.49,-280.797,-41.859
112.52,-281.007,-41.95
112.55,-281.148,-41.87
112.59,-281.218,-41.824
112.62,-281.042,-41.664
112.65,-280.516,-41.309
112.68,-279.814,-41.137
112.72,-279.112,-41.217
112.75,-278.481,-41.4
112.78,-277.884,-41.412
112.81,-277.217,-41.206
112.85,-276.375,-40.988
112.88,-275.497,-40.816
112.91,-274.585,-40.667
112.94,-273.427,-40.507
112.98,-272.444,-40.472
113.01,-271.567,-40.461
113.04,-270.689,-40.312
113.07,-269.742,-39.991
113.11,-268.443,-39.613
113.14,-266.899,-39.27
113.17,-265.355,-39.029
113.2,-263.705,-38.892
113.24,-262.091,-38.754
113.27,-260.652,-38.571
113.3,-259.108,-38.525
113.33,-257.809,-38.388
113.37,-256.476,-38.078
113.4,-254.897,-37.78
113.43,-253.282,-37.551
113.46,-251.878,-37.276
113.5,-250.369,-37.047
113.53,-248.86,-36.933
113.56,-247.351,-36.623
113.59,-245.28,-35.856
113.63,-242.543,-35.111
113.66,-239.806,-34.848
113.69,-237.419,-34.871
113.72,-235.243,-35.02
113.76,-233.699,-35.111
113.79,-232.716,-35.478
113.82,-232.611,-35.925
113.85,-232.892,-35.707
113.89,-232.751,-34.836
113.92,-231.944,-34.16
113.95,-231.032,-33.851
113.98,-229.874,-33.519
114.02,-228.119,-33.049
114.05,-225.838,-32.499
114.08,-223.065,-32.076
114.11,-220.047,-31.881
114.15,-217.31,-31.766
114.18,-214.713,-31.606
114.21,-212.221,-31.617
114.24,-210.326,-31.686
114.28,-208.852,-31.56
114.31,-207.553,-31.262
114.34,-206.255,-30.77
114.37,-204.605,-30.151
114.41,-202.605,-29.464
114.44,-200.183,-28.902
114.47,-197.516,-28.478
114.51,-194.849,-28.238
114.54,-192.216,-28.158
114.57,-189.9,-28.1
114.6,-187.654,-27.86
114.64,-185.478,-27.459
114.67,-183.408,-27.115
114.7,-181.056,-26.657
114.73,-178.6,-26.13
114.77,-176.213,-25.706
114.8,-173.792,-25.363
114.83,-171.3,-24.996
114.86,-168.668,-24.595
114.9,-165.895,-24.08
114.93,-163.017,-23.633
114.96,-160.245,-23.22
114.99,-157.507,-22.957
115.03,-154.735,-22.602
115.06,-152.103,-22.281
115.09,-149.716,-22.132
115.12,-147.33,-21.766
115.16,-144.803,-21.216
115.19,-142.416,-20.792
115.22,-139.96,-20.379
115.25,-137.117,-19.726
115.29,-134.344,-19.337
115.32,-131.432,-18.959
115.35,-128.659,-18.604
115.38,-125.922,-18.146
115.42,-122.974,-17.687
115.45,-119.991,-17.103
115.48,-116.797,-16.496
115.51,-113.252,-15.9
115.55,-109.673,-15.476
115.58,-106.268,-15.133
115.61,-102.864,-14.743
115.64,-99.46,-14.319
115.68,-96.161,-13.815
115.71,-92.686,-13.22
115.74,-89.142,-12.578
115.77,-85.562,-11.879
115.81,-81.772,-11.249
115.84,-77.876,-10.688
115.87,-73.981,-10.138
115.9,-70.05,-9.726
115.94,-66.47,-9.371
115.97,-63.101,-8.878
116.0,-59.732,-8.317
116.03,-56.363,-7.79
116.07,-52.994,-7.297
116.1,-49.905,-6.701
116.13,-46.571,-6.026
116.16,-43.167,-5.441
116.2,-39.693,-4.983
116.23,-36.078,-4.525
116.26,-32.744,-4.25
116.29,-30.919,-5.029
116.33,-30.884,-6.427
116.36,-30.042,-4.548
116.39,-25.795,-1.146
116.42,-20.425,-0.08
116.46,-14.81,0.034
116.49,-9.16,0.779
116.52,-2.106,1.455
116.56,1.439,1.627
116.59,1.369,2.749
