Trigger_Date,2023/06/28
Trigger_Time,T 12:04:29.396 PDT
Samples_Per_Cycle,512
Microseconds_Per_Sample,32.536
Time (ms),Voltage (V),Current (A)
-16.66,-1.228,-2.978
-16.63,-3.966,-3.139
-16.59,-5.264,-3.494
-16.56,-7.51,-5.155
-16.53,-11.862,-6.186
-16.5,-17.618,-6.094
-16.46,-23.444,-5.9
-16.43,-29.094,-5.682
-16.4,-34.077,-5.373
-16.37,-38.254,-5.132
-16.33,-41.412,-4.926
-16.3,-43.307,-4.708
-16.27,-44.115,-4.674
-16.24,-44.781,-5.373
-16.2,-46.08,-6.736
-16.17,-48.326,-8.168
-16.14,-51.485,-9.462
-16.11,-55.275,-10.505
-16.07,-59.311,-11.146
-16.04,-63.522,-11.478
-16.01,-67.664,-11.616
-15.98,-71.278,-11.662
-15.94,-74.542,-11.765
-15.91,-77.56,-12.051
-15.88,-80.157,-12.509
-15.84,-82.79,-13.162
-15.81,-85.632,-13.918
-15.78,-88.791,-14.652
-15.75,-92.195,-15.35
-15.71,-95.599,-15.958
-15.68,-99.144,-16.462
-15.65,-102.759,-16.92
-15.62,-106.303,-17.275
-15.58,-109.602,-17.71
-15.55,-113.077,-18.157
-15.52,-116.27,-18.512
-15.49,-119.289,-18.913
-15.45,-122.307,-19.429
-15.42,-125.536,-20.047
-15.39,-128.729,-20.689
-15.36,-132.133,-21.399
-15.32,-135.854,-22.04
-15.29,-139.258,-22.35
-15.26,-142.346,-22.464
-15.23,-145.084,-22.441
-15.19,-147.751,-22.923
-15.16,-150.523,-23.667
-15.13,-153.366,-24.16
-15.1,-155.963,-24.561
-15.06,-158.63,-25.019
-15.03,-161.578,-25.58
-15.0,-164.597,-25.97
-14.97,-167.334,-26.279
-14.93,-170.036,-26.531
-14.9,-172.458,-26.714
-14.87,-174.844,-27.058
-14.84,-177.477,-27.734
-14.8,-180.354,-28.433
-14.77,-183.232,-28.96
-14.74,-186.11,-29.223
-14.71,-188.602,-29.372
-14.67,-190.988,-29.532
-14.64,-193.269,-29.681
-14.61,-195.235,-29.83
-14.58,-196.849,-30.162
-14.54,-198.744,-30.46
-14.51,-200.464,-30.655
-14.48,-201.762,-30.861
-14.45,-203.166,-31.113
-14.41,-204.675,-31.377
-14.38,-206.114,-31.709
-14.35,-207.658,-32.076
-14.32,-209.554,-32.454
-14.28,-211.519,-32.843
-14.25,-213.625,-33.301
-14.22,-215.871,-33.668
-14.19,-218.222,-33.897
-14.15,-220.328,-34.057
-14.12,-222.469,-34.241
-14.09,-224.504,-34.493
-14.06,-226.399,-34.676
-14.02,-228.294,-34.825
-13.99,-229.979,-35.157
-13.96,-231.734,-35.547
-13.93,-233.664,-35.799
-13.89,-235.208,-35.959
-13.86,-236.858,-36.383
-13.83,-238.823,-36.726
-13.8,-240.718,-36.933
-13.76,-242.227,-37.036
-13.73,-243.806,-37.15
-13.7,-245.456,-37.414
-13.67,-246.895,-37.654
-13.63,-248.334,-37.769
-13.6,-249.632,-37.964
-13.57,-251.071,-38.296
-13.53,-252.791,-38.594
-13.5,-254.3,-38.857
-13.47,-255.704,-39.144
-13.44,-257.248,-39.361
-13.4,-258.827,-39.419
-13.37,-260.126,-39.476
-13.34,-261.319,-39.579
-13.31,-262.407,-39.625
-13.27,-263.284,-39.797
-13.24,-264.442,-40.026
-13.21,-265.636,-40.301
-13.18,-266.829,-40.644
-13.14,-268.092,-40.896
-13.11,-269.391,-40.999
-13.08,-270.619,-41.011
-13.05,-271.672,-41.103
-13.01,-272.9,-41.32
-12.98,-273.953,-41.515
-12.95,-274.971,-41.664
-12.92,-275.989,-41.629
-12.88,-276.726,-41.607
-12.85,-277.357,-41.733
-12.82,-277.989,-41.755
-12.79,-278.375,-41.801
-12.75,-278.972,-42.042
-12.72,-279.533,-42.214
-12.69,-280.06,-42.305
-12.66,-280.586,-42.351
-12.62,-281.323,-42.489
-12.59,-281.955,-42.615
-12.56,-282.025,-42.202
-12.53,-282.025,-42.03
-12.49,-281.885,-42.076
-12.46,-281.955,-42.351
-12.43,-282.236,-42.592
-12.4,-282.236,-42.397
-12.36,-281.99,-42.099
-12.33,-281.464,-41.801
-12.3,-280.797,-41.584
-12.27,-280.165,-41.71
-12.23,-279.919,-42.03
-12.2,-279.884,-42.248
-12.17,-279.884,-42.363
-12.14,-279.919,-42.386
-12.1,-279.99,-42.225
-12.07,-279.955,-41.904
-12.04,-279.463,-41.595
-12.01,-278.796,-41.343
-11.97,-277.989,-41.171
-11.94,-277.112,-41.022
-11.91,-276.059,-40.816
-11.88,-274.62,-40.495
-11.84,-272.935,-40.106
-11.81,-270.97,-39.819
-11.78,-269.145,-39.579
-11.75,-267.215,-39.487
-11.71,-265.565,-39.533
-11.68,-264.302,-39.522
-11.65,-263.039,-39.441
-11.62,-261.67,-39.247
-11.58,-260.582,-38.834
-11.55,-259.213,-38.33
-11.52,-257.423,-37.906
-11.49,-255.739,-37.654
-11.45,-254.089,-37.54
-11.42,-252.335,-37.471
-11.39,-250.861,-37.288
-11.35,-249.141,-37.082
-11.32,-247.351,-36.761
-11.29,-245.877,-36.429
-11.26,-244.193,-36.062
-11.22,-242.017,-35.753
-11.19,-240.192,-35.535
-11.16,-238.507,-35.352
-11.13,-236.647,-35.249
-11.09,-235.243,-35.088
-11.06,-233.734,-34.71
-11.03,-231.839,-34.401
-11.0,-230.225,-34.149
-10.96,-228.68,-33.874
-10.93,-226.75,-33.576
-10.9,-225.066,-33.278
-10.87,-223.416,-32.912
-10.83,-221.381,-32.58
-10.8,-219.205,-32.247
-10.77,-217.134,-31.858
-10.74,-214.853,-31.56
-10.7,-212.782,-31.411
-10.67,-210.817,-31.09
-10.64,-208.676,-30.919
-10.61,-206.886,-31.01
-10.57,-205.623,-30.815
-10.54,-204.008,-30.369
-10.51,-202.184,-29.91
-10.48,-200.288,-29.418
-10.44,-198.077,-29.04
-10.41,-195.972,-28.811
-10.38,-194.077,-28.49
-10.35,-191.83,-28.089
-10.31,-189.479,-27.722
-10.28,-187.338,-27.276
-10.25,-184.846,-26.852
-10.22,-182.144,-26.428
-10.18,-179.652,-26.004
-10.15,-177.266,-25.844
-10.12,-174.739,-25.752
-10.09,-172.704,-25.466
-10.05,-170.352,-24.87
-10.02,-167.615,-24.24
-9.99,-165.018,-23.679
-9.96,-162.245,-23.14
-9.92,-159.016,-22.659
-9.89,-156.174,-22.487
-9.86,-153.436,-22.258
-9.83,-150.348,-21.708
-9.79,-147.716,-21.342
-9.76,-144.838,-20.757
-9.73,-141.785,-20.471
-9.7,-139.223,-20.253
-9.66,-136.766,-19.841
-9.63,-133.923,-19.52
-9.6,-131.537,-19.051
-9.57,-129.045,-18.501
-9.53,-125.957,-17.951
-9.5,-123.044,-17.378
-9.47,-120.061,-16.679
-9.44,-116.411,-16.106
-9.4,-113.042,-15.683
-9.37,-109.813,-15.236
-9.34,-106.268,-14.892
-9.31,-103.004,-14.549
-9.27,-100.092,-14.01
-9.24,-96.582,-13.334
-9.21,-92.967,-12.716
-9.18,-89.633,-12.028
-9.14,-85.773,-11.467
-9.11,-81.912,-11.02
-9.08,-78.543,-10.493
-9.04,-74.893,-9.978
-9.01,-71.208,-9.6
-8.98,-67.979,-9.096
-8.95,-64.61,-8.534
-8.91,-61.031,-8.088
-8.88,-57.907,-7.606
-8.85,-54.643,-7.045
-8.82,-51.309,-6.575
-8.78,-48.256,-6.14
-8.75,-45.027,-5.567
-8.72,-41.412,-5.006
-8.69,-38.043,-4.41
-8.65,-34.709,-3.998
-8.62,-32.217,-4.525
-8.59,-31.831,-6.06
-8.56,-31.2,-5.212
-8.52,-27.129,-1.718
-8.49,-21.689,0.126
-8.46,-15.723,0.344
-8.43,-9.897,0.928
-8.39,-2.281,1.592
-8.36,0.772,2.257
-8.33,2.071,3.551
-8.3,5.089,3.666
-8.26,6.458,4.193
-8.23,9.37,5.739
-8.2,14.319,6.472
-8.17,20.039,5.968
-8.13,25.163,5.418
-8.1,29.901,5.235
-8.07,34.183,5.144
-8.04,37.938,4.834
-8.0,40.149,4.376
-7.97,41.061,4.239
-7.94,41.939,4.8
-7.91,43.202,5.877
-7.87,45.027,7.309
-7.84,47.8,8.672
-7.81,51.45,9.726
-7.78,55.521,10.562
-7.74,59.908,11.158
-7.71,64.294,11.398
-7.68,68.295,11.524
-7.65,71.945,11.57
-7.61,74.928,11.616
-7.58,77.49,11.937
-7.55,80.228,12.544
-7.52,83.035,13.254
-7.48,85.808,14.045
-7.45,88.931,14.812
-7.42,92.336,15.362
-7.39,95.564,15.832
-7.35,99.039,16.29
-7.32,102.689,16.805
-7.29,106.128,17.264
-7.26,109.427,17.596
-7.22,112.796,18.031
-7.19,115.919,18.524
-7.16,119.113,19.016
-7.13,122.517,19.555
-7.09,125.536,20.127
-7.06,128.694,20.735
-7.03,132.169,21.216
-7.0,135.468,21.72
-6.96,138.837,22.224
-6.93,142.101,22.476
-6.9,145.049,22.728
-6.87,147.716,23.003
-6.83,150.418,23.392
-6.8,153.015,23.828
-6.77,155.542,24.309
-6.73,158.315,24.813
-6.7,161.017,25.328
-6.67,163.684,25.786
-6.64,166.527,26.142
-6.6,169.159,26.405
-6.57,171.721,26.703
-6.54,174.248,27.081
-6.51,176.88,27.574
-6.47,179.512,28.1
-6.44,182.214,28.547
-6.41,184.882,28.868
-6.38,187.373,29.097
-6.34,189.725,29.28
-6.31,191.936,29.475
-6.28,193.936,29.796
-6.25,195.972,30.197
-6.21,198.183,30.54
-6.18,200.253,30.861
-6.15,202.184,31.136
-6.12,203.973,31.319
-6.08,205.728,31.514
-6.05,207.307,31.801
-6.02,209.132,32.202
-5.99,210.992,32.602
-5.95,212.852,32.969
-5.92,214.888,33.267
-5.89,216.924,33.519
-5.86,218.713,33.553
-5.82,220.468,33.702
-5.79,222.223,34.057
-5.76,224.083,34.447
-5.73,226.048,34.699
-5.69,227.873,34.905
-5.66,229.593,35.26
-5.63,231.699,35.695
-5.6,233.699,35.753
-5.56,235.419,35.913
-5.53,237.138,36.303
-5.5,239.034,36.612
-5.47,240.753,36.749
-5.43,242.368,36.864
-5.4,244.052,37.253
-5.37,245.737,37.597
-5.34,247.421,37.7
-5.3,248.825,37.712
-5.27,249.983,37.952
-5.24,251.352,38.307
-5.21,252.966,38.617
-5.17,254.686,38.88
-5.14,256.441,39.167
-5.11,258.055,39.373
-5.08,259.459,39.304
-5.04,260.582,39.281
-5.01,261.81,39.35
-4.98,262.793,39.476
-4.95,263.565,39.682
-4.91,264.548,39.991
-4.88,265.776,40.381
-4.85,267.11,40.713
-4.82,268.408,40.816
-4.78,269.742,40.862
-4.75,270.83,40.988
-4.72,272.058,41.091
-4.69,273.181,41.217
-4.65,274.304,41.469
-4.62,275.462,41.618
-4.59,276.34,41.595
-4.56,276.971,41.584
-4.52,277.568,41.572
-4.49,278.024,41.515
-4.46,278.27,41.572
-4.42,278.586,41.813
-4.39,279.358,42.053
-4.36,279.919,42.122
-4.33,280.411,42.179
-4.29,280.902,42.248
-4.26,281.569,42.534
-4.23,281.92,42.34
-4.2,282.166,42.134
-4.16,282.516,42.443
-4.13,283.008,42.672
-4.1,283.324,42.58
-4.07,283.394,42.489
-4.03,283.534,42.386
-4.0,283.464,42.214
-3.97,283.113,41.927
-3.94,282.481,41.767
-3.9,282.06,41.893
-3.87,281.709,42.007
-3.84,281.323,41.962
-3.81,280.727,41.767
-3.77,279.99,41.607
-3.74,279.182,41.423
-3.71,278.235,41.091
-3.68,277.007,40.873
-3.64,275.989,40.931
-3.61,275.041,41.022
-3.58,274.129,40.885
-3.55,273.076,40.518
-3.51,271.707,40.175
-3.48,270.198,39.842
-3.45,268.584,39.487
-3.42,267.004,39.258
-3.38,265.46,39.224
-3.35,264.091,39.121
-3.32,262.688,38.972
-3.29,261.354,38.926
-3.25,260.161,38.72
-3.22,258.897,38.376
-3.19,257.353,38.113
-3.16,255.914,37.929
-3.12,254.546,37.735
-3.09,253.107,37.494
-3.06,251.738,37.208
-3.03,250.229,36.875
-2.99,248.404,36.497
-2.96,246.509,36.119
-2.93,244.579,35.867
-2.9,242.613,35.844
-2.86,240.894,35.627
-2.83,239.244,35.375
-2.8,237.56,35.203
-2.77,235.805,34.859
-2.73,233.945,34.355
-2.7,231.804,34.046
-2.67,229.909,33.897
-2.64,228.154,33.633
-2.6,226.118,33.347
-2.57,224.399,33.175
-2.54,222.714,33.003
-2.51,221.03,32.832
-2.47,219.135,32.419
-2.44,217.485,32.053
-2.41,215.8,31.915
-2.38,214.081,31.686
-2.34,212.396,31.365
-2.31,210.677,31.056
-2.28,208.887,30.873
-2.24,207.167,30.518
-2.21,205.096,30.002
-2.18,202.85,29.532
-2.15,200.674,29.12
-2.11,198.288,28.788
-2.08,195.866,28.627
-2.05,193.831,28.524
-2.02,191.866,28.352
-1.98,189.83,28.02
-1.95,187.865,27.516
-1.92,185.583,27.047
-1.89,183.162,26.657
-1.85,180.846,26.302
-1.82,178.6,25.958
-1.79,176.143,25.534
-1.76,173.686,25.168
-1.72,171.124,24.71
-1.69,168.387,24.297
-1.66,165.685,23.839
-1.63,162.877,23.323
-1.59,159.859,22.9
-1.56,157.051,22.579
-1.53,154.173,22.224
-1.5,151.331,21.823
-1.46,148.383,21.216
-1.43,145.505,20.826
-1.4,142.311,20.357
-1.37,139.363,19.898
-1.33,136.52,19.543
-1.3,133.643,19.211
-1.27,130.975,19.073
-1.24,128.554,18.615
-1.2,125.746,18.031
-1.17,122.833,17.447
-1.14,119.92,16.794
-1.11,116.692,16.118
-1.07,113.287,15.591
-1.04,109.988,15.236
-1.01,106.654,14.915
-0.98,103.391,14.526
-0.94,100.302,14.01
-0.91,96.898,13.38
-0.88,93.283,12.773
-0.85,89.844,12.097
-0.81,86.159,11.467
-0.78,82.439,10.986
-0.75,78.894,10.551
-0.72,75.314,10.081
-0.68,71.805,9.611
-0.65,68.471,9.084
-0.62,64.961,8.569
-0.59,61.417,8.133
-0.55,58.258,7.618
-0.52,54.924,7.125
-0.49,51.625,6.644
-0.46,48.466,6.22
-0.42,45.238,5.636
-0.39,41.728,5.063
-0.36,38.289,4.445
-0.33,34.99,4.147
-0.29,32.99,4.869
-0.26,32.639,6.301
-0.23,31.516,4.88
-0.2,27.269,1.512
-0.16,21.899,0.069
-0.13,16.003,-0.115
-0.1,10.248,-0.745
-0.07,2.878,-1.398
-0.03,-0.456,-1.89
0.0,-1.404,-3.162
0.03,-4.387,-3.448
0.07,-5.791,-3.861
0.1,-8.318,-5.247
0.13,-12.599,-5.877
0.16,-18.109,-5.968
0.2,-23.97,-5.968
0.23,-29.585,-5.705
0.26,-34.499,-5.304
0.29,-38.499,-4.937
0.33,-41.132,-4.617
0.36,-42.711,-4.433
0.39,-43.448,-4.605
0.42,-44.255,-5.51
0.46,-45.694,-6.908
0.49,-48.186,-8.237
0.52,-51.344,-9.451
0.55,-55.17,-10.459
0.59,-59.381,-11.1
0.62,-63.733,-11.41
0.65,-67.804,-11.559
0.68,-71.524,-11.57
0.72,-74.683,-11.673
0.75,-77.525,-12.028
0.78,-80.438,-12.509
0.81,-83.141,-13.128
0.85,-85.808,-13.93
0.88,-89.072,-14.64
0.91,-92.336,-15.19
0.94,-95.529,-15.774
0.98,-99.144,-16.37
1.01,-102.724,-16.908
1.04,-106.339,-17.286
1.07,-109.988,-17.607
1.11,-113.287,-17.997
1.14,-116.376,-18.489
1.17,-119.71,-18.97
1.2,-122.798,-19.36
1.24,-125.571,-19.807
1.27,-128.764,-20.357
1.3,-132.133,-21.055
1.33,-135.503,-21.972
1.37,-138.977,-22.441
1.4,-142.101,-22.545
1.43,-144.733,-22.453
1.46,-147.61,-22.911
1.5,-150.769,-23.587
1.53,-153.612,-24.045
1.56,-156.314,-24.446
1.59,-159.016,-24.859
1.63,-161.719,-25.363
1.66,-164.632,-25.718
1.69,-167.299,-25.97
1.72,-169.615,-26.245
1.76,-171.967,-26.543
1.79,-174.423,-26.943
1.82,-176.985,-27.608
1.85,-179.863,-28.284
1.89,-182.811,-28.765
1.92,-185.654,-29.028
1.95,-188.181,-29.2
1.98,-190.462,-29.326
2.02,-192.638,-29.441
2.05,-194.708,-29.681
2.08,-196.709,-29.991
2.11,-198.499,-30.3
2.15,-200.253,-30.598
2.18,-201.938,-30.827
2.21,-203.412,-31.09
2.24,-204.921,-31.342
2.28,-206.746,-31.583
2.31,-208.325,-31.915
2.34,-210.115,-32.408
2.38,-212.221,-32.855
2.41,-214.397,-33.175
2.44,-216.573,-33.427
2.47,-218.819,-33.668
2.51,-220.784,-33.851
2.54,-222.749,-34.046
2.57,-224.785,-34.241
2.6,-226.469,-34.538
2.64,-228.294,-34.882
2.67,-230.26,-35.157
2.7,-231.909,-35.409
2.73,-233.559,-35.787
2.77,-235.419,-35.948
2.8,-237.068,-36.039
2.83,-238.718,-36.337
2.86,-240.508,-36.715
2.9,-242.192,-36.864
2.93,-243.736,-36.967
2.96,-245.351,-37.288
2.99,-247.07,-37.563
3.03,-248.474,-37.746
3.06,-249.948,-37.906
3.09,-251.598,-38.078
3.12,-252.966,-38.342
3.16,-254.581,-38.708
3.19,-256.16,-38.96
3.22,-257.599,-39.052
3.25,-259.038,-39.063
3.29,-260.266,-39.144
3.32,-261.319,-39.27
3.35,-262.302,-39.384
3.38,-263.249,-39.533
3.42,-264.197,-39.842
3.45,-265.425,-40.198
3.48,-266.689,-40.484
3.51,-267.987,-40.702
3.55,-269.286,-40.793
3.58,-270.514,-40.828
3.61,-271.637,-40.896
3.64,-272.76,-41.08
3.68,-273.988,-41.274
3.71,-275.041,-41.435
3.74,-275.989,-41.515
3.77,-277.042,-41.481
3.81,-277.673,-41.481
3.84,-278.13,-41.503
3.87,-278.621,-41.503
3.9,-279.077,-41.767
3.94,-279.639,-42.019
3.97,-280.235,-42.065
4.0,-280.762,-42.065
4.03,-281.323,-42.26
4.07,-281.955,-42.431
4.1,-282.236,-42.007
4.13,-282.13,-41.801
4.16,-282.166,-41.859
4.2,-282.306,-42.088
4.23,-282.481,-42.271
4.26,-282.481,-42.145
4.29,-282.341,-41.996
4.33,-282.06,-41.881
4.36,-281.779,-41.801
4.39,-281.393,-41.813
4.42,-281.288,-41.973
4.46,-281.253,-42.156
4.49,-281.218,-42.191
4.52,-281.078,-41.95
4.56,-280.692,-41.538
4.59,-279.884,-41.183
4.62,-278.937,-40.942
4.65,-277.884,-40.793
4.69,-276.726,-40.724
4.72,-275.708,-40.667
4.75,-275.146,-41.171
4.78,-275.497,-41.973
4.82,-276.27,-42.168
4.85,-276.656,-41.801
4.88,-276.656,-41.263
4.91,-276.34,-40.713
4.95,-275.462,-40.117
4.98,-273.953,-39.556
5.01,-271.918,-39.086
5.04,-269.496,-38.777
5.08,-267.039,-38.559
5.11,-264.442,-38.296
5.14,-261.775,-38.113
5.17,-259.319,-38.101
5.21,-257.423,-38.124
5.24,-255.634,-38.01
5.27,-253.809,-37.826
5.3,-252.335,-37.437
5.34,-250.545,-36.784
5.37,-248.193,-36.245
5.4,-246.053,-35.821
5.43,-243.842,-35.466
5.47,-241.42,-35.295
5.5,-239.349,-35.123
5.53,-237.419,-34.917
5.56,-235.313,-34.882
5.6,-233.734,-34.825
5.63,-232.19,-34.424
5.66,-230.365,-33.943
5.69,-228.575,-33.645
5.73,-226.891,-33.393
5.76,-225.101,-33.129
5.79,-223.311,-32.797
5.82,-221.381,-32.282
5.86,-219.099,-31.904
5.89,-216.888,-31.686
5.92,-214.923,-31.514
5.95,-212.993,-31.285
5.99,-211.063,-31.113
6.02,-209.413,-30.907
6.05,-207.588,-30.667
6.08,-205.869,-30.197
6.12,-203.868,-29.647
6.15,-201.552,-29.235
6.18,-199.271,-29.04
6.21,-197.305,-28.845
6.25,-195.34,-28.708
6.28,-193.515,-28.559
6.31,-191.725,-28.181
6.34,-189.69,-27.596
6.38,-187.233,-27.081
6.41,-184.952,-26.588
6.44,-182.53,-26.13
6.47,-179.723,-25.809
6.51,-177.406,-25.683
6.54,-174.985,-25.454
6.57,-172.563,-25.053
6.6,-170.071,-24.492
6.64,-167.334,-23.942
6.67,-164.316,-23.587
6.7,-161.508,-23.106
6.73,-158.665,-22.613
6.77,-155.753,-22.419
6.8,-153.226,-22.201
6.83,-150.594,-21.708
6.87,-147.54,-21.078
6.9,-144.592,-20.483
6.93,-141.714,-20.024
6.96,-138.521,-19.646
7.0,-135.573,-19.211
7.03,-132.66,-18.856
7.06,-129.642,-18.673
7.09,-127.045,-18.329
7.13,-124.448,-17.653
7.16,-121.289,-16.966
7.19,-117.639,-16.152
7.22,-112.936,-14.228
7.26,-106.584,-12.257
7.29,-99.284,-10.734
7.32,-92.897,-10.974
7.35,-88.019,-12.246
7.39,-84.65,-13.014
7.42,-82.509,-13.266
7.45,-80.368,-13.071
7.48,-79.034,-12.83
7.52,-78.789,-12.292
7.55,-78.052,-11.467
7.58,-76.297,-10.402
7.61,-73.946,-9.313
7.65,-70.963,-8.534
7.68,-67.628,-8.042
7.71,-64.119,-7.698
7.74,-60.645,-7.549
7.78,-57.416,-7.492
7.81,-54.608,-7.309
7.84,-51.73,-6.919
7.87,-48.817,-6.575
7.91,-46.115,-6.06
7.94,-42.992,-5.35
7.97,-39.552,-4.594
8.0,-36.218,-4.078
8.04,-33.867,-4.433
8.07,-33.27,-6.197
8.1,-33.2,-5.991
8.13,-29.62,-2.016
8.17,-23.373,0.642
8.2,-16.565,0.756
8.23,-10.388,0.939
8.26,-2.737,1.512
8.3,0.737,2.131
8.33,1.579,3.196
8.36,4.106,3.036
8.39,4.703,3.173
8.43,6.247,4.697
8.46,9.967,5.877
8.49,15.372,6.14
8.52,21.092,6.003
8.56,26.602,5.544
8.59,31.41,5.166
8.62,35.692,5.086
8.65,39.307,4.96
8.69,41.763,4.697
8.72,42.921,4.72
8.75,44.009,5.304
8.78,45.518,6.415
8.82,47.624,7.859
8.85,50.783,9.325
8.88,54.749,10.436
8.91,59.03,11.181
8.95,63.663,11.639
8.98,68.225,11.868
9.01,72.156,11.948
9.04,75.455,11.845
9.08,78.262,11.879
9.11,80.544,12.303
9.14,83.07,13.002
9.18,85.808,13.712
9.21,88.3,14.457
9.24,91.283,15.27
9.27,94.792,15.935
9.31,98.232,16.416
9.34,101.846,16.794
9.37,105.426,17.183
9.4,108.83,17.538
9.44,111.989,17.951
9.47,115.253,18.317
9.5,118.376,18.615
9.53,121.184,19.039
9.57,123.991,19.635
9.6,126.974,20.253
9.63,130.098,20.941
9.66,133.502,21.651
9.7,137.082,22.235
9.73,140.556,22.579
9.76,143.961,22.842
9.79,147.084,23.152
9.83,149.927,23.472
9.86,152.734,23.828
9.89,155.507,24.217
9.92,158.174,24.698
9.96,160.841,25.214
9.99,163.614,25.592
10.02,166.141,25.912
10.05,168.843,26.222
10.09,171.23,26.554
10.12,173.581,26.989
10.15,176.073,27.574
10.18,178.845,28.1
10.22,181.583,28.478
10.25,184.215,28.879
10.28,186.987,29.177
10.31,189.619,29.372
10.35,191.83,29.555
10.38,194.112,29.83
10.41,196.182,30.151
10.44,198.112,30.518
10.48,200.183,30.804
10.51,202.148,31.045
10.54,203.833,31.285
10.57,205.588,31.537
10.61,207.307,31.801
10.64,209.167,32.213
10.67,211.168,32.614
10.7,213.168,32.923
10.74,215.134,33.244
10.77,217.204,33.553
10.8,219.064,33.668
10.83,220.784,33.828
10.87,222.574,34.092
10.9,224.574,34.367
10.93,226.364,34.71
10.96,228.294,35.123
11.0,230.33,35.443
11.03,232.225,35.615
11.06,233.91,35.661
11.09,235.489,35.844
11.13,237.103,36.188
11.16,238.893,36.635
11.19,240.894,36.979
11.22,242.719,37.299
11.26,244.649,37.631
11.29,246.614,37.826
11.32,248.439,37.838
11.35,249.773,37.792
11.39,251.106,37.861
11.42,252.37,38.158
11.45,253.738,38.582
11.49,255.283,38.972
11.52,256.757,39.063
11.55,257.95,39.155
11.58,259.248,39.167
11.62,260.406,39.338
11.65,261.319,39.43
11.68,262.231,39.59
11.71,263.249,39.831
11.75,264.302,40.152
11.78,265.636,40.484
11.81,267.039,40.621
11.84,268.303,40.713
11.88,269.496,40.885
11.91,270.689,40.999
11.94,271.812,41.137
11.97,273.076,41.343
12.01,274.304,41.503
12.04,275.357,41.629
12.07,276.305,41.652
12.1,277.112,41.572
12.14,277.603,41.526
12.17,278.024,41.607
12.2,278.481,41.572
12.23,278.902,41.962
12.27,279.533,42.26
12.3,280.095,42.099
12.33,280.516,42.065
12.36,280.937,42.214
12.4,281.429,42.134
12.43,281.358,41.893
12.46,281.288,41.939
12.49,281.569,42.26
12.53,281.955,42.454
12.56,282.236,42.443
12.59,282.411,42.397
12.62,282.516,42.294
12.66,282.481,42.065
12.69,282.095,41.755
12.72,281.534,41.652
12.75,281.253,41.87
12.79,281.042,42.111
12.82,280.937,42.053
12.85,280.586,41.836
12.88,279.99,41.618
12.92,279.147,41.366
12.95,278.165,41.068
12.98,277.042,40.885
13.01,275.989,40.931
13.05,275.076,40.988
13.08,274.094,40.885
13.11,273.041,40.633
13.14,271.848,40.278
13.18,270.444,39.911
13.21,268.9,39.602
13.24,267.426,39.361
13.27,265.952,39.258
13.31,264.548,39.247
13.34,263.214,39.144
13.37,261.81,38.949
13.4,260.336,38.72
13.44,258.968,38.399
13.47,257.564,38.078
13.5,256.09,37.918
13.53,254.791,37.757
13.57,253.317,37.528
13.6,251.773,37.345
13.63,250.369,37.127
13.67,248.79,36.772
13.7,247.141,36.429
13.73,245.596,36.234
13.76,243.912,35.993
13.8,241.946,35.638
13.83,240.086,35.34
13.86,238.367,35.146
13.89,236.542,34.951
13.93,234.682,34.653
13.96,232.927,34.458
13.99,231.032,34.172
14.02,229.207,33.874
14.06,227.382,33.393
14.09,225.276,33.141
14.12,223.451,33.129
14.15,221.802,32.786
14.19,219.661,32.27
14.22,217.415,31.835
14.25,215.414,31.56
14.28,213.168,31.342
14.32,211.098,31.216
14.35,209.378,30.941
14.38,207.378,30.667
14.41,205.518,30.598
14.45,204.114,30.288
14.48,202.289,29.853
14.51,200.429,29.475
14.54,198.604,29.131
14.58,196.674,28.879
14.61,194.814,28.685
14.64,193.094,28.375
14.67,190.988,27.894
14.71,188.637,27.39
14.74,186.356,26.943
14.77,183.829,26.508
14.8,181.091,26.153
14.84,178.635,25.878
14.87,176.143,25.638
14.9,173.581,25.385
14.93,171.265,24.95
14.97,168.738,24.377
15.0,165.86,23.931
15.03,163.087,23.427
15.06,160.315,22.991
15.1,157.156,22.51
15.13,154.314,22.075
15.16,151.366,21.72
15.19,148.242,21.376
15.23,145.54,21.009
15.26,142.838,20.448
15.29,139.609,20.013
15.32,136.661,19.635
15.36,133.958,19.188
15.39,131.046,18.81
15.42,128.308,18.375
15.45,125.536,17.825
15.49,122.202,17.264
15.52,118.973,16.759
15.55,115.884,16.244
15.58,112.585,15.832
15.62,109.567,15.58
15.65,106.795,15.179
15.68,103.531,14.709
15.71,100.407,14.193
15.75,97.389,13.449
15.78,93.915,12.658
15.81,90.16,12.04
15.84,86.65,11.444
15.88,82.825,10.963
15.91,78.999,10.608
15.94,75.665,10.184
15.98,72.086,9.68
16.01,68.576,9.233
16.04,65.417,8.649
16.07,62.013,8.065
16.11,58.363,7.629
16.14,55.31,7.217
16.17,52.081,6.633
16.2,48.642,6.117
16.24,45.483,5.648
16.27,42.255,5.247
16.3,38.991,4.857
16.33,36.113,4.502
16.37,34.113,4.766
16.4,33.516,6.197
16.43,33.165,5.579
16.46,29.585,1.913
16.5,23.514,-0.504
16.53,16.705,-0.894
16.56,10.002,-1.34
16.59,1.965,-1.787
16.63,-0.702,-2.566
16.66,-2.492,-3.769
16.69,-5.229,-3.643
16.72,-6.212,-4.055
16.76,-8.914,-5.189
16.79,-12.915,-5.453
16.82,-17.899,-5.487
16.85,-23.338,-5.923
16.89,-29.164,-5.968
16.92,-34.288,-5.533
16.95,-38.289,-4.995
16.98,-41.061,-4.594
17.02,-42.676,-4.399
17.05,-43.343,-4.651
17.08,-44.466,-5.556
17.11,-46.22,-6.931
17.15,-48.817,-8.489
17.18,-52.432,-9.863
17.21,-56.679,-10.803
17.24,-61.136,-11.295
17.28,-65.733,-11.456
17.31,-69.734,-11.421
17.34,-73.103,-11.421
17.37,-75.981,-11.352
17.41,-78.192,-11.295
17.44,-79.947,-11.834
17.47,-82.333,-12.704
17.5,-85.106,-13.54
17.54,-87.808,-14.4
17.57,-91.037,-15.098
17.6,-94.511,-15.637
17.63,-97.881,-16.164
17.67,-101.671,-16.691
17.7,-105.566,-17.034
17.73,-109.076,-17.447
17.76,-112.55,-17.859
17.8,-115.955,-18.203
17.83,-118.938,-18.638
17.86,-122.272,-19.337
17.89,-125.746,-19.715
17.93,-128.835,-20.253
17.96,-131.993,-20.918
17.99,-135.538,-21.491
18.02,-138.942,-22.052
18.06,-142.346,-22.35
18.09,-145.645,-22.545
18.12,-148.347,-22.797
18.15,-150.874,-23.186
18.19,-153.717,-23.598
18.22,-156.349,-23.976
18.25,-158.806,-24.458
18.29,-161.473,-24.95
18.32,-164.035,-25.385
18.35,-166.632,-25.729
18.38,-169.37,-26.027
18.42,-171.826,-26.394
18.45,-174.283,-26.817
18.48,-177.055,-27.287
18.51,-179.828,-27.734
18.55,-182.425,-28.158
18.58,-185.162,-28.536
18.61,-187.759,-28.765
18.64,-190.146,-28.914
18.68,-192.322,-29.109
18.71,-194.357,-29.361
18.74,-196.358,-29.762
18.77,-198.534,-30.14
18.81,-200.499,-30.392
18.84,-202.219,-30.609
18.87,-203.973,-30.804
18.9,-205.588,-30.953
18.94,-207.167,-31.216
18.97,-208.887,-31.606
19.0,-210.817,-32.053
19.03,-212.712,-32.511
19.07,-214.818,-32.866
19.1,-216.853,-33.072
19.13,-218.854,-33.233
19.16,-220.784,-33.336
19.2,-222.609,-33.553
19.23,-224.434,-33.897
19.26,-226.329,-34.172
19.29,-228.189,-34.367
19.33,-229.944,-34.71
19.36,-231.874,-35.043
19.39,-233.769,-35.363
19.42,-235.454,-35.478
19.46,-237.138,-35.627
19.49,-238.893,-35.913
19.52,-240.613,-36.222
19.55,-242.403,-36.52
19.59,-244.087,-36.784
19.62,-245.807,-37.059
19.65,-247.491,-37.242
19.68,-249.176,-37.288
19.72,-250.58,-37.368
19.75,-251.949,-37.563
19.78,-253.317,-37.918
19.81,-254.756,-38.204
19.85,-256.16,-38.307
19.88,-257.564,-38.433
19.91,-258.792,-38.594
19.94,-259.845,-38.72
19.98,-261.003,-38.823
20.01,-262.021,-39.029
20.04,-263.284,-39.247
20.07,-264.548,-39.384
20.11,-265.636,-39.671
20.14,-266.899,-40.014
20.17,-268.198,-40.129
20.2,-269.391,-40.186
20.24,-270.479,-40.266
20.27,-271.637,-40.358
20.3,-272.795,-40.553
20.33,-273.883,-40.805
20.37,-275.041,-41.045
20.4,-276.059,-41.045
20.43,-276.796,-40.965
20.46,-277.533,-40.931
20.5,-277.989,-40.954
20.53,-278.445,-41.045
20.56,-279.042,-41.309
20.6,-279.674,-41.481
20.63,-280.305,-41.561
20.66,-280.832,-41.572
20.69,-281.569,-41.79
20.73,-282.166,-41.778
20.76,-282.481,-41.446
20.79,-282.516,-41.4
20.82,-282.727,-41.584
20.86,-282.938,-41.675
20.89,-282.973,-41.618
20.92,-283.078,-41.675
20.95,-283.043,-41.687
20.99,-283.008,-41.561
21.02,-282.727,-41.332
21.05,-282.271,-41.251
21.08,-282.06,-41.32
21.12,-281.815,-41.423
21.15,-281.569,-41.377
21.18,-281.183,-41.217
21.21,-280.481,-40.942
21.25,-279.568,-40.69
21.28,-278.551,-40.495
21.31,-277.744,-40.667
21.34,-277.463,-41.194
21.38,-277.673,-41.607
21.41,-277.814,-41.377
21.44,-277.357,-40.747
21.47,-276.48,-40.014
21.51,-274.971,-39.224
21.54,-272.69,-38.502
21.57,-270.198,-38.021
21.6,-267.355,-37.906
21.64,-264.653,-37.964
21.67,-262.231,-38.055
21.7,-260.266,-38.181
21.73,-258.652,-38.136
21.77,-257.143,-38.01
21.8,-255.984,-37.654
21.83,-254.581,-37.231
21.86,-253.036,-36.875
21.9,-251.562,-36.474
21.93,-249.808,-36.039
21.96,-247.842,-35.684
21.99,-245.772,-35.329
22.03,-243.631,-35.088
22.06,-241.631,-35.065
22.09,-239.911,-35.043
22.12,-238.332,-35.008
22.16,-236.998,-34.882
22.19,-236.05,-34.951
22.22,-235.278,-34.836
22.25,-234.05,-34.241
22.29,-232.436,-33.565
22.32,-230.751,-33.141
22.35,-228.926,-32.969
22.38,-226.855,-32.614
22.42,-224.574,-32.179
22.45,-222.258,-31.858
22.48,-219.977,-31.606
22.51,-217.661,-31.4
22.55,-215.379,-31.285
22.58,-213.519,-31.171
22.61,-211.835,-30.976
22.64,-210.15,-30.689
22.68,-208.43,-30.369
22.71,-206.781,-30.082
22.74,-205.026,-29.807
22.78,-203.342,-29.464
22.81,-201.411,-29.04
22.84,-199.271,-28.639
22.87,-197.2,-28.307
22.91,-195.235,-28.055
22.94,-193.199,-27.883
22.97,-191.234,-27.757
23.0,-189.374,-27.402
23.04,-187.338,-26.932
23.07,-185.233,-26.565
23.1,-183.057,-26.176
23.13,-180.67,-25.66
23.17,-178.073,-25.237
23.2,-175.581,-24.859
23.23,-173.019,-24.618
23.26,-170.493,-24.32
23.3,-167.896,-23.965
23.33,-165.193,-23.415
23.36,-162.526,-23.037
23.39,-159.999,-22.648
23.43,-157.402,-22.327
23.46,-154.805,-22.086
23.49,-152.103,-21.491
23.52,-149.33,-21.113
23.56,-146.417,-20.505
23.59,-143.61,-20.139
23.62,-140.591,-19.658
23.65,-137.257,-19.062
23.69,-134.099,-18.627
23.72,-131.01,-18.26
23.75,-127.957,-17.974
23.78,-125.15,-17.596
23.82,-122.166,-16.989
23.85,-118.832,-16.29
23.88,-115.639,-15.717
23.91,-112.48,-15.305
23.95,-109.251,-14.869
23.98,-106.023,-14.377
24.01,-102.724,-13.827
24.04,-99.284,-13.392
24.08,-95.915,-13.059
24.11,-92.757,-12.578
24.14,-89.528,-12.051
24.17,-86.475,-11.582
24.21,-83.527,-11.066
24.24,-80.298,-10.493
24.27,-76.859,-9.955
24.3,-73.489,-9.508
24.34,-70.015,-9.061
24.37,-66.611,-8.615
24.4,-63.417,-8.088
24.43,-59.978,-7.549
24.47,-56.538,-7.08
24.5,-53.204,-6.575
24.53,-49.835,-6.083
24.56,-46.536,-5.522
24.6,-43.097,-4.995
24.63,-39.587,-4.422
24.66,-36.043,-4.147
24.69,-33.727,-4.674
24.73,-33.165,-6.106
24.76,-32.077,-4.926
24.79,-27.901,-1.306
24.82,-21.829,0.573
24.86,-15.196,0.813
24.89,-8.388,1.294
24.92,-1.053,1.684
24.95,0.842,2.52
24.99,2.773,3.712
25.02,5.44,3.7
25.05,6.984,4.536
25.09,10.529,5.831
25.12,15.372,5.957
25.15,20.741,5.567
25.18,25.935,5.544
25.22,31.165,5.625
25.25,35.797,5.315
25.28,39.201,4.639
25.31,40.921,4.124
25.35,41.623,3.975
25.38,42.114,4.674
25.41,43.167,6.014
25.44,45.308,7.526
25.48,48.396,8.935
25.51,52.292,10.161
25.54,56.749,11.032
25.57,61.557,11.478
25.61,66.154,11.478
25.64,70.12,11.341
25.67,73.384,11.272
25.7,75.876,11.375
25.74,78.122,11.742
25.77,80.614,12.326
25.8,83.105,13.071
25.83,85.843,13.896
25.87,88.861,14.709
25.9,92.195,15.396
25.93,95.705,15.923
25.96,99.355,16.29
26.0,102.899,16.633
26.03,106.444,17.046
26.06,109.813,17.458
26.09,113.112,17.813
26.13,116.095,18.168
26.16,119.043,18.547
26.19,121.956,19.131
26.22,124.904,19.681
26.26,128.133,20.448
26.29,131.396,21.067
26.32,135.046,21.559
26.35,138.416,22.018
26.39,141.574,22.189
26.42,144.452,22.361
26.45,147.049,22.648
26.48,149.786,23.197
26.52,152.699,23.793
26.55,155.542,24.343
26.58,158.595,24.847
26.61,161.613,25.317
26.65,164.561,25.66
26.68,167.439,25.901
26.71,170.001,26.164
26.74,172.388,26.462
26.78,175.02,26.863
26.81,177.687,27.321
26.84,180.214,27.826
26.87,182.811,28.249
26.91,185.268,28.559
26.94,187.654,28.811
26.97,190.076,29.063
27.0,192.287,29.361
27.04,194.427,29.681
27.07,196.533,30.002
27.1,198.674,30.334
27.13,200.569,30.609
27.17,202.464,30.815
27.2,204.43,30.85
27.23,205.904,31.033
27.26,207.553,31.468
27.3,209.413,31.915
27.33,211.238,32.339
27.36,213.239,32.694
27.4,215.274,32.889
27.43,217.239,33.084
27.46,218.994,33.255
27.49,220.819,33.404
27.53,222.363,33.645
27.56,223.978,33.977
27.59,225.838,34.309
27.62,227.663,34.619
27.66,229.417,34.928
27.69,231.348,35.169
27.72,233.138,35.283
27.75,234.612,35.375
27.79,236.331,35.684
27.82,238.086,35.959
27.85,239.771,36.257
27.88,241.49,36.497
27.92,243.034,36.818
27.95,244.93,37.288
27.98,247.0,37.551
28.01,248.895,37.62
28.05,250.545,37.792
28.08,252.264,38.032
28.11,253.949,38.158
28.14,255.458,38.342
28.18,257.072,38.582
28.21,258.406,38.662
28.24,259.459,38.708
28.27,260.442,38.8
28.31,261.565,38.937
28.34,262.512,39.178
28.37,263.495,39.441
28.4,264.583,39.545
28.44,265.741,39.991
28.47,267.285,40.427
28.5,268.794,40.518
28.53,269.812,40.369
28.57,270.865,40.53
28.6,272.234,40.759
28.63,273.602,40.999
28.66,274.69,41.068
28.7,275.743,41.091
28.73,276.656,41.171
28.76,277.498,41.206
28.79,277.814,40.931
28.83,277.779,40.931
28.86,278.165,41.251
28.89,278.691,41.595
28.92,279.182,41.629
28.96,279.709,41.813
28.99,280.551,41.973
29.02,281.183,41.881
29.05,281.815,41.767
29.09,282.236,41.687
29.12,282.481,41.675
29.15,282.762,41.836
29.18,283.113,42.042
29.22,283.394,42.019
29.25,283.464,41.939
29.28,283.534,41.836
29.31,283.394,41.675
29.35,283.008,41.435
29.38,282.446,41.309
29.41,281.99,41.458
29.44,281.604,41.572
29.48,281.218,41.572
29.51,280.832,41.469
29.54,280.27,41.206
29.57,279.428,40.885
29.61,278.34,40.621
29.64,277.357,40.438
29.67,276.234,40.392
29.71,275.182,40.392
29.74,274.304,40.289
29.77,273.146,40.026
29.8,271.707,39.705
29.84,270.374,39.361
29.87,268.759,39.052
29.9,267.075,38.88
29.93,265.636,38.788
29.97,264.091,38.708
30.0,262.758,38.685
30.03,261.6,38.502
30.06,260.301,38.17
30.1,258.757,37.952
30.13,257.634,37.735
30.16,256.406,37.483
30.19,254.967,37.276
30.23,253.563,37.047
30.26,251.984,36.772
30.29,250.264,36.44
30.32,248.404,36.005
30.36,246.474,35.592
30.39,244.228,35.34
30.42,242.227,35.191
30.45,240.157,34.882
30.49,238.121,34.871
30.52,236.787,34.985
30.55,235.384,34.722
30.58,233.664,34.195
30.62,231.699,33.759
30.65,230.154,33.404
30.68,228.224,33.084
30.71,226.294,32.797
30.75,224.399,32.534
30.78,222.223,32.442
30.81,220.573,32.362
30.84,218.994,32.007
30.88,216.994,31.709
30.91,215.344,31.571
30.94,214.011,31.365
30.97,212.361,31.102
31.01,210.747,30.781
31.04,209.167,30.334
31.07,207.062,29.876
31.1,204.816,29.452
31.14,202.71,29.04
31.17,200.218,28.742
31.2,197.691,28.524
31.23,195.515,28.364
31.27,193.375,28.284
31.3,191.374,28.158
31.33,189.795,27.78
31.36,187.759,27.207
31.4,185.408,26.783
31.43,183.372,26.382
31.46,181.197,25.901
31.49,178.564,25.512
31.53,176.283,25.191
31.56,173.721,24.813
31.59,171.019,24.458
31.62,168.527,23.954
31.66,165.79,23.576
31.69,162.701,23.037
31.72,159.894,22.567
31.75,157.051,22.121
31.79,153.857,21.766
31.82,151.05,21.536
31.85,148.312,21.055
31.89,145.294,20.712
31.92,142.627,20.311
31.95,139.995,19.864
31.98,136.942,19.532
32.02,134.38,19.245
32.05,132.098,18.844
32.08,129.291,18.329
32.11,126.624,17.768
32.15,123.746,17.103
32.18,120.271,16.53
32.21,116.972,15.992
32.24,113.779,15.373
32.28,110.269,14.972
32.31,106.9,14.709
32.34,103.847,14.285
32.37,100.372,13.804
32.41,96.933,13.3
32.44,93.704,12.59
32.47,90.019,11.879
32.5,86.159,11.307
32.54,82.649,10.745
32.57,78.648,10.241
32.6,74.788,9.932
32.63,71.629,9.554
32.67,68.19,9.038
32.7,64.645,8.592
32.73,61.697,8.042
32.76,58.504,7.435
32.8,55.029,6.988
32.83,52.011,6.472
32.86,48.677,5.865
32.89,45.027,5.315
32.93,41.483,4.72
32.96,37.762,4.101
32.99,34.183,3.872
33.02,32.182,4.708
33.06,31.691,6.003
33.09,30.042,4.319
33.12,25.725,1.168
33.15,20.39,-0.046
33.19,14.635,-0.115
33.22,9.019,-0.596
33.25,2.246,-0.997
33.28,-0.351,-1.386
33.32,-1.053,-2.612
33.35,-3.755,-3.047
33.38,-5.299,-3.414
33.41,-7.3,-4.823
33.45,-11.406,-5.888
33.48,-17.197,-6.266
33.51,-23.444,-6.358
33.54,-29.585,-5.968
33.58,-34.744,-5.384
33.61,-38.71,-4.96
33.64,-41.412,-4.662
33.67,-43.132,-4.307
33.71,-43.764,-4.239
33.74,-43.974,-5.075
33.77,-45.378,-6.644
33.8,-47.975,-8.259
33.84,-51.239,-9.623
33.87,-55.24,-10.631
33.9,-59.627,-11.261
33.93,-64.224,-11.639
33.97,-68.752,-11.662
34.0,-72.401,-11.57
34.03,-75.42,-11.696
34.06,-78.403,-11.983
34.1,-81.245,-12.338
34.13,-83.772,-12.968
34.16,-86.44,-13.792
34.2,-89.633,-14.594
34.23,-92.757,-15.27
34.26,-96.161,-15.774
34.29,-99.811,-16.118
34.33,-102.934,-16.542
34.36,-106.374,-17.057
34.39,-109.848,-17.504
34.42,-112.971,-17.962
34.46,-116.095,-18.272
34.49,-119.183,-18.569
34.52,-121.956,-19.039
34.55,-124.939,-19.669
34.59,-128.168,-20.311
34.62,-131.502,-20.941
34.65,-134.871,-21.559
34.68,-138.556,-22.132
34.72,-141.89,-22.43
34.75,-144.943,-22.625
34.78,-148.137,-22.888
34.81,-150.804,-23.232
34.85,-153.366,-23.633
34.88,-156.244,-24.068
34.91,-158.981,-24.492
34.94,-161.543,-24.973
34.98,-164.14,-25.351
35.01,-166.632,-25.66
35.04,-169.019,-26.073
35.07,-171.791,-26.508
35.11,-174.423,-26.863
35.14,-176.88,-27.367
35.17,-179.688,-27.894
35.2,-182.635,-28.295
35.24,-185.197,-28.616
35.27,-187.724,-28.857
35.3,-190.216,-28.937
35.33,-192.181,-29.097
35.37,-194.147,-29.406
35.4,-196.217,-29.819
35.43,-198.183,-30.185
35.46,-200.218,-30.46
35.5,-202.113,-30.644
35.53,-203.728,-30.815
35.56,-205.342,-31.079
35.59,-207.027,-31.4
35.63,-208.746,-31.697
35.66,-210.501,-32.087
35.69,-212.572,-32.522
35.72,-214.677,-32.912
35.76,-216.783,-33.164
35.79,-218.854,-33.29
35.82,-220.784,-33.427
35.85,-222.679,-33.782
35.89,-224.68,-34.115
35.92,-226.75,-34.367
35.95,-228.751,-34.642
35.98,-230.646,-34.985
36.02,-232.436,-35.203
36.05,-234.225,-35.421
36.08,-236.121,-35.569
36.11,-237.735,-35.741
36.15,-239.314,-36.016
36.18,-240.753,-36.245
36.21,-242.368,-36.486
36.24,-243.877,-36.749
36.28,-245.491,-36.99
36.31,-246.895,-37.082
36.34,-248.228,-37.231
36.37,-249.738,-37.517
36.41,-251.352,-37.872
36.44,-252.966,-38.204
36.47,-254.581,-38.525
36.51,-256.371,-38.662
36.54,-258.09,-38.8
36.57,-259.494,-38.788
36.6,-260.757,-38.869
36.64,-261.67,-38.754
36.67,-262.231,-38.697
36.7,-263.074,-38.995
36.73,-264.091,-39.43
36.77,-265.215,-39.774
36.8,-266.232,-39.9
36.83,-267.32,-40.106
36.86,-268.584,-40.324
36.9,-269.847,-40.461
36.93,-271.04,-40.541
36.96,-272.409,-40.839
36.99,-273.883,-41.091
37.03,-275.182,-41.16
37.06,-276.27,-41.114
37.09,-277.147,-41.091
37.12,-277.849,-41.057
37.16,-278.34,-41.057
37.19,-278.867,-41.091
37.22,-279.393,-41.377
37.25,-279.919,-41.629
37.29,-280.516,-41.698
37.32,-281.078,-41.733
37.35,-281.674,-41.95
37.38,-282.166,-41.881
37.42,-282.587,-41.801
37.45,-282.867,-41.778
37.48,-283.043,-41.744
37.51,-283.183,-41.778
37.55,-283.359,-41.824
37.58,-283.464,-41.87
37.61,-283.499,-41.813
37.64,-283.359,-41.664
37.68,-282.938,-41.503
37.71,-282.587,-41.503
37.74,-282.306,-41.584
37.77,-281.955,-41.572
37.81,-281.569,-41.503
37.84,-281.113,-41.32
37.87,-280.27,-41.034
37.9,-279.253,-40.747
37.94,-278.059,-40.518
37.97,-277.007,-40.495
38.0,-276.27,-40.702
38.03,-275.708,-40.908
38.07,-275.322,-40.793
38.1,-274.585,-40.346
38.13,-273.357,-39.751
38.16,-271.848,-39.144
38.2,-269.847,-38.582
38.23,-267.461,-38.307
38.26,-265.355,-38.284
38.29,-263.319,-38.284
38.33,-261.389,-38.365
38.36,-259.985,-38.445
38.39,-258.757,-38.296
38.42,-257.388,-37.975
38.46,-256.195,-37.597
38.49,-254.967,-37.253
38.52,-253.458,-37.059
38.55,-252.124,-36.83
38.59,-250.65,-36.566
38.62,-249.106,-36.36
38.65,-247.456,-35.959
38.68,-245.561,-35.524
38.72,-243.912,-35.604
38.75,-242.543,-35.615
38.78,-241.034,-35.352
38.82,-239.384,-34.974
38.85,-237.735,-34.722
38.88,-236.226,-34.481
38.91,-234.471,-33.989
38.95,-232.401,-33.496
38.98,-230.119,-33.095
39.01,-227.803,-32.9
39.04,-225.522,-32.614
39.08,-223.416,-32.442
39.11,-221.802,-32.568
39.14,-220.328,-32.557
39.17,-218.748,-32.098
39.21,-216.853,-31.571
39.24,-215.134,-31.319
39.27,-213.519,-31.056
39.3,-211.659,-30.815
39.34,-209.94,-30.598
39.37,-208.36,-30.357
39.4,-206.641,-30.117
39.43,-204.71,-29.75
39.47,-202.815,-29.303
39.5,-200.674,-28.845
39.53,-198.393,-28.49
39.56,-196.252,-28.249
39.6,-194.041,-28.078
39.63,-191.901,-27.86
39.66,-189.9,-27.539
39.69,-187.759,-27.092
39.73,-185.408,-26.669
39.76,-183.092,-26.199
39.79,-180.635,-25.683
39.82,-177.898,-25.294
39.86,-175.371,-25.03
39.89,-172.809,-24.71
39.92,-170.142,-24.343
39.95,-167.509,-23.908
39.99,-164.877,-23.53
40.02,-162.0,-23.071
40.05,-159.192,-22.499
40.08,-156.419,-22.098
40.12,-153.436,-21.846
40.15,-150.418,-21.216
40.18,-147.61,-20.735
40.21,-144.452,-20.253
40.25,-141.679,-20.07
40.28,-139.117,-19.887
40.31,-136.345,-19.474
40.34,-133.818,-19.142
40.38,-131.607,-18.787
40.41,-129.08,-18.398
40.44,-126.518,-17.882
40.47,-123.746,-17.172
40.51,-120.517,-16.427
40.54,-117.183,-15.809
40.57,-113.814,-15.35
40.6,-110.304,-14.972
40.64,-106.83,-14.617
40.67,-103.496,-14.205
40.7,-100.056,-13.792
40.73,-96.687,-13.357
40.77,-93.564,-12.773
40.8,-90.16,-12.109
40.83,-86.615,-11.49
40.86,-83.07,-10.791
40.9,-79.28,-10.115
40.93,-75.314,-9.623
40.96,-71.735,-9.176
41.0,-68.12,-8.786
41.03,-64.54,-8.477
41.06,-61.311,-8.133
41.09,-58.188,-7.664
41.13,-54.749,-7.16
41.16,-51.765,-6.575
41.19,-48.607,-5.98
41.22,-45.308,-5.464
41.26,-42.044,-4.903
41.29,-38.499,-4.17
41.32,-34.885,-3.735
41.35,-32.463,-4.33
41.39,-31.902,-5.957
41.42,-30.673,-4.685
41.45,-26.392,-1.077
41.48,-20.531,0.493
41.52,-14.284,0.435
41.55,-8.282,0.813
41.58,-1.334,1.294
41.61,0.667,2.062
41.65,2.071,3.265
41.68,4.878,3.368
41.71,6.177,4.055
41.74,9.16,5.602
41.78,14.108,6.255
41.81,19.688,5.762
41.84,24.777,5.327
41.87,29.691,5.304
41.91,34.288,5.224
41.94,37.868,4.892
41.97,40.184,4.468
42.0,41.412,4.239
42.04,42.079,4.582
42.07,42.921,5.659
42.1,44.852,7.08
42.13,47.729,8.408
42.17,51.204,9.611
42.2,55.415,10.596
42.23,59.978,11.215
42.26,64.505,11.444
42.3,68.716,11.467
42.33,72.366,11.433
42.36,75.349,11.547
42.39,78.192,11.834
42.43,80.894,12.257
42.46,83.176,12.968
42.49,85.913,13.85
42.52,89.107,14.606
42.56,92.336,15.213
42.59,95.74,15.751
42.62,99.214,16.221
42.65,102.478,16.714
42.69,106.023,17.241
42.72,109.602,17.664
42.75,113.042,18.134
42.78,116.516,18.547
42.82,119.745,18.89
42.85,122.623,19.337
42.88,125.676,19.864
42.91,129.045,20.448
42.95,132.379,21.158
42.98,135.889,21.857
43.01,139.503,22.292
43.04,142.592,22.327
43.08,145.575,22.613
43.11,148.558,22.934
43.14,151.085,23.232
43.17,153.542,23.702
43.21,156.139,24.137
43.24,158.665,24.687
43.27,161.157,25.214
43.31,163.86,25.58
43.34,166.457,25.867
43.37,168.983,26.187
43.4,171.405,26.508
43.44,173.967,26.909
43.47,176.564,27.367
43.5,179.301,27.848
43.53,181.969,28.318
43.57,184.636,28.742
43.6,187.338,28.902
43.63,189.584,29.005
43.66,191.655,29.223
43.7,193.901,29.601
43.73,196.042,29.956
43.76,198.042,30.346
43.79,200.078,30.701
43.83,202.078,30.976
43.86,203.903,31.113
43.89,205.693,31.216
43.92,207.378,31.445
43.96,209.097,31.858
43.99,211.028,32.362
44.02,213.098,32.763
44.05,215.169,33.061
44.09,217.345,33.393
44.12,219.31,33.565
44.15,221.205,33.668
44.18,223.065,33.851
44.22,224.96,34.126
44.25,226.785,34.538
44.28,228.821,34.974
44.31,230.681,35.157
44.35,232.506,35.329
44.38,234.296,35.455
44.41,235.77,35.638
44.44,237.173,35.844
44.48,238.753,36.074
44.51,240.367,36.406
44.54,242.052,36.784
44.57,243.877,37.173
44.61,245.842,37.471
44.64,247.527,37.517
44.67,249.071,37.54
44.7,250.545,37.689
44.74,251.878,37.975
44.77,253.458,38.239
44.8,255.002,38.456
44.83,256.335,38.777
44.87,257.845,38.983
44.9,259.248,38.96
44.93,260.406,38.949
44.96,261.424,39.121
45.0,262.582,39.361
45.03,263.565,39.59
45.06,264.758,39.877
45.09,266.092,40.152
45.13,267.496,40.369
45.16,268.794,40.45
45.19,270.023,40.518
45.22,271.075,40.644
45.26,272.163,40.759
45.29,273.286,40.885
45.32,274.269,41.125
45.35,275.322,41.297
45.39,276.164,41.286
45.42,276.866,41.274
45.45,277.498,41.286
45.48,278.024,41.183
45.52,278.27,41.171
45.55,278.621,41.458
45.58,279.182,41.767
45.62,279.779,41.847
45.65,280.376,41.893
45.68,281.007,41.985
45.71,281.499,41.87
45.75,281.709,41.71
45.78,281.815,41.744
45.81,282.201,42.111
45.84,282.867,42.523
45.88,283.253,42.225
45.91,283.429,42.053
45.94,283.569,42.007
45.97,283.534,41.87
46.01,283.078,41.618
46.04,282.446,41.4
46.07,282.025,41.549
46.1,281.779,41.767
46.14,281.393,41.721
46.17,280.797,41.515
46.2,280.165,41.274
46.23,279.498,41.045
46.27,278.551,40.805
46.3,277.428,40.61
46.33,276.34,40.598
46.36,275.217,40.541
46.4,274.129,40.369
46.43,273.006,40.106
46.46,271.672,39.865
46.49,270.303,39.579
46.53,268.794,39.189
46.56,267.075,38.914
46.59,265.495,38.903
46.62,264.021,38.903
46.66,262.723,38.766
46.69,261.319,38.605
46.72,260.02,38.422
46.75,258.862,38.124
46.79,257.564,37.838
46.82,256.16,37.62
46.85,254.861,37.46
46.88,253.423,37.322
46.92,252.159,37.093
46.95,250.72,36.761
46.98,248.895,36.303
47.01,247.035,35.879
47.05,245.105,35.558
47.08,243.069,35.432
47.11,241.104,35.134
47.14,239.139,34.951
47.18,237.209,34.905
47.21,235.559,34.653
47.24,233.664,34.126
47.27,231.628,33.874
47.31,229.979,33.828
47.34,228.4,33.542
47.37,226.645,33.278
47.4,225.066,33.061
47.44,223.592,32.866
47.47,221.872,32.602
47.5,220.222,32.213
47.53,218.398,31.709
47.57,216.292,31.4
47.6,214.326,31.285
47.63,212.572,31.113
47.66,210.641,30.804
47.7,208.852,30.598
47.73,207.097,30.266
47.76,204.921,29.853
47.8,202.815,29.418
47.83,200.71,29.005
47.86,198.358,28.662
47.89,196.077,28.513
47.93,194.182,28.352
47.96,192.216,28.146
47.99,190.181,27.837
48.02,188.181,27.367
48.06,186.005,26.886
48.09,183.443,26.451
48.12,181.267,25.981
48.15,178.705,25.626
48.19,176.108,25.374
48.22,173.721,24.962
48.25,171.054,24.469
48.28,168.211,24.114
48.32,165.685,23.679
48.35,162.877,23.117
48.38,159.683,22.739
48.41,156.981,22.522
48.45,154.349,22.166
48.48,151.471,21.674
48.51,148.593,21.044
48.54,145.505,20.528
48.58,142.346,20.116
48.61,139.328,19.704
48.64,136.555,19.383
48.67,133.467,19.108
48.71,130.87,18.867
48.74,128.308,18.272
48.77,125.395,17.573
48.8,122.342,17.069
48.84,119.289,16.496
48.87,115.849,15.992
48.9,112.55,15.602
48.93,109.567,15.236
48.97,106.584,14.881
49.0,103.531,14.457
49.03,100.618,13.884
49.06,97.179,13.22
49.1,93.599,12.59
49.13,90.265,11.879
49.16,86.369,11.204
49.19,82.474,10.791
49.23,79.07,10.402
49.26,75.42,9.978
49.29,71.84,9.634
49.32,68.787,9.245
49.36,65.663,8.729
49.39,62.434,8.294
49.42,59.451,7.824
49.45,56.328,7.343
49.49,52.994,6.816
49.52,49.765,6.106
49.55,46.255,5.338
49.58,42.5,4.777
49.62,38.956,4.17
49.65,35.306,3.769
49.68,32.639,4.342
49.71,32.007,5.865
49.75,30.989,4.731
49.78,26.637,1.352
49.81,21.022,-0.252
49.84,15.021,-0.332
49.88,9.23,-0.687
49.91,2.316,-1.18
49.94,-0.562,-1.753
49.97,-1.439,-3.024
50.01,-4.317,-3.265
50.04,-5.861,-3.872
50.07,-8.423,-5.464
50.11,-13.055,-6.14
50.14,-18.811,-6.163
50.17,-24.707,-6.014
50.2,-30.217,-5.602
50.24,-34.744,-5.086
50.27,-38.289,-4.639
50.3,-40.324,-4.204
50.33,-41.096,-3.998
50.37,-41.588,-4.353
50.4,-42.5,-5.441
50.43,-44.255,-7.045
50.46,-47.273,-8.66
50.5,-51.134,-9.863
50.53,-55.521,-10.642
50.56,-60.118,-11.146
50.59,-64.786,-11.375
50.63,-68.857,-11.398
50.66,-72.507,-11.284
50.69,-75.42,-11.261
50.72,-77.771,-11.616
50.76,-80.298,-12.177
50.79,-82.965,-12.876
50.82,-85.667,-13.724
50.85,-88.756,-14.606
50.89,-92.371,-15.316
50.92,-95.775,-15.854
50.95,-99.39,-16.313
50.98,-103.11,-16.656
51.02,-106.549,-17.0
51.05,-109.988,-17.435
51.08,-113.393,-17.836
51.11,-116.411,-18.168
51.15,-119.359,-18.615
51.18,-122.552,-19.154
51.21,-125.711,-19.738
51.24,-128.799,-20.437
51.28,-132.484,-21.181
51.31,-136.31,-21.914
51.34,-139.96,-22.224
51.37,-143.224,-22.235
51.41,-145.926,-22.178
51.44,-148.383,-22.533
51.47,-150.98,-22.991
51.5,-153.471,-23.564
51.54,-155.928,-24.137
51.57,-158.665,-24.733
51.6,-161.719,-25.317
51.63,-164.667,-25.706
51.67,-167.474,-25.993
51.7,-170.282,-26.233
51.73,-172.879,-26.439
51.76,-175.336,-26.669
51.8,-177.827,-27.058
51.83,-180.214,-27.551
51.86,-182.635,-28.055
51.89,-185.162,-28.433
51.93,-187.619,-28.708
51.96,-189.9,-28.971
51.99,-192.146,-29.2
52.02,-194.252,-29.475
52.06,-196.428,-29.865
52.09,-198.569,-30.128
52.12,-200.534,-30.403
52.15,-202.464,-30.667
52.19,-204.324,-30.815
52.22,-205.939,-30.987
52.25,-207.413,-31.319
52.28,-209.238,-31.709
52.32,-211.098,-32.098
52.35,-212.958,-32.476
52.38,-215.063,-32.797
52.42,-217.204,-33.061
52.45,-219.099,-33.267
52.48,-220.959,-33.427
52.51,-222.96,-33.679
52.55,-224.96,-34.023
52.58,-226.891,-34.252
52.61,-228.716,-34.481
52.64,-230.611,-34.962
52.68,-232.646,-35.295
52.71,-234.647,-35.306
52.74,-236.191,-35.352
52.77,-237.595,-35.558
52.81,-239.244,-35.753
52.84,-240.578,-35.89
52.87,-241.946,-36.234
52.9,-243.561,-36.704
52.94,-245.21,-37.047
52.97,-246.825,-37.253
53.0,-248.579,-37.437
53.03,-250.229,-37.597
53.07,-251.808,-37.792
53.1,-253.493,-37.987
53.13,-255.107,-38.136
53.16,-256.476,-38.307
53.2,-257.845,-38.399
53.23,-259.003,-38.468
53.26,-259.985,-38.617
53.29,-261.108,-38.811
53.33,-262.196,-39.018
53.36,-263.319,-39.293
53.39,-264.478,-39.567
53.42,-265.811,-39.854
53.46,-267.215,-40.094
53.49,-268.584,-40.186
53.52,-269.882,-40.243
53.55,-271.005,-40.278
53.59,-272.093,-40.312
53.62,-273.146,-40.53
53.65,-274.199,-40.793
53.68,-275.287,-40.999
53.72,-276.234,-40.988
53.75,-276.866,-40.999
53.78,-277.673,-40.999
53.81,-278.165,-40.885
53.85,-278.516,-40.942
53.88,-279.007,-41.263
53.91,-279.568,-41.481
53.94,-280.165,-41.538
53.98,-280.621,-41.549
54.01,-281.078,-41.607
54.04,-281.639,-41.584
54.07,-281.815,-41.4
54.11,-281.99,-41.4
54.14,-282.06,-41.4
54.17,-282.271,-41.538
54.2,-282.622,-41.733
54.24,-282.762,-41.607
54.27,-282.692,-41.469
54.3,-282.552,-41.366
54.33,-282.341,-41.263
54.37,-281.85,-41.183
54.4,-281.534,-41.251
54.43,-281.358,-41.332
54.46,-281.042,-41.332
54.5,-280.727,-41.24
54.53,-280.095,-40.954
54.56,-279.358,-40.621
54.59,-278.305,-40.392
54.63,-277.252,-40.255
54.66,-276.34,-40.289
54.69,-275.533,-40.392
54.73,-274.725,-40.312
54.76,-273.778,-40.037
54.79,-272.514,-39.636
54.82,-270.9,-39.201
54.86,-269.356,-38.834
54.89,-267.636,-38.662
54.92,-266.057,-38.64
54.95,-264.653,-38.571
54.99,-263.214,-38.491
55.02,-261.81,-38.433
55.05,-260.687,-38.136
55.08,-259.213,-37.677
55.12,-257.458,-37.448
55.15,-256.195,-37.276
55.18,-254.826,-37.024
55.21,-253.247,-36.83
55.25,-251.843,-36.658
55.28,-250.369,-36.44
55.31,-248.474,-35.936
55.34,-246.614,-35.409
55.38,-244.789,-35.306
55.41,-242.859,-35.26
55.44,-241.104,-35.088
55.47,-239.384,-34.745
55.51,-237.454,-34.493
55.54,-235.735,-34.332
55.57,-233.945,-33.943
55.6,-232.014,-33.565
55.64,-230.049,-33.278
55.67,-228.259,-33.084
55.7,-226.294,-32.889
55.73,-224.574,-32.786
55.77,-223.276,-32.706
55.8,-221.696,-32.442
55.83,-219.942,-32.007
55.86,-218.187,-31.48
55.9,-216.151,-31.056
55.93,-214.046,-30.781
55.96,-212.01,-30.598
55.99,-209.975,-30.449
56.03,-208.185,-30.3
56.06,-206.535,-29.945
56.09,-204.289,-29.452
56.12,-201.973,-29.04
56.16,-199.902,-28.673
56.19,-197.691,-28.375
56.22,-195.445,-28.192
56.25,-193.585,-27.997
56.29,-191.585,-27.745
56.32,-189.444,-27.459
56.35,-187.479,-27.024
56.38,-185.408,-26.508
56.42,-182.951,-25.993
56.45,-180.6,-25.5
56.48,-177.933,-25.168
56.51,-175.301,-24.95
56.55,-172.914,-24.641
56.58,-170.352,-24.194
56.61,-167.439,-23.839
56.64,-165.053,-23.438
56.68,-162.315,-22.911
56.71,-159.262,-22.464
56.74,-156.525,-22.132
56.77,-153.822,-21.777
56.81,-150.945,-21.33
56.84,-148.067,-20.861
56.87,-145.084,-20.311
56.91,-141.855,-20.001
56.94,-139.082,-19.6
56.97,-136.38,-19.154
57.0,-133.397,-18.913
57.04,-130.905,-18.73
57.07,-128.624,-18.317
57.1,-125.781,-17.722
57.13,-122.974,-17.149
57.17,-120.096,-16.53
57.2,-116.762,-15.98
57.23,-113.393,-15.522
57.26,-110.374,-15.041
57.3,-106.97,-14.583
57.33,-103.601,-14.136
57.36,-100.478,-13.54
57.39,-96.793,-12.91
57.43,-93.178,-12.372
57.46,-89.809,-11.811
57.49,-85.983,-11.284
57.52,-82.193,-10.883
57.56,-78.929,-10.344
57.59,-75.946,-10.356
57.62,-73.735,-10.768
57.65,-72.331,-10.596
57.69,-70.506,-9.886
57.72,-67.909,-9.016
57.75,-65.067,-7.962
57.78,-61.627,-6.896
57.82,-57.416,-6.152
57.85,-52.994,-5.418
57.88,-48.045,-4.582
57.91,-42.606,-3.906
57.95,-37.447,-3.414
57.98,-32.568,-3.104
58.01,-28.743,-3.838
58.04,-27.409,-5.258
58.08,-24.988,-3.482
58.11,-19.969,-0.332
58.14,-13.792,0.55
58.17,-8.177,0.447
58.21,-2.141,0.493
58.24,0.562,1.088
58.27,1.088,2.406
58.3,3.369,2.669
58.34,4.703,2.726
58.37,6.071,4.227
58.4,9.37,5.579
58.43,14.178,5.659
58.47,19.443,5.453
58.5,24.777,5.487
58.53,30.112,5.499
58.56,35.095,5.453
58.6,39.412,5.155
58.63,42.22,4.685
58.66,43.553,4.525
58.69,44.571,4.903
58.73,45.694,5.693
58.76,47.168,7.057
58.79,49.765,8.626
58.82,53.31,9.886
58.86,57.275,10.757
58.89,61.662,11.398
58.92,66.049,11.685
58.95,70.155,11.673
58.99,73.7,11.524
59.02,76.753,11.547
59.05,79.175,11.994
59.08,81.807,12.613
59.12,84.685,13.22
59.15,87.247,13.987
59.18,90.37,14.846
59.22,93.95,15.431
59.25,97.214,15.935
59.28,100.864,16.485
59.31,104.794,16.954
59.35,108.304,17.458
59.38,111.954,17.894
59.41,115.639,18.214
59.44,118.797,18.558
59.48,121.675,18.867
59.51,124.799,19.165
59.54,127.536,19.772
59.57,130.484,20.574
59.61,133.923,21.204
59.64,137.187,21.766
59.67,140.346,22.281
59.7,143.785,22.636
59.74,146.979,22.831
59.77,149.786,23.049
59.8,152.699,23.358
59.83,155.367,23.85
59.87,157.928,24.32
59.9,160.806,24.675
59.93,163.368,25.042
59.96,165.825,25.512
60.0,168.562,25.855
60.03,171.019,26.142
60.06,173.405,26.543
60.09,176.073,27.15
60.13,178.88,27.711
60.16,181.618,28.135
60.19,184.46,28.49
60.22,187.268,28.753
60.26,189.795,28.948
60.29,191.866,28.891
60.32,192.041,27.299
60.35,189.619,25.065
60.39,186.496,24.389
60.42,183.934,25.065
60.45,182.109,26.325
60.48,181.583,27.986
60.52,182.46,29.235
60.55,184.987,30.38
60.58,188.918,31.526
60.61,193.796,32.465
60.65,199.411,32.969
60.68,205.132,33.164
60.71,210.782,33.301
60.74,215.66,33.29
60.78,219.38,32.774
60.81,221.977,32.053
60.84,223.135,31.858
60.87,224.223,32.442
60.91,225.627,33.255
60.94,227.066,34.057
60.97,228.786,34.962
61.0,231.242,35.81
61.04,233.945,36.108
61.07,236.542,36.177
61.1,238.963,36.222
61.13,241.069,36.245
61.17,242.999,36.28
61.2,244.824,36.326
61.23,246.263,36.509
61.26,247.562,36.738
61.3,248.72,36.967
61.33,249.913,37.219
61.36,251.317,37.574
61.39,252.826,37.987
61.43,254.44,38.342
61.46,256.055,38.617
61.49,257.88,38.766
61.53,259.354,38.754
61.56,260.652,38.651
61.59,261.6,38.548
61.62,262.372,38.674
61.66,263.284,38.983
61.69,264.337,39.281
61.72,265.495,39.567
61.75,266.653,39.877
61.79,267.987,40.083
61.82,269.11,40.106
61.85,270.163,40.14
61.88,271.286,40.175
61.92,272.269,40.335
61.95,273.357,40.61
61.98,274.585,40.839
62.01,275.673,40.999
62.05,276.62,41.011
62.08,277.428,40.965
62.11,278.059,40.828
62.14,278.41,40.736
62.18,278.621,40.816
62.21,278.937,41.137
62.24,279.428,41.423
62.27,279.919,41.538
62.31,280.446,41.481
62.34,280.867,41.481
62.37,281.253,41.446
62.4,281.323,41.229
62.44,281.218,41.183
62.47,281.429,41.389
62.5,281.674,41.538
62.53,281.885,41.503
62.57,281.885,41.481
62.6,281.92,41.446
62.63,281.885,41.343
62.66,281.569,41.217
62.7,281.323,41.24
62.73,281.429,41.481
62.76,281.639,41.595
62.79,281.709,41.503
62.83,281.534,41.263
62.86,281.042,40.919
62.89,280.235,40.507
62.92,279.077,40.152
62.96,277.779,40.049
62.99,276.726,40.129
63.02,275.638,40.186
63.05,274.655,40.175
63.09,273.637,39.957
63.12,272.409,39.602
63.15,270.97,39.224
63.18,269.391,38.892
63.22,267.741,38.651
63.25,266.197,38.582
63.28,264.758,38.559
63.31,263.495,38.502
63.35,262.231,38.353
63.38,261.003,38.113
63.41,259.634,37.769
63.44,258.195,37.425
63.48,256.651,37.219
63.51,255.283,37.07
63.54,253.844,36.864
63.57,252.335,36.658
63.61,250.826,36.348
63.64,249.071,36.085
63.67,247.456,35.799
63.7,245.772,35.615
63.74,244.157,35.524
63.77,242.543,35.352
63.8,241.069,35.02
63.84,239.384,34.733
63.87,237.63,34.47
63.9,235.875,34.069
63.93,233.839,33.496
63.97,231.699,33.336
64.0,229.979,33.393
64.03,228.224,33.221
64.06,226.364,32.889
64.1,224.609,32.545
64.13,222.82,32.179
64.16,220.644,31.675
64.19,218.327,31.216
64.23,215.976,30.941
64.26,213.765,30.838
64.29,211.765,30.747
64.32,210.08,30.529
64.36,208.36,30.483
64.39,206.956,30.311
64.42,205.342,29.716
64.45,203.236,29.154
64.49,201.236,28.891
64.52,199.376,28.65
64.55,197.305,28.387
64.58,195.305,28.123
64.62,193.375,27.814
64.65,191.164,27.39
64.68,188.812,26.955
64.71,186.426,26.52
64.75,183.969,26.164
64.78,181.512,25.89
64.81,179.161,25.615
64.84,176.74,25.237
64.88,174.213,24.87
64.91,171.756,24.389
64.94,169.054,23.954
64.97,166.035,23.323
65.01,163.052,22.739
65.04,159.894,22.292
65.07,156.841,22.04
65.1,154.103,21.8
65.14,151.26,21.468
65.17,148.312,21.09
65.2,145.505,20.609
65.23,142.697,20.036
65.27,139.609,19.486
65.3,136.731,19.119
65.33,133.888,18.844
65.36,131.151,18.661
65.4,128.764,18.283
65.43,126.167,17.733
65.46,123.325,17.172
65.49,120.482,16.565
65.53,117.288,15.969
65.56,113.954,15.534
65.59,110.866,15.144
65.62,107.742,14.697
65.66,104.443,14.251
65.69,101.215,13.735
65.72,97.775,13.117
65.75,94.16,12.487
65.79,90.546,11.822
65.82,86.826,11.215
65.85,83.07,10.768
65.88,79.456,10.402
65.92,75.946,9.898
65.95,72.191,9.359
65.98,68.506,8.855
66.02,64.926,8.305
66.05,61.382,7.847
66.08,57.977,7.412
66.11,54.854,6.954
66.15,51.555,6.472
66.18,48.291,6.014
66.21,45.203,5.487
66.24,41.939,4.926
66.28,38.535,4.284
66.31,35.165,3.792
66.34,32.463,4.101
66.37,31.691,5.659
66.41,31.516,5.476
66.44,28.427,2.177
66.47,23.268,0.046
66.5,17.513,-0.115
66.54,12.073,-0.435
66.57,5.089,-1.306
66.6,-0.14,-1.776
66.63,-0.948,-2.956
66.67,-4.106,-3.723
66.7,-6.107,-3.952
66.73,-8.528,-5.063
66.76,-12.494,-5.625
66.8,-17.513,-5.579
66.83,-23.058,-5.842
66.86,-28.813,-5.877
66.89,-33.972,-5.418
66.93,-37.762,-4.8
66.96,-40.184,-4.307
66.99,-41.518,-4.101
67.02,-42.149,-4.422
67.06,-43.167,-5.373
67.09,-44.852,-6.724
67.12,-47.343,-8.214
67.15,-50.888,-9.565
67.19,-55.135,-10.573
67.22,-59.627,-11.146
67.25,-64.259,-11.364
67.28,-68.26,-11.364
67.32,-71.91,-11.352
67.35,-74.998,-11.433
67.38,-77.736,-11.799
67.41,-80.298,-12.361
67.45,-83.035,-13.025
67.48,-85.983,-13.735
67.51,-89.037,-14.468
67.54,-92.336,-15.179
67.58,-95.81,-15.751
67.61,-99.319,-16.233
67.64,-102.934,-16.633
67.67,-106.374,-17.0
67.71,-109.708,-17.481
67.74,-113.182,-17.916
67.77,-116.411,-18.283
67.8,-119.464,-18.638
67.84,-122.552,-19.154
67.87,-125.5,-19.669
67.9,-128.659,-20.334
67.93,-131.888,-20.929
67.97,-135.292,-21.559
68.0,-138.837,-22.155
68.03,-142.346,-22.567
68.06,-145.329,-22.556
68.1,-148.067,-22.785
68.13,-150.839,-23.106
68.16,-153.436,-23.507
68.19,-155.963,-23.919
68.23,-158.525,-24.412
68.26,-161.192,-24.985
68.29,-164.0,-25.42
68.33,-166.632,-25.775
68.36,-169.194,-26.119
68.39,-171.651,-26.416
68.42,-174.178,-26.829
68.46,-177.126,-27.39
68.49,-179.933,-27.894
68.52,-182.671,-28.226
68.55,-185.233,-28.456
68.59,-187.689,-28.673
68.62,-190.041,-28.925
68.65,-192.252,-29.143
68.68,-194.252,-29.429
68.72,-196.393,-29.876
68.75,-198.569,-30.266
68.78,-200.499,-30.563
68.81,-202.534,-30.77
68.85,-204.43,-30.907
68.88,-206.114,-31.033
68.91,-207.693,-31.228
68.94,-209.273,-31.56
68.98,-210.957,-32.03
69.01,-212.923,-32.499
69.04,-214.993,-32.877
69.07,-217.099,-33.198
69.11,-219.31,-33.393
69.14,-221.24,-33.53
69.17,-223.17,-33.817
69.2,-225.311,-34.172
69.24,-227.277,-34.447
69.27,-229.277,-34.756
69.3,-231.242,-34.951
69.33,-232.927,-35.134
69.37,-234.506,-35.363
69.4,-236.261,-35.478
69.43,-237.7,-35.604
69.46,-239.034,-35.867
69.5,-240.648,-36.257
69.53,-242.192,-36.509
69.56,-243.701,-36.738
69.59,-245.386,-37.001
69.63,-246.825,-37.173
69.66,-248.264,-37.311
69.69,-249.773,-37.528
69.72,-251.422,-37.826
69.76,-252.966,-38.055
69.79,-254.405,-38.319
69.82,-256.09,-38.536
69.85,-257.529,-38.662
69.89,-258.897,-38.651
69.92,-260.02,-38.708
69.95,-261.143,-38.88
69.98,-262.267,-39.109
70.02,-263.46,-39.258
70.05,-264.513,-39.476
70.08,-265.706,-39.865
70.11,-267.11,-40.106
70.15,-268.443,-40.22
70.18,-269.672,-40.312
70.21,-270.83,-40.415
70.24,-271.953,-40.495
70.28,-273.041,-40.759
70.31,-274.304,-40.931
70.34,-275.357,-41.022
70.37,-276.234,-41.045
70.41,-277.112,-40.988
70.44,-277.638,-40.999
70.47,-278.094,-41.045
70.5,-278.516,-41.148
70.54,-279.182,-41.458
70.57,-279.814,-41.675
70.6,-280.516,-41.744
70.64,-281.078,-41.71
70.67,-281.604,-41.87
70.7,-282.376,-41.973
70.73,-282.727,-41.721
70.77,-282.797,-41.423
70.8,-282.867,-41.584
70.83,-283.008,-41.813
70.86,-283.148,-41.778
70.9,-283.113,-41.664
70.93,-282.973,-41.687
70.96,-282.867,-41.584
70.99,-282.411,-41.297
71.03,-281.885,-41.24
71.06,-281.639,-41.481
71.09,-281.499,-41.675
71.12,-281.323,-41.629
71.16,-281.148,-41.377
71.19,-280.516,-41.034
71.22,-279.568,-40.69
71.25,-278.41,-40.358
71.29,-277.182,-40.266
71.32,-276.164,-40.404
71.35,-275.252,-40.438
71.38,-274.164,-40.346
71.42,-273.146,-40.163
71.45,-272.058,-39.751
71.48,-270.584,-39.212
71.51,-268.864,-38.857
71.55,-267.215,-38.64
71.58,-265.565,-38.525
71.61,-263.951,-38.548
71.64,-262.653,-38.502
71.68,-261.179,-38.319
71.71,-259.74,-38.044
71.74,-258.371,-37.78
71.77,-257.108,-37.551
71.81,-255.634,-37.345
71.84,-254.44,-37.173
71.87,-253.107,-36.933
71.9,-251.562,-36.704
71.94,-250.124,-36.44
71.97,-248.579,-36.039
72.0,-246.649,-35.718
72.03,-244.894,-35.501
72.07,-243.175,-35.329
72.1,-241.315,-35.18
72.13,-239.665,-34.985
72.16,-238.156,-34.848
72.2,-236.401,-34.596
72.23,-234.541,-34.069
72.26,-232.646,-33.485
72.29,-230.435,-33.267
72.33,-228.54,-33.313
72.36,-226.645,-32.981
72.39,-224.609,-32.648
72.42,-222.89,-32.591
72.46,-221.346,-32.35
72.49,-219.275,-31.869
72.52,-217.204,-31.514
72.55,-215.485,-31.216
72.59,-213.484,-30.953
72.62,-211.589,-30.793
72.65,-209.869,-30.54
72.68,-208.009,-30.254
72.72,-205.974,-29.922
72.75,-204.149,-29.464
72.78,-201.938,-29.086
72.81,-199.692,-28.822
72.85,-197.797,-28.478
72.88,-195.551,-28.215
72.91,-193.515,-28.089
72.95,-191.69,-27.848
72.98,-189.69,-27.402
73.01,-187.303,-26.989
73.04,-185.197,-26.588
73.08,-182.951,-26.084
73.11,-180.319,-25.695
73.14,-177.898,-25.431
73.17,-175.616,-25.111
73.21,-173.019,-24.733
73.24,-170.633,-24.286
73.27,-167.966,-23.805
73.3,-164.983,-23.415
73.34,-162.175,-22.991
73.37,-159.438,-22.51
73.4,-156.595,-22.327
73.43,-154.103,-21.995
73.47,-151.295,-21.239
73.5,-148.032,-20.803
73.53,-145.013,-20.322
73.56,-142.381,-19.956
73.6,-139.293,-19.612
73.63,-136.45,-19.337
73.66,-134.029,-19.108
73.69,-131.291,-18.81
73.73,-128.799,-18.466
73.76,-126.448,-17.825
73.79,-123.465,-17.103
73.82,-120.271,-16.462
73.86,-117.253,-15.809
73.89,-113.708,-15.305
73.92,-110.164,-14.972
73.95,-107.005,-14.571
73.99,-103.566,-14.125
74.02,-100.162,-13.689
74.05,-97.108,-13.059
74.08,-93.459,-12.372
74.12,-89.703,-11.937
74.15,-86.44,-11.49
74.18,-82.93,-10.94
74.21,-79.315,-10.596
74.25,-76.262,-10.253
74.28,-73.174,-9.806
74.31,-69.804,-9.21
74.34,-66.751,-8.477
74.38,-63.312,-7.629
74.41,-59.241,-7.011
74.44,-55.486,-6.415
74.47,-51.59,-5.728
74.51,-47.343,-5.361
74.54,-43.729,-5.052
74.57,-40.079,-4.697
74.6,-36.359,-4.365
74.64,-33.2,-4.101
74.67,-31.235,-4.41
74.7,-30.428,-5.693
74.73,-29.655,-4.685
74.77,-26.216,-1.409
74.8,-20.917,0.137
74.83,-15.231,0.275
74.86,-9.686,0.802
74.9,-2.632,1.42
74.93,0.667,1.925
74.96,1.79,3.196
74.99,4.984,3.574
75.03,6.633,4.101
75.06,9.862,5.43
75.09,14.565,6.106
75.13,20.004,5.67
75.16,25.023,5.212
75.19,29.866,5.132
75.22,34.253,5.121
75.26,37.903,4.903
75.29,40.359,4.468
75.32,41.693,4.147
75.35,42.22,4.594
75.39,43.448,5.774
75.42,45.518,7.102
75.45,48.221,8.385
75.48,51.625,9.577
75.52,55.731,10.47
75.55,60.188,11.089
75.58,64.856,11.364
75.61,68.927,11.387
75.65,72.366,11.364
75.68,75.63,11.352
75.71,78.508,11.559
75.74,80.754,12.097
75.78,83.211,12.865
75.81,86.159,13.621
75.84,89.001,14.342
75.87,92.16,15.121
75.91,95.88,15.763
75.94,99.46,16.29
75.97,103.215,16.828
76.0,107.216,17.195
76.04,110.62,17.493
76.07,114.024,17.802
76.1,117.358,18.054
76.13,120.166,18.386
76.17,122.833,18.993
76.2,125.957,19.6
76.23,129.15,20.276
76.26,132.379,20.861
76.3,135.783,21.422
76.33,139.153,21.903
76.36,142.171,22.121
76.39,145.54,22.441
76.43,148.277,22.487
76.46,150.629,22.854
76.49,153.261,23.392
76.52,155.928,23.885
76.56,158.42,24.389
76.59,161.192,24.824
76.62,164.07,25.156
76.65,166.632,25.603
76.69,169.37,25.993
76.72,172.072,26.279
76.75,174.564,26.577
76.78,177.196,26.978
76.82,179.863,27.31
76.85,182.144,27.585
76.88,184.145,27.608
76.91,185.654,27.333
76.95,186.531,27.241
76.98,187.584,27.688
77.01,189.233,28.364
77.04,191.164,29.12
77.08,193.34,29.899
77.11,196.112,30.655
77.14,199.306,31.205
77.17,202.745,31.445
77.21,205.939,31.549
77.24,208.781,31.686
77.27,211.484,31.892
77.3,214.046,32.007
77.34,216.257,32.167
77.37,218.187,32.568
77.4,220.363,32.9
77.44,222.153,32.946
77.47,223.451,32.923
77.5,224.644,33.129
77.53,225.943,33.553
77.57,227.487,34.069
77.6,229.277,34.401
77.63,230.856,34.527
77.66,232.401,34.848
77.7,234.015,35.123
77.73,235.699,35.26
77.76,237.244,35.363
77.79,238.823,35.615
77.83,240.543,35.913
77.86,242.262,36.131
77.89,243.947,36.337
77.92,245.456,36.543
77.96,246.895,36.669
77.99,248.334,36.875
78.02,249.948,37.127
78.05,251.457,37.334
78.09,252.931,37.574
78.12,254.44,37.815
78.15,255.984,38.09
78.18,257.564,38.319
78.22,258.968,38.376
78.25,260.231,38.445
78.28,261.424,38.582
78.31,262.617,38.754
78.35,263.811,38.857
78.38,264.828,39.006
78.41,265.987,39.327
78.44,267.25,39.613
78.48,268.478,39.819
78.51,269.812,39.9
78.54,270.935,40.014
78.57,272.163,40.198
78.61,273.392,40.369
78.64,274.585,40.53
78.67,275.708,40.656
78.7,276.656,40.667
78.74,277.357,40.61
78.77,278.059,40.564
78.8,278.551,40.484
78.83,278.867,40.621
78.87,279.463,40.965
78.9,280.2,41.263
78.93,280.902,41.32
78.96,281.393,41.286
79.0,281.99,41.332
79.03,282.341,41.297
79.06,282.587,41.16
79.09,282.762,41.137
79.13,283.218,41.561
79.16,283.85,41.836
79.19,284.026,41.458
79.22,284.201,41.355
79.26,284.166,41.24
79.29,283.99,41.183
79.32,283.675,41.068
79.35,283.394,41.034
79.39,283.078,41.217
79.42,282.903,41.274
79.45,282.552,41.137
79.48,281.92,40.908
79.52,281.288,40.61
79.55,280.235,40.301
79.58,279.077,40.083
79.61,277.919,39.911
79.65,276.691,39.934
79.68,275.708,39.888
79.71,274.62,39.739
79.75,273.427,39.545
79.78,272.198,39.201
79.81,270.689,38.846
79.84,269.04,38.559
79.88,267.496,38.365
79.91,265.916,38.319
79.94,264.513,38.353
79.97,263.354,38.227
80.01,262.161,37.987
80.04,260.757,37.769
80.07,259.494,37.437
80.1,258.125,37.001
80.14,256.546,36.761
80.17,254.932,36.635
80.2,253.458,36.429
80.23,251.773,36.2
80.27,250.124,35.982
80.3,248.439,35.695
80.33,246.544,35.329
80.36,244.614,34.997
80.4,242.754,34.733
80.43,240.578,34.447
80.46,238.718,34.332
80.49,237.033,34.286
80.53,235.384,34.034
80.56,233.559,33.622
80.59,231.839,33.21
80.62,229.803,32.923
80.66,227.908,32.706
80.69,226.118,32.442
80.72,224.258,32.282
80.75,222.749,32.293
80.79,221.416,32.213
80.82,219.907,31.846
80.85,218.257,31.434
80.88,216.643,31.125
80.92,214.993,30.861
80.95,213.239,30.609
80.98,211.659,30.277
81.01,209.624,29.933
81.05,207.483,29.624
81.08,205.412,29.212
81.11,203.271,28.845
81.14,200.99,28.513
81.18,198.709,28.215
81.21,196.498,28.009
81.24,194.322,27.894
81.27,192.532,27.7
81.31,190.497,27.276
81.34,188.356,26.806
81.37,186.145,26.359
81.4,183.723,25.878
81.44,181.126,25.408
81.47,178.6,25.133
81.5,176.213,24.836
81.53,173.581,24.526
81.57,171.089,24.137
81.6,168.527,23.667
81.63,165.544,23.209
81.66,162.737,22.705
81.7,159.999,22.281
81.73,157.086,22.006
81.76,154.314,21.685
81.79,151.611,21.204
81.83,148.453,20.643
81.86,145.364,20.219
81.89,142.416,19.612
81.93,139.293,19.188
81.96,136.38,19.096
81.99,133.853,18.867
82.02,131.291,18.661
82.06,128.659,18.054
82.09,126.167,17.367
82.12,123.289,16.84
82.15,120.271,16.347
82.19,117.113,15.774
82.22,113.708,15.247
82.25,110.339,14.858
82.28,107.286,14.445
82.32,103.882,14.022
82.35,100.548,13.575
82.38,97.389,12.956
82.41,93.95,12.257
82.45,90.195,11.73
82.48,86.685,11.226
82.51,83.0,10.677
82.54,79.14,10.195
82.58,75.49,9.783
82.61,71.84,9.371
82.64,68.295,8.97
82.67,65.172,8.374
82.71,61.803,7.778
82.74,58.398,7.297
82.77,55.415,6.839
82.8,52.467,6.289
82.84,49.133,5.762
82.87,45.729,5.178
82.9,42.149,4.674
82.93,38.535,4.204
82.97,35.481,4.009
83.0,33.691,4.639
83.03,33.446,6.22
83.06,32.919,5.166
83.1,28.989,1.535
83.13,23.128,-0.389
83.16,16.635,-0.63
83.19,10.248,-1.249
83.23,2.176,-1.844
83.26,-0.667,-2.555
83.29,-2.492,-3.792
83.32,-5.475,-3.861
83.36,-6.984,-4.445
83.39,-10.388,-5.522
83.42,-14.81,-5.625
83.45,-19.969,-5.59
83.49,-25.374,-5.785
83.52,-30.884,-5.728
83.55,-35.411,-5.258
83.58,-38.64,-4.525
83.62,-40.359,-3.883
83.65,-40.921,-3.677
83.68,-41.096,-4.307
83.71,-42.149,-5.579
83.75,-44.255,-7.068
83.78,-47.133,-8.58
83.81,-50.888,-9.886
83.84,-55.275,-10.745
83.88,-60.048,-11.204
83.91,-64.786,-11.307
83.94,-68.962,-11.181
83.97,-72.296,-11.112
84.01,-75.244,-11.215
84.04,-78.052,-11.49
84.07,-80.228,-12.074
84.1,-82.614,-12.91
84.14,-85.632,-13.781
84.17,-88.826,-14.594
84.2,-92.195,-15.328
84.24,-95.88,-15.854
84.27,-99.495,-16.278
84.3,-103.25,-16.645
84.33,-106.865,-16.851
84.37,-110.023,-17.229
84.4,-113.287,-17.733
84.43,-116.586,-18.134
84.46,-119.429,-18.592
84.5,-122.342,-19.142
84.53,-125.536,-19.704
84.56,-128.764,-20.322
84.59,-132.098,-20.975
84.63,-135.854,-21.64
84.66,-139.258,-22.029
84.69,-142.451,-22.189
84.72,-145.399,-22.121
84.76,-148.137,-22.499
84.79,-150.945,-23.106
84.82,-153.928,-23.644
84.85,-156.595,-24.068
84.89,-159.157,-24.526
84.92,-162.07,-25.053
84.95,-164.842,-25.489
84.98,-167.545,-25.844
85.02,-170.247,-26.061
85.05,-172.633,-26.245
85.08,-174.95,-26.634
85.11,-177.687,-27.173
85.15,-180.284,-27.631
85.18,-182.635,-28.009
85.21,-185.127,-28.307
85.24,-187.549,-28.524
85.28,-189.865,-28.765
85.31,-192.076,-29.017
85.34,-194.147,-29.338
85.37,-196.182,-29.739
85.41,-198.499,-30.036
85.44,-200.429,-30.254
85.47,-202.254,-30.54
85.5,-204.254,-30.781
85.54,-206.044,-30.976
85.57,-207.623,-31.205
85.6,-209.308,-31.514
85.63,-211.308,-31.869
85.67,-213.168,-32.27
85.7,-215.134,-32.637
85.73,-217.204,-32.935
85.76,-219.205,-33.175
85.8,-221.24,-33.381
85.83,-223.206,-33.576
85.86,-225.206,-33.851
85.89,-227.101,-34.012
85.93,-228.926,-34.298
85.96,-230.716,-34.699
85.99,-232.576,-34.951
86.02,-234.19,-34.974
86.06,-235.664,-35.295
86.09,-237.524,-35.684
86.12,-239.279,-35.821
86.15,-240.823,-35.948
86.19,-242.297,-36.2
86.22,-243.982,-36.509
86.25,-245.596,-36.795
86.28,-247.246,-37.001
86.32,-248.755,-37.139
86.35,-250.229,-37.345
86.38,-251.773,-37.597
86.41,-253.528,-37.838
86.45,-255.072,-38.055
86.48,-256.581,-38.273
86.51,-257.95,-38.342
86.55,-259.143,-38.456
86.58,-260.336,-38.582
86.61,-261.53,-38.651
86.64,-262.582,-38.788
86.68,-263.495,-39.041
86.71,-264.688,-39.315
86.74,-266.022,-39.636
86.77,-267.355,-39.923
86.81,-268.689,-40.06
86.84,-269.917,-40.106
86.87,-271.04,-40.152
86.9,-272.269,-40.198
86.94,-273.392,-40.358
86.97,-274.304,-40.644
87.0,-275.462,-40.85
87.03,-276.34,-40.873
87.07,-277.112,-40.908
87.1,-277.884,-40.896
87.13,-278.41,-40.805
87.16,-278.831,-40.896
87.2,-279.463,-41.137
87.23,-279.99,-41.274
87.26,-280.516,-41.332
87.29,-280.972,-41.343
87.33,-281.358,-41.435
87.36,-281.674,-41.286
87.39,-281.955,-41.309
87.42,-282.271,-41.423
87.46,-282.481,-41.526
87.49,-282.727,-41.549
87.52,-283.043,-41.572
87.55,-283.253,-41.572
87.59,-283.429,-41.446
87.62,-283.253,-41.263
87.65,-282.867,-41.114
87.68,-282.552,-41.091
87.72,-282.341,-41.251
87.75,-282.166,-41.332
87.78,-281.744,-41.217
87.81,-281.253,-40.931
87.85,-280.481,-40.621
87.88,-279.604,-40.324
87.91,-278.445,-40.06
87.94,-277.322,-40.014
87.98,-276.234,-40.06
88.01,-275.287,-40.106
88.04,-274.409,-39.991
88.07,-273.322,-39.785
88.11,-272.093,-39.464
88.14,-270.724,-39.075
88.17,-269.11,-38.628
88.2,-267.32,-38.433
88.24,-265.952,-38.491
88.27,-264.513,-38.456
88.3,-263.144,-38.353
88.33,-261.951,-38.124
88.37,-260.512,-37.815
88.4,-259.038,-37.46
88.43,-257.458,-37.116
88.46,-255.914,-36.944
88.5,-254.335,-36.875
88.53,-252.931,-36.784
88.56,-251.527,-36.555
88.59,-250.053,-36.326
88.63,-248.474,-35.936
88.66,-246.754,-35.466
88.69,-245.035,-35.249
88.72,-243.28,-35.031
88.76,-241.49,-34.722
88.79,-239.384,-34.412
88.82,-237.56,-34.298
88.86,-235.91,-34.149
88.89,-234.085,-33.828
88.92,-232.155,-33.45
88.95,-230.365,-33.164
88.99,-228.435,-32.912
89.02,-226.505,-32.66
89.05,-224.785,-32.408
89.08,-222.89,-32.259
89.12,-221.03,-31.984
89.15,-219.31,-31.675
89.18,-217.134,-31.171
89.21,-214.958,-30.804
89.25,-213.239,-30.804
89.28,-211.624,-30.781
89.31,-210.045,-30.563
89.34,-208.606,-30.243
89.38,-206.781,-29.888
89.41,-204.816,-29.361
89.44,-202.815,-28.753
89.47,-200.394,-28.272
89.51,-197.797,-28.066
89.54,-195.656,-27.997
89.57,-193.55,-27.883
89.6,-191.479,-27.7
89.64,-189.549,-27.276
89.67,-187.303,-26.749
89.7,-184.917,-26.302
89.73,-182.706,-25.798
89.77,-180.109,-25.397
89.8,-177.512,-25.179
89.83,-175.195,-24.985
89.86,-172.879,-24.629
89.9,-170.282,-24.171
89.93,-167.755,-23.667
89.96,-165.123,-23.129
89.99,-162.21,-22.693
90.03,-159.367,-22.27
90.06,-156.63,-22.063
90.09,-153.787,-21.788
90.12,-150.839,-21.124
90.16,-148.137,-20.62
90.19,-144.803,-20.116
90.22,-141.89,-19.956
90.25,-139.258,-19.715
90.29,-136.52,-19.326
90.32,-134.099,-18.97
90.35,-131.747,-18.524
90.38,-129.01,-18.088
90.42,-126.202,-17.584
90.45,-123.325,-16.828
90.48,-119.85,-16.095
90.51,-116.376,-15.648
90.55,-113.287,-15.328
90.58,-109.953,-14.961
90.61,-106.584,-14.549
90.64,-103.391,-14.033
90.68,-99.986,-13.552
90.71,-96.652,-13.094
90.74,-93.494,-12.464
90.77,-89.844,-11.822
90.81,-86.159,-11.318
90.84,-82.719,-10.745
90.87,-79.14,-10.173
90.9,-75.42,-9.737
90.94,-72.156,-9.279
90.97,-68.506,-8.752
91.0,-64.891,-8.317
91.04,-61.732,-7.847
91.07,-58.398,-7.297
91.1,-54.819,-6.805
91.13,-51.414,-6.301
91.17,-47.975,-5.785
91.2,-44.325,-5.27
91.23,-40.781,-4.662
91.26,-37.166,-3.929
91.3,-33.376,-3.494
91.33,-30.989,-4.009
91.36,-30.392,-5.59
91.39,-29.269,-4.525
91.43,-25.339,-1.306
91.46,-20.18,0.0
91.49,-14.775,-0.023
91.52,-9.581,0.389
91.56,-3.088,0.985
91.59,0.421,1.26
91.62,0.877,2.429
91.65,3.685,3.15
91.69,5.826,3.654
91.72,8.177,5.052
91.75,12.634,6.266
91.78,18.495,6.197
91.82,24.04,5.636
91.85,29.199,5.361
91.88,33.972,5.315
91.91,38.113,5.132
91.95,40.956,4.685
91.98,42.465,4.273
92.01,43.167,4.41
92.04,43.764,5.407
92.08,45.308,6.839
92.11,48.01,8.237
92.14,51.169,9.531
92.17,55.205,10.585
92.21,59.662,11.272
92.24,64.365,11.559
92.27,68.787,11.559
92.3,72.542,11.478
92.34,75.56,11.513
92.37,78.297,11.765
92.4,81.0,12.143
92.43,83.421,12.761
92.47,86.018,13.586
92.5,89.177,14.377
92.53,92.371,15.11
92.56,95.705,15.832
92.6,99.46,16.37
92.63,103.145,16.759
92.66,106.76,17.103
92.69,110.269,17.458
92.73,113.603,17.871
92.76,116.797,18.272
92.79,120.026,18.558
92.82,122.868,18.925
92.86,125.641,19.463
92.89,128.589,20.082
92.92,131.502,20.631
92.95,134.555,21.227
92.99,137.959,21.96
93.02,141.328,22.304
93.05,144.557,22.728
93.08,147.891,22.991
93.12,150.945,23.255
93.15,153.577,23.495
93.18,156.174,23.828
93.21,158.911,24.274
93.25,161.333,24.675
93.28,163.719,25.099
93.31,166.351,25.523
93.35,168.948,25.958
93.38,171.475,26.394
93.41,174.178,26.806
93.44,176.915,27.253
93.48,179.758,27.7
93.51,182.671,28.1
93.54,185.233,28.387
93.57,187.479,28.433
93.61,189.655,28.375
93.64,191.444,28.559
93.67,193.199,29.086
93.7,195.48,29.704
93.74,197.726,30.231
93.77,200.113,30.701
93.8,202.534,31.079
93.83,204.781,31.239
93.87,207.062,31.342
93.9,209.203,31.503
93.93,211.168,31.801
93.96,213.063,32.156
94.0,215.204,32.419
94.03,216.959,32.499
94.06,218.362,32.625
94.09,219.626,32.728
94.13,221.205,32.969
94.16,222.784,33.565
94.19,224.469,34.069
94.22,226.469,34.355
94.26,228.365,34.561
94.29,230.365,34.687
94.32,232.19,34.974
94.35,233.945,35.157
94.39,235.559,35.191
94.42,237.068,35.317
94.45,238.612,35.661
94.48,240.297,36.074
94.52,242.087,36.348
94.55,243.666,36.6
94.58,245.351,36.818
94.61,246.93,36.898
94.65,248.439,37.001
94.68,249.913,37.311
94.71,251.562,37.62
94.74,253.247,37.883
94.78,254.791,38.136
94.81,256.371,38.365
94.84,257.915,38.525
94.87,259.213,38.559
94.91,260.371,38.64
94.94,261.53,38.8
94.97,262.617,39.006
95.0,263.846,39.293
95.04,265.179,39.51
95.07,266.373,39.671
95.1,267.741,39.854
95.13,269.075,39.911
95.17,270.128,39.991
95.2,271.075,40.117
95.23,272.163,40.278
95.26,273.216,40.553
95.3,274.48,40.782
95.33,275.638,40.873
95.36,276.585,40.873
95.39,277.428,40.873
95.43,278.024,40.828
95.46,278.375,40.816
95.49,278.656,40.816
95.52,279.007,41.011
95.56,279.533,41.274
95.59,280.06,41.412
95.62,280.621,41.435
95.66,281.148,41.549
95.69,281.744,41.584
95.72,282.06,41.435
95.75,282.306,41.309
95.79,282.622,41.618
95.82,283.324,41.962
95.85,283.534,41.584
95.88,283.534,41.481
95.92,283.64,41.423
95.95,283.534,41.389
95.98,283.253,41.251
96.01,282.832,41.103
96.05,282.552,41.229
96.08,282.341,41.355
96.11,282.13,41.309
96.14,281.604,41.011
96.18,280.762,40.702
96.21,279.744,40.472
96.24,278.726,40.198
96.27,277.533,40.014
96.31,276.34,40.083
96.34,275.287,40.106
96.37,274.234,39.957
96.4,273.041,39.751
96.44,271.777,39.499
96.47,270.409,39.109
96.5,268.794,38.708
96.53,267.215,38.559
96.57,265.916,38.559
96.6,264.478,38.422
96.63,263.109,38.239
96.66,261.81,38.044
96.7,260.477,37.769
96.73,258.968,37.574
96.76,257.704,37.425
96.79,256.406,37.219
96.83,254.826,37.036
96.86,253.458,36.807
96.89,252.159,36.52
96.92,250.58,36.234
96.96,248.965,35.844
96.99,247.035,35.386
97.02,244.894,35.123
97.05,242.999,34.962
97.09,241.104,34.722
97.12,239.069,34.63
97.15,237.419,34.527
97.18,235.735,34.138
97.22,233.734,33.737
97.25,231.874,33.439
97.28,230.084,33.175
97.31,228.119,32.912
97.35,226.224,32.797
97.38,224.644,32.545
97.41,222.89,32.339
97.44,221.346,32.27
97.48,219.977,31.95
97.51,218.222,31.537
97.54,216.502,31.297
97.57,215.063,31.033
97.61,213.133,30.667
97.64,211.203,30.392
97.67,209.378,30.174
97.7,207.378,29.75
97.74,205.061,29.235
97.77,202.78,28.811
97.8,200.288,28.501
97.83,197.902,28.307
97.87,195.796,28.238
97.9,193.761,28.135
97.93,191.69,27.986
97.97,190.076,27.608
98.0,188.145,27.058
98.03,185.899,26.565
98.06,183.723,26.004
98.1,181.302,25.477
98.13,178.635,25.179
98.16,176.213,24.962
98.19,173.721,24.584
98.23,170.808,24.148
98.26,168.141,23.77
98.29,165.474,23.301
98.32,162.421,22.842
98.36,159.718,22.464
98.39,157.016,22.098
98.42,154.033,21.846
98.45,151.331,21.479
98.49,148.628,20.803
98.52,145.505,20.311
98.55,142.557,19.795
98.58,139.714,19.371
98.62,136.275,18.902
98.65,133.327,18.81
98.68,131.046,18.764
98.71,128.554,18.363
98.75,126.062,17.836
98.78,123.605,17.149
98.81,120.447,16.496
98.84,117.148,15.958
98.88,114.095,15.385
98.91,110.655,14.892
98.94,107.251,14.526
98.97,104.057,14.033
99.01,100.513,13.518
99.04,96.898,13.014
99.07,93.599,12.418
99.1,89.844,11.776
99.14,85.913,11.307
99.17,82.614,10.837
99.2,79.175,10.253
99.23,75.49,9.829
99.27,72.191,9.371
99.3,68.787,8.809
99.33,65.137,8.34
99.36,61.803,7.916
99.4,58.469,7.469
99.43,55.064,7.08
99.46,52.011,6.553
99.49,48.817,5.934
99.53,45.238,5.43
99.56,41.974,4.972
99.59,38.745,4.319
99.62,35.236,3.861
99.66,32.849,4.204
99.69,32.147,5.648
99.72,31.445,5.144
99.75,28.006,1.821
99.79,22.672,-0.218
99.82,16.425,-0.401
99.85,10.599,-0.768
99.88,3.123,-1.42
99.92,-0.491,-1.982
99.95,-1.509,-3.242
99.98,-4.562,-3.54
100.01,-6.001,-3.918
100.05,-8.669,-5.315
100.08,-13.126,-5.865
100.11,-18.706,-5.819
100.15,-24.426,-5.923
100.18,-30.182,-5.751
100.21,-35.165,-5.304
100.24,-38.885,-4.685
100.28,-40.956,-4.158
100.31,-42.114,-3.872
100.34,-42.535,-4.147
100.37,-42.921,-5.27
100.41,-44.536,-6.896
100.44,-47.484,-8.374
100.47,-50.993,-9.611
100.5,-55.205,-10.539
100.54,-59.802,-11.169
100.57,-64.54,-11.421
100.6,-68.892,-11.398
100.63,-72.717,-11.261
100.67,-75.49,-11.307
100.7,-78.297,-11.639
100.73,-81.14,-12.005
100.76,-83.386,-12.613
100.8,-85.983,-13.495
100.83,-89.247,-14.365
100.86,-92.441,-15.098
100.89,-95.95,-15.706
100.93,-99.881,-16.106
100.96,-103.25,-16.496
100.99,-106.76,-16.863
101.02,-110.445,-17.195
101.06,-113.568,-17.573
101.09,-116.621,-17.962
101.12,-119.71,-18.306
101.15,-122.412,-18.799
101.19,-125.185,-19.474
101.22,-128.484,-20.15
101.25,-131.958,-20.838
101.28,-135.608,-21.662
101.32,-139.503,-22.029
101.35,-142.838,-22.109
101.38,-145.715,-21.995
101.41,-148.628,-22.224
101.45,-151.225,-22.751
101.48,-153.752,-23.335
101.51,-156.595,-23.839
101.54,-159.473,-24.228
101.58,-162.14,-24.698
101.61,-164.912,-25.156
101.64,-167.615,-25.466
101.67,-170.107,-25.706
101.71,-172.528,-25.867
101.74,-174.915,-26.164
101.77,-177.231,-26.772
101.8,-179.863,-27.356
101.84,-182.565,-27.722
101.87,-185.092,-27.963
101.9,-187.549,-28.284
101.93,-190.076,-28.513
101.97,-192.216,-28.696
102.0,-194.322,-28.948
102.03,-196.498,-29.269
102.06,-198.569,-29.613
102.1,-200.604,-29.968
102.13,-202.64,-30.231
102.16,-204.465,-30.46
102.19,-206.255,-30.632
102.23,-208.009,-30.804
102.26,-209.659,-31.09
102.29,-211.519,-31.468
102.32,-213.484,-31.778
102.36,-215.239,-32.133
102.39,-217.064,-32.545
102.42,-219.064,-32.82
102.46,-221.1,-32.935
102.49,-222.855,-33.152
102.52,-224.75,-33.507
102.55,-226.785,-33.817
102.59,-228.856,-34.138
102.62,-230.962,-34.321
102.65,-232.751,-34.493
102.68,-234.471,-34.584
102.72,-236.156,-34.619
102.75,-237.7,-35.008
102.78,-239.314,-35.398
102.81,-240.999,-35.684
102.85,-242.578,-35.856
102.88,-244.122,-36.005
102.91,-245.772,-36.303
102.94,-247.491,-36.532
102.98,-249.001,-36.6
103.01,-250.264,-36.726
103.04,-251.738,-37.036
103.07,-253.317,-37.379
103.11,-255.002,-37.62
103.14,-256.511,-37.803
103.17,-257.845,-37.883
103.2,-259.143,-37.929
103.24,-260.301,-38.055
103.27,-261.494,-38.193
103.3,-262.617,-38.319
103.33,-263.6,-38.525
103.37,-264.653,-38.857
103.4,-266.057,-39.155
103.43,-267.426,-39.327
103.46,-268.724,-39.441
103.5,-269.987,-39.487
103.53,-271.111,-39.579
103.56,-272.163,-39.751
103.59,-273.357,-40.003
103.63,-274.55,-40.175
103.66,-275.533,-40.358
103.69,-276.445,-40.427
103.72,-277.287,-40.381
103.76,-277.919,-40.369
103.79,-278.481,-40.324
103.82,-278.937,-40.346
103.85,-279.428,-40.587
103.89,-280.06,-40.805
103.92,-280.692,-40.908
103.95,-281.218,-40.919
103.98,-281.779,-40.999
104.02,-282.095,-40.747
104.05,-282.306,-40.713
104.08,-282.481,-40.885
104.11,-282.727,-40.908
104.15,-282.938,-40.976
104.18,-283.218,-41.08
104.21,-283.429,-41.091
104.24,-283.464,-41.022
104.28,-283.464,-40.885
104.31,-283.113,-40.667
104.34,-282.692,-40.472
104.37,-282.271,-40.53
104.41,-281.955,-40.713
104.44,-281.604,-40.656
104.47,-281.113,-40.461
104.5,-280.446,-40.198
104.54,-279.568,-39.877
104.57,-278.445,-39.602
104.6,-277.357,-39.51
104.63,-276.234,-39.59
104.67,-275.322,-39.625
104.7,-274.374,-39.51
104.73,-273.251,-39.258
104.77,-272.093,-38.937
104.8,-270.83,-38.605
104.83,-269.286,-38.227
104.86,-267.706,-37.998
104.9,-266.232,-37.964
104.93,-264.899,-37.883
104.96,-263.565,-37.757
104.99,-262.161,-37.62
105.03,-260.793,-37.357
105.06,-259.319,-37.024
105.09,-257.739,-36.738
105.12,-256.23,-36.532
105.16,-254.826,-36.394
105.19,-253.317,-36.177
105.22,-251.773,-35.913
105.25,-250.159,-35.615
105.29,-248.474,-35.249
105.32,-246.509,-34.825
105.35,-244.508,-34.538
105.38,-242.438,-34.424
105.42,-240.613,-34.367
105.45,-238.963,-34.138
105.48,-237.314,-33.989
105.51,-235.805,-33.84
105.55,-234.296,-33.507
105.58,-232.576,-33.095
105.61,-230.821,-32.82
105.64,-229.102,-32.557
105.68,-227.136,-32.236
105.71,-225.241,-31.915
105.74,-223.381,-31.72
105.77,-221.31,-31.434
105.81,-219.45,-31.182
105.84,-217.45,-30.747
105.87,-215.204,-30.38
105.9,-213.239,-30.357
105.94,-211.484,-30.323
105.97,-209.799,-30.151
106.0,-208.325,-29.876
106.03,-206.606,-29.418
106.07,-204.57,-28.845
106.1,-202.324,-28.398
106.13,-200.113,-28.1
106.16,-197.937,-27.883
106.2,-195.726,-27.665
106.23,-193.761,-27.459
106.26,-191.725,-27.299
106.29,-189.725,-27.058
106.33,-187.689,-26.52
106.36,-185.443,-25.947
106.39,-182.916,-25.477
106.42,-180.495,-25.065
106.46,-177.898,-24.755
106.49,-175.371,-24.607
106.52,-173.09,-24.343
106.55,-170.598,-23.873
106.59,-167.931,-23.301
106.62,-165.228,-22.785
106.65,-162.421,-22.315
106.68,-159.402,-21.937
106.72,-156.805,-21.777
106.75,-154.068,-21.468
106.78,-151.19,-20.769
106.81,-148.347,-20.345
106.85,-145.364,-19.749
106.88,-142.241,-19.497
106.91,-139.503,-19.291
106.94,-136.801,-18.902
106.98,-134.064,-18.673
107.01,-131.572,-18.34
107.04,-129.115,-17.859
107.08,-126.308,-17.309
107.11,-123.43,-16.725
107.14,-120.271,-16.015
107.17,-116.797,-15.396
107.21,-113.322,-14.938
107.24,-109.988,-14.617
107.27,-106.689,-14.377
107.3,-103.531,-14.045
107.34,-100.337,-13.529
107.37,-96.898,-12.899
107.4,-93.388,-12.257
107.43,-89.984,-11.57
107.47,-86.334,-10.997
107.5,-82.719,-10.516
107.53,-79.105,-9.966
107.56,-75.49,-9.474
107.6,-71.945,-9.061
107.63,-68.436,-8.603
107.66,-64.786,-8.111
107.69,-61.206,-7.618
107.73,-57.837,-7.068
107.76,-54.222,-6.541
107.79,-50.748,-6.083
107.82,-47.379,-5.613
107.86,-44.009,-5.109
107.89,-40.5,-4.651
107.92,-37.166,-4.17
107.95,-34.077,-3.895
107.99,-31.937,-4.456
108.02,-31.691,-5.957
108.05,-31.165,-5.006
108.08,-27.585,-1.661
108.12,-22.426,0.034
108.15,-16.6,0.286
108.18,-10.88,0.836
108.21,-3.474,1.478
108.25,0.597,1.867
108.28,1.474,3.173
108.31,4.668,3.712
108.34,6.528,4.124
108.38,9.335,5.487
108.41,14.108,6.312
108.44,19.759,5.945
108.47,24.988,5.43
108.51,29.831,5.361
108.54,34.323,5.292
108.57,38.078,4.914
108.6,40.43,4.342
108.64,41.518,4.078
108.67,42.114,4.548
108.7,43.167,5.705
108.73,44.922,7.137
108.77,47.729,8.477
108.8,51.309,9.691
108.83,55.626,10.642
108.86,60.153,11.181
108.9,64.645,11.364
108.93,68.716,11.375
108.96,72.226,11.352
108.99,75.314,11.444
109.03,78.017,11.822
109.06,80.754,12.338
109.09,83.386,12.922
109.12,86.018,13.689
109.16,89.072,14.48
109.19,92.3,15.179
109.22,95.845,15.751
109.26,99.39,16.187
109.29,102.829,16.565
109.32,106.163,16.989
109.35,109.567,17.367
109.39,112.936,17.813
109.42,116.165,18.203
109.45,119.148,18.569
109.48,122.061,19.085
109.52,125.009,19.646
109.55,128.133,20.253
109.58,131.432,20.849
109.61,134.766,21.422
109.65,138.451,22.144
109.68,142.101,22.43
109.71,145.364,22.728
109.74,148.383,22.934
109.78,151.19,23.175
109.81,153.857,23.381
109.84,156.279,23.702
109.87,158.63,24.309
109.91,161.157,24.847
109.94,163.824,25.317
109.97,166.492,25.741
110.0,169.159,26.061
110.04,171.686,26.336
110.07,174.178,26.703
110.1,176.845,27.218
110.13,179.617,27.791
110.17,182.495,28.226
110.2,185.268,28.49
110.23,187.759,28.559
110.26,189.935,28.685
110.3,191.971,28.994
110.33,194.252,29.383
110.36,196.428,29.796
110.39,198.499,30.197
110.43,200.71,30.598
110.46,202.85,30.896
110.49,204.851,31.045
110.52,206.711,31.205
110.56,208.501,31.434
110.59,210.396,31.743
110.62,212.326,32.064
110.65,214.116,32.328
110.69,215.836,32.614
110.72,217.661,32.912
110.75,219.556,33.221
110.78,221.521,33.542
110.82,223.592,33.931
110.85,225.768,34.39
110.88,228.014,34.756
110.91,230.435,35.008
110.95,232.646,35.18
110.98,234.647,35.432
111.01,236.858,35.718
111.04,238.998,35.993
111.08,241.034,36.314
111.11,243.069,36.646
111.14,245.14,36.898
111.17,247.141,37.139
111.21,249.071,37.425
111.24,250.861,37.654
111.27,252.721,37.987
111.3,254.826,38.319
111.34,256.757,38.582
111.37,258.546,38.811
111.4,260.266,38.903
111.43,261.705,38.708
111.47,262.617,38.628
111.5,263.319,38.662
111.53,263.881,38.685
111.57,264.442,38.88
111.6,265.109,39.304
111.63,266.092,39.774
111.66,267.215,40.152
111.7,268.443,40.346
111.73,269.917,40.461
111.76,271.321,40.495
111.79,272.409,40.392
111.83,273.251,40.312
111.86,274.059,40.507
111.89,274.936,40.736
111.92,275.989,40.908
111.96,276.831,41.068
111.99,277.744,41.229
112.02,278.516,41.137
112.05,278.831,41.011
112.09,279.077,41.034
112.12,279.463,41.057
112.15,279.744,41.16
112.18,280.165,41.503
112.22,280.832,41.755
112.25,281.393,41.755
112.28,281.955,41.629
112.31,282.341,41.549
112.35,282.552,41.503
112.38,282.692,41.458
112.41,282.867,41.515
112.44,283.253,41.755
112.48,283.604,41.893
112.51,283.815,41.79
112.54,283.815,41.595
112.57,283.675,41.526
112.61,283.499,41.503
112.64,283.253,41.481
112.67,282.973,41.515
112.7,282.938,41.687
112.74,283.008,41.813
112.77,282.797,41.607
112.8,282.271,41.091
112.83,281.218,40.633
112.87,280.06,40.312
112.9,278.831,40.14
112.93,277.393,40.117
112.96,276.199,40.278
113.0,275.146,40.438
113.03,274.164,40.301
113.06,273.076,39.877
113.09,271.777,39.361
113.13,270.058,38.983
113.16,268.513,38.685
113.19,266.829,38.559
113.22,265.355,38.605
113.26,264.056,38.628
113.29,262.758,38.399
113.32,261.249,38.067
113.35,259.985,37.792
113.39,258.125,37.208
113.42,253.563,34.412
113.45,245.947,30.724
113.48,237.56,29.326
113.52,229.698,30.288
113.55,223.907,31.835
113.58,219.766,32.82
113.61,216.608,33.886
113.65,216.959,35.329
113.68,219.731,36.257
113.71,222.539,36.463
113.74,226.083,36.44
113.78,230.856,36.452
113.81,235.033,36.314
113.84,238.051,35.673
113.88,239.244,34.264
113.91,238.542,32.431
113.94,236.156,31.251
113.97,232.751,31.262
114.01,229.698,31.583
114.04,226.891,31.927
114.07,224.329,32.58
114.1,222.223,33.152
114.14,220.714,32.889
114.17,219.415,32.247
114.2,217.871,31.892
114.23,216.257,31.606
114.27,214.748,31.022
114.3,212.607,30.38
114.33,210.396,30.002
114.36,208.22,29.693
114.4,205.623,29.235
114.43,202.956,28.902
114.46,200.674,28.811
114.49,198.604,28.868
114.53,196.744,28.902
114.56,195.375,28.708
114.59,193.901,28.364
114.62,192.111,27.997
114.66,190.392,27.379
114.69,188.251,26.646
114.72,185.583,26.061
114.75,182.986,25.649
114.79,180.144,25.351
114.82,177.266,25.133
114.85,174.844,24.836
114.88,172.318,24.389
114.92,169.299,23.931
114.95,166.492,23.484
114.98,163.614,22.98
115.01,160.35,22.579
115.05,157.578,22.235
115.08,154.91,21.754
115.11,151.682,21.273
115.14,148.558,20.838
115.18,145.575,20.311
115.21,142.171,19.852
115.24,139.047,19.429
115.27,136.099,18.856
115.31,132.73,18.421
115.34,129.712,18.226
115.37,127.22,17.962
115.4,124.377,17.607
115.44,121.57,17.183
115.47,119.078,16.553
115.5,115.99,15.969
115.53,112.866,15.602
115.57,110.164,15.213
115.6,107.216,14.732
115.63,104.092,14.319
115.66,101.25,13.781
115.7,98.021,13.071
115.73,94.406,12.395
115.76,90.932,11.765
115.79,87.106,11.226
115.83,83.281,10.883
115.86,79.947,10.425
115.89,76.332,9.955
115.92,72.682,9.657
115.96,69.594,9.21
115.99,66.295,8.557
116.02,62.68,8.065
116.05,59.662,7.572
116.09,56.468,6.999
116.12,52.924,6.541
116.15,49.73,6.152
116.19,46.571,5.579
116.22,42.957,5.098
116.25,39.658,4.502
116.28,36.429,4.135
116.32,34.077,4.846
116.35,33.762,6.289
116.38,32.674,4.788
116.41,28.076,1.249
116.45,22.25,-0.332
116.48,15.968,-0.481
116.51,9.932,-0.894
116.54,2.597,-1.317
116.58,-0.491,-1.753
