Trigger_Date,2023/06/28
Trigger_Time,T 13:07:03.981 PDT
Samples_Per_Cycle,512
Microseconds_Per_Sample,32.569
Time (ms),Voltage (V),Current (A)
-16.68,1.334,2.715
-16.64,4.141,3.047
-16.61,5.756,3.608
-16.58,8.247,5.155
-16.54,12.775,6.106
-16.51,18.39,6.003
-16.48,23.865,5.59
-16.45,29.024,5.281
-16.41,33.656,5.166
-16.38,37.552,5.052
-16.35,40.57,4.685
-16.32,42.079,4.204
-16.28,42.395,4.433
-16.25,43.307,5.487
-16.22,45.132,6.954
-16.19,47.765,8.443
-16.15,51.169,9.817
-16.12,55.556,10.86
-16.09,60.258,11.536
-16.06,65.137,11.788
-16.02,69.453,11.753
-15.99,73.103,11.685
-15.96,76.297,11.719
-15.93,79.175,11.914
-15.89,81.491,12.406
-15.86,83.948,13.094
-15.83,86.79,13.884
-15.8,89.563,14.732
-15.76,92.827,15.557
-15.73,96.371,16.175
-15.7,99.881,16.656
-15.67,103.496,17.069
-15.63,107.321,17.367
-15.6,110.62,17.71
-15.57,113.779,18.134
-15.54,117.078,18.455
-15.5,119.92,18.776
-15.47,122.517,19.291
-15.44,125.465,19.898
-15.4,128.378,20.517
-15.37,131.361,21.124
-15.34,134.766,21.777
-15.31,138.24,22.464
-15.27,141.609,22.705
-15.24,145.013,22.98
-15.21,147.926,23.106
-15.18,150.664,23.472
-15.14,153.506,23.896
-15.11,156.104,24.251
-15.08,158.455,24.664
-15.05,160.912,25.007
-15.01,163.263,25.374
-14.98,165.439,25.832
-14.95,167.966,26.268
-14.92,170.633,26.646
-14.88,173.019,27.127
-14.85,175.862,27.722
-14.82,178.775,28.158
-14.79,181.548,28.501
-14.75,184.285,28.776
-14.72,186.917,28.914
-14.69,189.093,29.131
-14.66,191.269,29.418
-14.62,193.48,29.716
-14.59,195.305,30.117
-14.56,197.446,30.575
-14.53,199.657,30.896
-14.49,201.692,31.136
-14.46,203.517,31.308
-14.43,205.377,31.48
-14.4,207.027,31.663
-14.36,208.571,32.018
-14.33,210.571,32.431
-14.3,212.502,32.843
-14.27,214.572,33.21
-14.23,216.678,33.553
-14.2,218.468,33.53
-14.17,220.152,33.611
-14.13,221.977,34.012
-14.1,223.907,34.355
-14.07,225.662,34.745
-14.04,227.698,35.077
-14.0,229.488,35.214
-13.97,231.137,35.398
-13.94,232.962,35.604
-13.91,234.612,35.741
-13.87,236.05,35.948
-13.84,237.63,36.2
-13.81,239.174,36.497
-13.78,240.648,36.795
-13.74,242.368,37.185
-13.71,244.263,37.505
-13.68,245.947,37.666
-13.65,247.597,37.838
-13.61,249.246,38.044
-13.58,250.861,38.25
-13.55,252.51,38.502
-13.52,254.195,38.754
-13.48,255.739,38.972
-13.45,257.248,39.121
-13.42,258.546,39.109
-13.39,259.529,39.052
-13.35,260.442,39.144
-13.32,261.459,39.43
-13.29,262.582,39.831
-13.26,263.776,40.152
-13.22,265.074,40.346
-13.19,266.302,40.495
-13.16,267.496,40.598
-13.13,268.654,40.667
-13.09,269.742,40.759
-13.06,270.865,40.942
-13.03,271.918,41.183
-12.99,273.146,41.458
-12.96,274.269,41.595
-12.93,275.322,41.561
-12.9,276.059,41.458
-12.86,276.691,41.446
-12.83,277.112,41.446
-12.8,277.428,41.469
-12.77,277.779,41.664
-12.73,278.305,41.95
-12.7,278.867,42.007
-12.67,279.393,42.156
-12.64,279.709,42.076
-12.6,280.06,42.007
-12.57,280.341,41.962
-12.54,280.586,41.973
-12.51,280.867,42.122
-12.47,281.288,42.534
-12.44,281.779,42.374
-12.41,281.779,42.122
-12.38,281.744,41.985
-12.34,281.604,41.881
-12.31,281.288,41.893
-12.28,280.937,41.755
-12.25,280.516,41.881
-12.21,280.516,42.065
-12.18,280.305,42.122
-12.15,280.165,42.019
-12.12,279.884,41.721
-12.08,279.112,41.412
-12.05,278.235,41.068
-12.02,277.007,40.702
-11.99,275.638,40.598
-11.95,274.409,40.553
-11.92,273.041,40.427
-11.89,271.567,40.163
-11.85,269.987,39.911
-11.82,268.408,39.693
-11.79,266.689,39.43
-11.76,265.215,39.281
-11.72,263.811,39.304
-11.69,262.617,39.293
-11.66,261.494,39.041
-11.63,260.336,38.674
-11.59,258.862,38.342
-11.56,257.458,37.964
-11.53,255.739,37.551
-11.5,253.914,37.368
-11.46,252.37,37.357
-11.43,250.896,37.288
-11.4,249.422,37.116
-11.37,247.983,36.933
-11.33,246.579,36.612
-11.3,245.105,36.245
-11.27,243.491,35.913
-11.24,241.701,35.73
-11.2,240.086,35.501
-11.17,238.437,35.214
-11.14,236.717,35.077
-11.11,235.138,34.905
-11.07,233.278,34.309
-11.04,231.207,33.748
-11.01,228.996,33.702
-10.98,227.277,33.691
-10.94,225.697,33.542
-10.91,223.943,33.359
-10.88,222.469,33.221
-10.85,221.17,32.843
-10.81,219.38,32.373
-10.78,217.52,31.892
-10.75,215.485,31.411
-10.72,213.133,31.045
-10.68,210.887,30.884
-10.65,208.957,30.689
-10.62,206.781,30.54
-10.58,204.675,30.346
-10.55,202.85,29.945
-10.52,200.745,29.487
-10.49,198.534,29.109
-10.45,196.498,28.788
-10.42,194.392,28.582
-10.39,192.357,28.341
-10.36,190.532,28.02
-10.32,188.461,27.654
-10.29,186.25,27.264
-10.26,184.109,26.772
-10.23,181.583,26.245
-10.19,178.915,25.855
-10.16,176.529,25.546
-10.13,174.142,25.225
-10.1,171.581,24.904
-10.06,168.983,24.446
-10.03,166.211,23.965
-10.0,163.333,23.587
-9.97,160.736,23.106
-9.93,157.823,22.636
-9.9,154.805,22.35
-9.87,152.278,22.018
-9.84,149.611,21.617
-9.8,146.628,21.032
-9.77,143.89,20.654
-9.74,141.013,20.173
-9.71,137.924,19.852
-9.67,135.432,19.658
-9.64,132.976,19.119
-9.61,130.063,18.684
-9.58,127.396,18.168
-9.54,124.693,17.584
-9.51,121.5,17.172
-9.48,118.552,16.794
-9.44,115.744,16.255
-9.41,112.585,15.832
-9.38,109.673,15.488
-9.35,106.795,14.972
-9.31,103.461,14.388
-9.28,100.021,13.792
-9.25,96.652,13.094
-9.22,92.967,12.521
-9.18,89.352,11.994
-9.15,85.878,11.421
-9.12,81.947,10.917
-9.09,78.157,10.482
-9.05,74.788,9.966
-9.02,71.033,9.428
-8.99,67.278,8.981
-8.96,64.084,8.374
-8.92,60.469,7.79
-8.89,56.854,7.4
-8.86,53.941,7.08
-8.83,50.783,6.679
-8.79,47.694,6.197
-8.76,44.817,5.522
-8.73,41.483,5.018
-8.7,38.148,4.594
-8.66,35.446,4.422
-8.63,33.937,5.132
-8.6,33.832,6.449
-8.57,32.779,4.72
-8.53,28.392,1.088
-8.5,22.356,-0.435
-8.47,15.933,-0.596
-8.44,9.441,-1.272
-8.4,1.72,-1.81
-8.37,-0.667,-2.543
-8.34,-2.562,-3.735
-8.3,-5.44,-3.792
-8.27,-7.089,-4.513
-8.24,-10.634,-5.464
-8.21,-14.951,-5.441
-8.17,-19.969,-5.487
-8.14,-25.233,-5.636
-8.11,-30.428,-5.361
-8.08,-34.393,-4.834
-8.04,-37.341,-4.376
-8.01,-39.166,-4.044
-7.98,-40.149,-4.067
-7.95,-40.64,-4.788
-7.91,-42.149,-6.026
-7.88,-44.501,-7.435
-7.85,-47.554,-8.89
-7.82,-51.73,-10.104
-7.78,-56.293,-10.917
-7.75,-60.995,-11.295
-7.72,-65.593,-11.352
-7.69,-69.524,-11.261
-7.65,-72.577,-11.352
-7.62,-75.735,-11.49
-7.59,-78.473,-11.753
-7.56,-80.508,-12.429
-7.52,-83.246,-13.334
-7.49,-86.404,-14.125
-7.46,-89.352,-14.869
-7.43,-92.757,-15.476
-7.39,-96.371,-15.923
-7.36,-99.706,-16.37
-7.33,-103.355,-16.794
-7.3,-106.935,-17.126
-7.26,-109.883,-17.561
-7.23,-113.217,-18.031
-7.2,-116.551,-18.329
-7.17,-119.218,-18.821
-7.13,-122.131,-19.371
-7.1,-125.43,-19.818
-7.07,-128.168,-20.334
-7.03,-131.396,-21.055
-7.0,-135.152,-21.685
-6.97,-138.451,-22.178
-6.94,-141.679,-22.59
-6.9,-144.838,-22.545
-6.87,-147.365,-22.819
-6.84,-149.997,-23.369
-6.81,-153.191,-23.862
-6.77,-155.788,-24.309
-6.74,-158.35,-24.847
-6.71,-161.298,-25.351
-6.68,-164.07,-25.66
-6.64,-166.667,-26.027
-6.61,-169.65,-26.325
-6.58,-172.107,-26.531
-6.55,-174.248,-26.852
-6.51,-176.845,-27.333
-6.48,-179.442,-27.814
-6.45,-181.793,-28.33
-6.42,-184.636,-28.742
-6.38,-187.198,-28.948
-6.35,-189.374,-29.143
-6.32,-191.76,-29.338
-6.29,-193.936,-29.601
-6.25,-195.796,-30.082
-6.22,-198.077,-30.437
-6.19,-200.148,-30.563
-6.16,-201.692,-30.77
-6.12,-203.517,-31.056
-6.09,-205.307,-31.239
-6.06,-206.746,-31.514
-6.03,-208.395,-31.858
-5.99,-210.291,-32.305
-5.96,-212.361,-32.832
-5.93,-214.677,-33.29
-5.89,-216.994,-33.416
-5.86,-218.819,-33.668
-5.83,-220.854,-33.943
-5.8,-222.96,-34.012
-5.76,-224.715,-34.206
-5.73,-226.575,-34.584
-5.7,-228.4,-34.745
-5.67,-229.944,-34.917
-5.63,-231.699,-35.249
-5.6,-233.524,-35.489
-5.57,-234.998,-35.707
-5.54,-236.542,-35.948
-5.5,-238.332,-36.211
-5.47,-239.946,-36.532
-5.44,-241.666,-36.91
-5.41,-243.666,-37.139
-5.37,-245.245,-37.173
-5.34,-246.439,-37.242
-5.31,-247.842,-37.322
-5.28,-248.93,-37.528
-5.24,-250.299,-37.792
-5.21,-251.808,-38.044
-5.18,-253.177,-38.33
-5.15,-254.546,-38.64
-5.11,-256.125,-38.846
-5.08,-257.564,-38.96
-5.05,-258.932,-39.052
-5.02,-260.091,-39.063
-4.98,-261.143,-39.086
-4.95,-262.161,-39.373
-4.92,-263.354,-39.716
-4.89,-264.583,-39.934
-4.85,-265.741,-40.117
-4.82,-267.004,-40.255
-4.79,-268.233,-40.369
-4.76,-269.215,-40.518
-4.72,-270.303,-40.69
-4.69,-271.672,-40.885
-4.66,-272.725,-41.171
-4.62,-273.988,-41.332
-4.59,-275.076,-41.229
-4.56,-275.778,-41.16
-4.53,-276.305,-41.091
-4.49,-276.726,-41.045
-4.46,-276.936,-41.114
-4.43,-277.357,-41.458
-4.4,-277.954,-41.641
-4.36,-278.445,-41.698
-4.33,-279.007,-41.687
-4.3,-279.498,-41.881
-4.27,-280.27,-42.168
-4.23,-280.656,-41.721
-4.2,-280.762,-41.607
-4.17,-281.148,-41.79
-4.14,-281.393,-41.985
-4.1,-281.779,-41.985
-4.07,-281.744,-41.813
-4.04,-281.604,-41.778
-4.01,-281.429,-41.664
-3.97,-280.972,-41.515
-3.94,-280.586,-41.435
-3.91,-280.06,-41.492
-3.88,-279.744,-41.526
-3.84,-279.323,-41.526
-3.81,-278.937,-41.446
-3.78,-278.481,-41.171
-3.75,-277.638,-40.839
-3.71,-276.585,-40.576
-3.68,-275.427,-40.358
-3.65,-274.304,-40.346
-3.62,-273.357,-40.415
-3.58,-272.374,-40.266
-3.55,-271.251,-39.968
-3.52,-269.952,-39.739
-3.48,-268.654,-39.499
-3.45,-267.25,-39.098
-3.42,-265.565,-38.88
-3.39,-264.267,-38.903
-3.35,-263.074,-38.857
-3.32,-261.565,-38.8
-3.29,-260.547,-38.662
-3.26,-259.319,-38.273
-3.22,-257.739,-37.883
-3.19,-256.3,-37.643
-3.16,-254.897,-37.402
-3.13,-253.247,-37.173
-3.09,-251.633,-36.979
-3.06,-250.229,-36.841
-3.03,-248.755,-36.704
-3.0,-247.141,-36.314
-2.96,-245.386,-35.856
-2.93,-243.561,-35.615
-2.9,-241.736,-35.478
-2.87,-240.121,-35.237
-2.83,-238.191,-34.848
-2.8,-236.331,-34.653
-2.77,-234.576,-34.47
-2.74,-232.892,-34.241
-2.7,-231.067,-33.943
-2.67,-229.347,-33.714
-2.64,-227.803,-33.622
-2.61,-226.224,-33.416
-2.57,-224.715,-33.141
-2.54,-223.206,-32.809
-2.51,-221.381,-32.396
-2.48,-219.345,-31.927
-2.44,-217.204,-31.56
-2.41,-215.134,-31.274
-2.38,-213.028,-31.033
-2.34,-210.817,-30.919
-2.31,-208.992,-30.77
-2.28,-207.237,-30.552
-2.25,-205.588,-30.243
-2.21,-203.622,-29.727
-2.18,-201.447,-29.235
-2.15,-199.2,-28.776
-2.12,-196.919,-28.478
-2.08,-194.638,-28.272
-2.05,-192.357,-28.043
-2.02,-190.251,-27.768
-1.99,-188.04,-27.39
-1.95,-185.724,-26.943
-1.92,-183.337,-26.497
-1.89,-180.811,-26.061
-1.86,-178.143,-25.695
-1.82,-175.687,-25.42
-1.79,-173.511,-25.111
-1.76,-171.089,-24.721
-1.73,-168.457,-24.332
-1.69,-165.93,-23.85
-1.66,-163.263,-23.346
-1.63,-160.42,-22.854
-1.6,-157.648,-22.43
-1.56,-154.84,-22.189
-1.53,-152.313,-21.926
-1.5,-150.137,-21.983
-1.47,-148.347,-22.166
-1.43,-147.084,-22.189
-1.4,-146.136,-22.063
-1.37,-144.873,-21.422
-1.34,-142.978,-20.345
-1.3,-140.451,-19.474
-1.27,-137.468,-18.684
-1.24,-133.748,-17.825
-1.21,-129.712,-17.115
-1.17,-125.255,-16.633
-1.14,-120.973,-16.381
-1.11,-117.218,-16.233
-1.07,-113.533,-16.129
-1.04,-110.129,-16.015
-1.01,-107.356,-15.637
-0.98,-104.268,-14.778
-0.94,-100.723,-13.77
-0.91,-96.968,-12.83
-0.88,-92.932,-12.005
-0.85,-88.651,-11.33
-0.81,-84.439,-10.883
-0.78,-80.333,-10.528
-0.75,-76.402,-10.218
-0.72,-72.717,-9.772
-0.68,-69.102,-9.199
-0.65,-65.382,-8.615
-0.62,-61.838,-8.076
-0.59,-58.293,-7.515
-0.55,-54.749,-6.988
-0.52,-51.45,-6.472
-0.49,-48.116,-6.026
-0.46,-44.781,-5.533
-0.42,-41.447,-5.029
-0.39,-37.973,-4.445
-0.36,-34.428,-3.78
-0.33,-30.849,-3.368
-0.29,-28.603,-4.193
-0.26,-27.971,-5.373
-0.23,-26.181,-3.448
-0.2,-21.97,-0.653
-0.16,-16.46,0.103
-0.13,-11.125,0.195
-0.1,-5.089,0.768
-0.07,0.14,1.26
-0.03,0.877,2.474
0.0,3.369,3.345
0.03,5.58,3.402
0.07,7.37,4.582
0.1,11.301,5.854
0.13,16.495,5.9
0.16,21.864,5.361
0.2,26.497,4.926
0.23,30.779,4.697
0.26,34.639,4.777
0.29,38.008,4.834
0.33,40.535,4.72
0.36,42.079,4.685
0.39,43.272,5.304
0.42,44.922,6.404
0.46,47.484,7.79
0.49,50.677,9.13
0.52,54.573,10.184
0.55,58.714,10.848
0.59,62.961,11.284
0.62,67.102,11.467
0.65,70.927,11.513
0.68,74.016,11.627
0.72,77.034,11.902
0.75,79.947,12.269
0.78,82.544,12.819
0.81,85.281,13.518
0.85,88.37,14.342
0.88,91.493,15.075
0.91,94.687,15.58
0.94,97.951,15.866
0.98,100.407,15.602
1.01,102.022,15.156
1.04,103.145,14.869
1.07,104.268,15.328
1.11,105.917,16.45
1.14,108.199,17.275
1.17,110.55,17.848
1.21,113.252,18.581
1.24,116.656,19.417
1.27,120.833,20.345
1.3,125.43,21.158
1.34,130.098,21.536
1.37,134.38,21.662
1.4,138.31,21.731
1.43,141.995,21.857
1.47,145.013,22.189
1.5,147.681,22.602
1.53,150.383,22.991
1.56,152.875,23.507
1.6,155.507,24.194
1.63,158.385,24.859
1.66,161.368,25.385
1.69,164.281,25.867
1.73,167.334,26.256
1.76,170.247,26.543
1.79,173.125,26.932
1.82,176.143,27.413
1.86,179.231,27.814
1.89,182.039,28.123
1.92,184.636,28.375
1.95,187.057,28.559
1.99,189.163,28.822
2.02,191.409,29.109
2.05,193.515,29.544
2.08,195.551,30.025
2.12,197.726,30.46
2.15,199.937,30.758
2.18,201.938,30.987
2.21,203.903,31.113
2.25,205.763,31.297
2.28,207.588,31.594
2.31,209.448,31.892
2.34,211.273,32.133
2.38,212.888,32.419
2.41,214.713,32.774
2.44,216.573,33.095
2.48,218.222,33.21
2.51,219.801,33.359
2.54,221.556,33.622
2.57,223.276,34.046
2.61,225.171,34.493
2.64,227.277,34.882
2.67,229.382,35.169
2.7,231.488,35.409
2.74,233.348,35.432
2.77,235.173,35.604
2.8,236.928,35.776
2.83,238.577,35.993
2.87,240.297,36.406
2.9,242.157,36.875
2.93,244.157,37.231
2.96,245.947,37.448
3.0,247.737,37.586
3.03,249.527,37.643
3.06,251.071,37.838
3.09,252.756,38.09
3.13,254.3,38.25
3.16,255.598,38.33
3.19,256.651,38.491
3.22,257.774,38.605
3.26,258.687,38.64
3.29,259.494,38.674
3.32,260.161,38.869
3.35,261.073,39.212
3.39,262.161,39.625
3.42,263.425,39.923
3.45,264.723,40.037
3.48,266.057,40.14
3.52,267.25,40.198
3.55,268.513,40.335
3.58,269.566,40.484
3.62,270.724,40.61
3.65,271.848,40.793
3.68,273.076,41.057
3.71,274.164,41.16
3.75,275.182,41.148
3.78,275.954,41.068
3.81,276.48,41.057
3.84,276.831,40.965
3.88,277.042,41.022
3.91,277.428,41.309
3.94,277.884,41.572
3.97,278.375,41.607
4.01,278.761,41.618
4.04,279.288,41.698
4.07,279.639,41.744
4.1,280.025,41.652
4.14,280.235,41.652
4.17,280.656,41.87
4.2,281.148,41.985
4.23,281.569,41.985
4.27,281.85,41.927
4.3,281.885,41.813
4.33,281.85,41.664
4.36,281.639,41.515
4.4,281.358,41.492
4.43,281.078,41.607
4.46,280.867,41.744
4.49,280.797,41.71
4.53,280.516,41.481
4.56,279.814,41.148
4.59,278.831,40.793
4.62,277.744,40.484
4.66,276.445,40.369
4.69,275.322,40.427
4.72,274.234,40.369
4.76,273.006,40.243
4.79,271.848,40.049
4.82,270.549,39.671
4.85,268.935,39.327
4.89,267.39,39.086
4.92,265.881,38.972
4.95,264.513,38.972
4.98,263.249,38.869
5.02,261.951,38.743
5.05,260.863,38.548
5.08,259.459,38.17
5.11,257.985,37.757
5.15,256.511,37.517
5.18,255.177,37.402
5.21,253.738,37.265
5.24,252.299,37.001
5.28,250.861,36.807
5.31,249.457,36.681
5.34,248.053,36.406
5.37,246.579,36.074
5.41,244.894,35.913
5.44,243.456,35.707
5.47,241.876,35.432
5.5,240.086,35.191
5.54,238.507,34.951
5.57,236.717,34.676
5.6,234.962,34.286
5.63,232.751,33.668
5.67,230.435,33.485
5.7,228.505,33.381
5.73,226.54,33.049
5.76,224.258,32.717
5.8,222.083,32.499
5.83,220.187,32.27
5.86,218.117,31.766
5.89,215.871,31.503
5.93,214.116,31.48
5.96,212.466,31.274
5.99,210.641,30.999
6.03,209.027,30.735
6.06,207.483,30.46
6.09,205.658,30.059
6.12,203.763,29.532
6.16,201.622,29.005
6.19,199.236,28.662
6.22,196.884,28.444
6.25,194.673,28.238
6.29,192.252,28.055
6.32,190.356,27.86
6.35,188.461,27.539
6.38,186.32,27.115
6.42,184.18,26.691
6.45,182.074,26.187
6.48,179.547,25.752
6.51,177.231,25.443
6.55,174.915,25.122
6.58,172.388,24.744
6.61,169.685,24.217
6.64,166.948,23.77
6.68,163.895,23.175
6.71,160.841,22.728
6.74,157.893,22.327
6.77,154.735,22.121
6.81,152.032,21.983
6.84,149.576,21.571
6.87,146.873,21.113
6.9,144.136,20.746
6.94,141.714,20.311
6.97,139.012,19.852
7.0,136.205,19.348
7.03,133.467,18.73
7.07,130.414,18.203
7.1,127.325,17.905
7.13,124.693,17.596
7.17,121.675,17.149
7.2,118.481,16.714
7.23,115.779,16.233
7.26,112.971,15.74
7.3,109.918,15.408
7.33,107.111,14.972
7.36,104.163,14.319
7.39,100.723,13.655
7.43,97.319,12.956
7.46,93.529,12.189
7.49,89.423,11.582
7.52,85.703,11.1
7.56,81.912,10.665
7.59,77.982,10.356
7.62,74.577,9.989
7.65,71.138,9.462
7.69,67.453,9.027
7.72,64.33,8.615
7.75,61.311,8.065
7.78,57.942,7.526
7.82,54.819,7.045
7.85,51.801,6.461
7.88,48.361,5.934
7.91,45.062,5.338
7.95,41.553,4.651
7.98,37.762,4.044
8.01,34.218,3.815
8.04,32.007,4.422
8.08,31.305,5.831
8.11,30.042,4.468
8.14,25.865,1.157
8.17,20.18,-0.218
8.21,14.214,-0.195
8.24,8.669,-0.596
8.27,2.0,-1.077
8.3,-0.421,-1.581
8.34,-1.228,-2.704
8.37,-3.86,-2.99
8.4,-5.299,-3.482
8.44,-7.44,-4.846
8.47,-11.441,-5.739
8.5,-16.846,-5.934
8.53,-22.531,-5.842
8.57,-28.076,-5.556
8.6,-32.954,-5.132
8.63,-36.78,-4.892
8.66,-39.868,-4.8
8.7,-42.149,-4.617
8.73,-43.167,-4.708
8.76,-44.115,-5.441
8.79,-45.975,-6.701
8.83,-48.361,-8.168
8.86,-51.625,-9.554
8.89,-55.696,-10.505
8.92,-59.943,-11.181
8.96,-64.54,-11.57
8.99,-68.927,-11.673
9.02,-72.437,-11.685
9.05,-75.735,-11.799
9.09,-79.034,-11.994
9.12,-81.456,-12.406
9.15,-83.737,-13.059
9.18,-86.58,-13.792
9.22,-89.563,-14.549
9.25,-92.441,-15.35
9.28,-96.056,-15.98
9.31,-99.565,-16.45
9.35,-102.969,-16.908
9.38,-106.725,-17.286
9.41,-110.199,-17.71
9.44,-113.463,-18.146
9.48,-116.937,-18.443
9.51,-119.85,-18.661
9.54,-122.412,-19.28
9.58,-125.5,-19.864
9.61,-128.589,-20.448
9.64,-131.607,-21.101
9.67,-135.046,-21.64
9.71,-138.451,-22.075
9.74,-141.258,-22.361
9.77,-144.417,-22.602
9.8,-147.26,-22.854
9.84,-149.646,-23.278
9.87,-152.524,-23.747
9.9,-155.367,-24.194
9.93,-157.928,-24.71
9.97,-160.736,-25.214
10.0,-163.544,-25.512
10.03,-166.0,-25.809
10.06,-168.527,-26.199
10.1,-171.3,-26.485
10.13,-173.546,-26.909
10.16,-176.353,-27.482
10.19,-179.266,-27.917
10.23,-181.898,-28.295
10.26,-184.496,-28.673
10.29,-187.198,-28.902
10.32,-189.374,-29.028
10.36,-191.374,-29.292
10.39,-193.761,-29.635
10.42,-195.831,-30.082
10.45,-197.972,-30.495
10.49,-200.183,-30.667
10.52,-202.008,-30.827
10.55,-203.763,-31.056
10.58,-205.588,-31.159
10.62,-207.132,-31.342
10.65,-208.676,-31.835
10.68,-210.747,-32.362
10.72,-212.817,-32.843
10.75,-214.818,-33.187
10.78,-217.029,-33.301
10.81,-218.854,-33.393
10.85,-220.573,-33.611
10.88,-222.539,-33.84
10.91,-224.399,-34.103
10.94,-225.978,-34.401
10.98,-227.873,-34.813
11.01,-229.733,-35.1
11.04,-231.383,-35.272
11.07,-232.997,-35.329
11.11,-234.752,-35.535
11.14,-236.296,-35.925
11.17,-237.946,-36.096
11.2,-239.455,-36.234
11.24,-240.964,-36.509
11.27,-242.754,-36.944
11.3,-244.614,-37.242
11.33,-246.123,-37.357
11.37,-247.737,-37.46
11.4,-249.211,-37.54
11.43,-250.545,-37.757
11.46,-251.949,-38.067
11.5,-253.458,-38.319
11.53,-254.826,-38.571
11.56,-256.3,-38.766
11.59,-257.739,-38.811
11.63,-258.757,-38.834
11.66,-259.74,-38.949
11.69,-260.898,-39.155
11.72,-262.056,-39.476
11.76,-263.214,-39.842
11.79,-264.442,-40.037
11.82,-265.671,-40.186
11.85,-267.039,-40.312
11.89,-268.303,-40.427
11.92,-269.461,-40.507
11.95,-270.584,-40.656
11.99,-271.918,-40.828
12.02,-273.041,-40.988
12.05,-274.094,-41.137
12.08,-274.971,-41.068
12.12,-275.603,-41.057
12.15,-276.094,-41.16
12.18,-276.585,-41.114
12.21,-276.936,-41.137
12.25,-277.112,-41.343
12.28,-277.603,-41.435
12.31,-278.13,-41.79
12.34,-278.902,-41.859
12.38,-279.604,-42.019
12.41,-280.305,-41.927
12.44,-280.551,-41.675
12.47,-280.867,-41.71
12.51,-281.218,-41.836
12.54,-281.499,-41.939
12.57,-281.744,-41.87
12.6,-281.815,-41.801
12.64,-281.709,-41.721
12.67,-281.464,-41.549
12.7,-280.972,-41.32
12.73,-280.376,-41.332
12.77,-279.955,-41.503
12.8,-279.639,-41.595
12.83,-279.393,-41.584
12.86,-278.972,-41.423
12.9,-278.34,-41.16
12.93,-277.638,-40.816
12.96,-276.55,-40.495
12.99,-275.357,-40.346
13.03,-274.339,-40.358
13.06,-273.216,-40.369
13.09,-272.304,-40.255
13.13,-271.286,-40.003
13.16,-269.847,-39.693
13.19,-268.408,-39.373
13.22,-267.039,-39.098
13.26,-265.53,-38.972
13.29,-264.127,-38.914
13.32,-262.933,-38.823
13.35,-261.705,-38.766
13.39,-260.652,-38.651
13.42,-259.389,-38.273
13.45,-257.95,-37.849
13.48,-256.335,-37.551
13.52,-254.791,-37.322
13.55,-253.212,-37.082
13.58,-251.633,-36.91
13.61,-250.053,-36.784
13.65,-248.579,-36.578
13.68,-246.965,-36.28
13.71,-245.351,-36.039
13.74,-243.806,-35.787
13.78,-242.017,-35.604
13.81,-240.508,-35.363
13.84,-238.893,-35.043
13.87,-237.138,-34.905
13.91,-235.524,-34.664
13.94,-233.804,-34.183
13.97,-231.769,-33.771
14.0,-229.803,-33.576
14.04,-227.979,-33.416
14.07,-226.154,-33.049
14.1,-224.223,-32.866
14.13,-222.539,-32.82
14.17,-220.819,-32.442
14.2,-218.748,-31.824
14.23,-216.537,-31.434
14.27,-214.467,-31.262
14.3,-212.572,-31.171
14.33,-210.782,-30.976
14.36,-208.887,-30.689
14.4,-207.027,-30.449
14.43,-205.272,-30.14
14.46,-203.271,-29.613
14.49,-200.99,-29.063
14.53,-198.604,-28.65
14.56,-196.393,-28.41
14.59,-194.147,-28.261
14.62,-191.971,-28.066
14.66,-189.97,-27.78
14.69,-187.9,-27.402
14.72,-185.689,-26.943
14.75,-183.372,-26.485
14.79,-180.916,-25.981
14.82,-178.354,-25.615
14.85,-176.073,-25.385
14.88,-173.651,-25.088
14.92,-171.019,-24.675
14.95,-168.492,-24.263
14.98,-165.93,-23.85
15.01,-163.298,-23.392
15.05,-160.596,-22.923
15.08,-157.823,-22.602
15.11,-155.261,-22.441
15.14,-153.015,-22.201
15.18,-150.594,-21.754
15.21,-147.891,-21.101
15.24,-144.978,-20.448
15.27,-141.995,-19.933
15.31,-138.837,-19.52
15.34,-136.064,-19.28
15.37,-133.116,-18.787
15.4,-129.958,-18.398
15.44,-127.08,-18.031
15.47,-124.132,-17.527
15.5,-121.114,-17.08
15.54,-118.095,-16.645
15.57,-115.077,-16.095
15.6,-111.884,-15.488
15.63,-108.514,-15.053
15.67,-105.356,-14.56
15.7,-102.057,-13.953
15.73,-98.547,-13.369
15.76,-95.073,-12.739
15.8,-91.318,-12.143
15.83,-87.563,-11.673
15.86,-84.088,-11.169
15.89,-80.298,-10.654
15.93,-76.683,-10.195
15.96,-73.314,-9.772
15.99,-69.875,-9.256
16.02,-66.295,-8.741
16.06,-63.066,-8.259
16.09,-59.837,-7.801
16.12,-56.538,-7.377
16.15,-53.52,-6.954
16.19,-50.502,-6.392
16.22,-47.133,-5.945
16.25,-44.115,-5.453
16.28,-40.886,-4.869
16.32,-37.482,-4.365
16.35,-34.393,-4.113
16.38,-32.358,-4.594
16.41,-31.972,-6.152
16.45,-31.972,-5.499
16.48,-28.708,-1.947
16.51,-23.409,-0.034
16.54,-17.442,0.172
16.58,-11.687,0.768
16.61,-4.036,1.673
16.64,0.597,2.119
16.68,1.72,3.46
16.71,5.194,4.09
16.74,7.124,4.445
16.77,10.318,5.636
16.81,15.196,6.301
16.84,20.741,5.98
16.87,25.97,5.487
16.9,30.954,5.396
16.94,35.341,5.327
16.97,38.85,4.937
17.0,40.816,4.261
17.03,41.623,3.906
17.07,41.798,4.582
17.1,42.957,5.991
17.13,45.132,7.446
17.16,47.975,8.821
17.2,51.73,10.081
17.23,56.117,10.997
17.26,60.82,11.444
17.29,65.453,11.559
17.33,69.629,11.513
17.36,72.928,11.547
17.39,76.016,11.685
17.42,78.789,11.925
17.46,81.035,12.395
17.49,83.456,13.185
17.52,86.615,14.01
17.55,89.563,14.869
17.59,92.862,15.717
17.62,96.547,16.244
17.65,99.986,16.553
17.68,103.285,16.748
17.72,106.584,16.908
17.75,109.216,17.16
17.78,111.848,17.63
17.81,114.621,18.054
17.85,117.218,18.524
17.88,119.92,19.165
17.91,123.149,19.933
17.95,126.413,20.54
17.98,129.852,21.353
18.01,133.853,21.995
18.04,137.714,22.453
18.08,141.328,22.785
18.11,145.189,22.98
18.14,148.383,23.163
18.17,151.05,23.507
18.21,153.857,23.828
18.24,156.419,24.183
18.27,158.701,24.733
18.3,161.403,25.34
18.34,164.14,25.798
18.37,166.597,26.245
18.4,169.299,26.623
18.43,172.002,26.932
18.47,174.529,27.287
18.5,177.266,27.711
18.53,179.933,28.043
18.56,182.249,28.352
18.6,184.601,28.65
18.63,186.987,28.788
18.66,188.847,29.051
18.69,190.848,29.475
18.73,193.129,29.933
18.76,195.164,30.334
18.79,197.305,30.655
18.82,199.586,30.93
18.86,201.482,31.136
18.89,203.342,31.262
18.92,205.167,31.377
18.95,206.781,31.697
18.99,208.571,32.19
19.02,210.641,32.522
19.05,212.466,32.786
19.09,214.186,33.061
19.12,216.116,33.267
19.15,217.731,33.37
19.18,219.345,33.588
19.22,221.17,33.886
19.25,222.89,34.241
19.28,224.609,34.664
19.31,226.715,34.962
19.35,228.68,35.26
19.38,230.505,35.547
19.41,232.436,35.604
19.44,233.945,35.673
19.48,235.489,35.936
19.51,237.244,36.211
19.54,238.753,36.463
19.57,240.297,36.795
19.61,242.157,37.196
19.64,243.912,37.483
19.67,245.526,37.609
19.7,247.141,37.746
19.74,248.79,37.998
19.77,250.369,38.273
19.8,252.019,38.456
19.83,253.493,38.605
19.87,254.861,38.823
19.9,256.265,39.041
19.93,257.669,39.109
19.96,258.722,39.247
20.0,259.915,39.43
20.03,261.214,39.59
20.06,262.372,39.911
20.09,263.741,40.14
20.13,265.004,40.232
20.16,266.232,40.415
20.19,267.461,40.564
20.23,268.724,40.69
20.26,269.742,40.862
20.29,270.9,41.034
20.32,271.988,41.206
20.36,273.111,41.423
20.39,274.164,41.584
20.42,275.287,41.503
20.45,275.778,41.469
20.49,276.445,41.503
20.52,276.971,41.481
20.55,277.357,41.526
20.58,277.673,41.824
20.62,278.41,42.088
20.65,278.902,42.088
20.68,279.358,42.111
20.71,279.674,41.927
20.75,279.99,42.076
20.78,280.446,42.237
20.81,280.832,42.282
20.84,281.323,42.5
20.88,281.955,42.706
20.91,282.622,42.683
20.94,282.973,42.512
20.97,283.148,42.34
21.01,283.148,42.145
21.04,282.832,41.916
21.07,282.306,41.836
21.1,281.815,41.881
21.14,281.323,41.916
21.17,280.692,41.916
21.2,280.06,41.744
21.23,279.218,41.458
21.27,278.165,41.217
21.3,277.147,40.988
21.33,275.954,40.839
21.36,274.866,40.885
21.4,273.848,40.896
21.43,272.865,40.713
21.46,271.707,40.427
21.5,270.479,40.083
21.53,268.935,39.716
21.56,267.32,39.361
21.59,265.636,39.144
21.63,264.056,39.144
21.66,262.547,39.109
21.69,261.249,38.983
21.72,259.95,38.8
21.76,258.582,38.514
21.79,257.037,38.193
21.82,255.598,37.906
21.85,254.265,37.723
21.89,252.721,37.563
21.92,251.317,37.368
21.95,249.948,37.093
21.98,248.334,36.864
22.02,246.684,36.612
22.05,245.175,36.245
22.08,243.456,35.844
22.11,241.525,35.535
22.15,239.56,35.237
22.18,237.63,35.111
22.21,235.91,34.974
22.24,234.05,34.687
22.28,232.05,34.344
22.31,230.225,34.092
22.34,228.645,33.817
22.37,226.61,33.496
22.41,224.68,33.29
22.44,223.03,33.084
22.47,221.346,32.797
22.5,219.521,32.557
22.54,217.625,32.041
22.57,215.52,31.778
22.6,213.905,31.778
22.64,212.396,31.606
22.67,210.782,31.411
22.7,209.203,31.262
22.73,207.869,31.01
22.77,206.395,30.449
22.8,204.324,29.807
22.83,201.973,29.269
22.86,199.481,28.868
22.9,196.954,28.685
22.93,194.778,28.559
22.96,192.497,28.375
22.99,190.286,28.204
23.03,188.286,27.848
23.06,186.145,27.367
23.09,183.934,26.909
23.12,181.512,26.405
23.16,179.021,25.89
23.19,176.389,25.546
23.22,173.827,25.237
23.25,171.335,24.836
23.29,168.492,24.423
23.32,165.895,24.08
23.35,163.263,23.656
23.38,160.42,23.14
23.42,157.613,22.797
23.45,154.84,22.361
23.48,151.962,21.892
23.51,149.471,21.651
23.55,146.873,21.181
23.58,144.136,20.952
23.61,141.364,20.402
23.64,138.661,19.864
23.68,135.889,19.532
23.71,133.046,19.188
23.74,130.449,18.879
23.78,127.817,18.455
23.81,125.185,17.894
23.84,122.272,17.264
23.87,119.008,16.759
23.91,115.884,16.278
23.94,112.901,15.774
23.97,109.743,15.396
24.0,106.619,15.007
24.04,103.531,14.445
24.07,100.197,13.85
24.1,96.617,13.231
24.13,93.108,12.532
24.17,89.247,11.868
24.2,85.492,11.307
24.23,81.807,10.906
24.26,78.192,10.562
24.3,74.683,10.161
24.33,71.278,9.6
24.36,67.804,9.038
24.39,64.4,8.592
24.43,61.206,8.042
24.46,57.872,7.423
24.49,54.433,6.954
24.52,51.309,6.472
24.56,48.01,5.991
24.59,44.641,5.522
24.62,41.447,5.029
24.65,38.008,4.468
24.69,34.709,4.261
24.72,32.814,4.766
24.75,32.568,6.14
24.78,32.042,5.43
24.82,28.638,1.959
24.85,23.058,-0.309
24.88,16.53,-0.722
24.91,10.002,-1.272
24.95,2.036,-1.821
24.98,-0.772,-2.669
25.01,-2.597,-3.941
25.05,-5.51,-3.849
25.08,-6.738,-4.342
25.11,-9.932,-5.476
25.14,-14.284,-5.533
25.18,-19.443,-5.476
25.21,-24.883,-5.785
25.24,-30.428,-5.682
25.27,-35.06,-5.166
25.31,-38.324,-4.525
25.34,-39.973,-4.044
25.37,-40.886,-3.929
25.4,-41.272,-4.456
25.44,-42.184,-5.716
25.47,-44.325,-7.309
25.5,-47.449,-8.775
25.53,-51.239,-9.966
25.57,-55.661,-10.848
25.6,-60.364,-11.375
25.63,-64.996,-11.524
25.66,-69.278,-11.433
25.7,-72.752,-11.375
25.73,-75.42,-11.627
25.76,-78.403,-12.028
25.79,-81.175,-12.418
25.83,-83.492,-13.094
25.86,-86.299,-13.964
25.89,-89.528,-14.778
25.92,-92.757,-15.465
25.96,-96.371,-15.992
25.99,-99.986,-16.393
26.02,-103.32,-16.828
26.05,-106.9,-17.264
26.09,-110.374,-17.676
26.12,-113.498,-18.123
26.15,-116.797,-18.489
26.19,-119.955,-18.776
26.22,-122.482,-19.211
26.25,-125.325,-19.841
26.28,-128.448,-20.46
26.32,-131.642,-21.216
26.35,-135.152,-21.857
26.38,-138.802,-22.304
26.41,-141.925,-22.464
26.45,-144.943,-22.659
26.48,-147.891,-22.923
26.51,-150.383,-23.209
26.54,-152.875,-23.667
26.58,-155.542,-24.171
26.61,-158.139,-24.664
26.64,-160.771,-25.202
26.67,-163.509,-25.626
26.71,-166.035,-25.947
26.74,-168.562,-26.256
26.77,-171.23,-26.52
26.8,-173.721,-26.898
26.84,-176.283,-27.516
26.87,-179.161,-28.009
26.9,-181.898,-28.318
26.93,-184.32,-28.662
26.97,-186.987,-28.937
27.0,-189.374,-29.063
27.03,-191.269,-29.235
27.06,-193.34,-29.59
27.1,-195.375,-30.082
27.13,-197.516,-30.529
27.16,-199.797,-30.804
27.19,-201.833,-30.941
27.23,-203.587,-31.079
27.26,-205.377,-31.285
27.29,-207.097,-31.56
27.32,-208.711,-31.95
27.36,-210.571,-32.339
27.39,-212.677,-32.717
27.42,-214.677,-33.072
27.46,-216.678,-33.347
27.49,-218.538,-33.439
27.52,-220.258,-33.553
27.55,-222.047,-33.817
27.59,-223.872,-34.149
27.62,-225.522,-34.344
27.65,-227.242,-34.733
27.68,-229.207,-35.146
27.72,-231.067,-35.455
27.75,-232.716,-35.489
27.78,-234.471,-35.524
27.81,-235.945,-35.787
27.85,-237.595,-36.154
27.88,-239.384,-36.497
27.91,-241.139,-36.841
27.94,-242.999,-37.219
27.98,-244.965,-37.391
28.01,-246.544,-37.414
28.04,-247.948,-37.483
28.07,-249.387,-37.631
28.11,-250.755,-37.872
28.14,-252.054,-38.136
28.17,-253.563,-38.353
28.2,-255.037,-38.594
28.24,-256.371,-38.8
28.27,-257.599,-38.914
28.3,-258.827,-39.018
28.33,-259.88,-39.155
28.37,-261.038,-39.338
28.4,-262.267,-39.625
28.43,-263.6,-39.888
28.46,-264.828,-40.083
28.5,-266.057,-40.22
28.53,-267.285,-40.392
28.56,-268.654,-40.507
28.6,-269.707,-40.564
28.63,-270.76,-40.736
28.66,-271.883,-41.034
28.69,-273.146,-41.217
28.73,-274.199,-41.297
28.76,-275.076,-41.217
28.79,-275.708,-41.148
28.82,-276.199,-41.114
28.86,-276.55,-41.091
28.89,-276.901,-41.217
28.92,-277.393,-41.549
28.95,-277.919,-41.755
28.99,-278.516,-41.755
29.02,-278.937,-41.813
29.05,-279.744,-42.122
29.08,-280.27,-42.042
29.12,-280.656,-41.767
29.15,-280.937,-41.859
29.18,-281.429,-42.099
29.21,-281.85,-42.111
29.25,-282.025,-42.065
29.28,-282.236,-41.973
29.31,-282.201,-41.859
29.34,-281.92,-41.641
29.38,-281.288,-41.458
29.41,-280.797,-41.469
29.44,-280.305,-41.572
29.47,-279.884,-41.698
29.51,-279.533,-41.687
29.54,-278.972,-41.481
29.57,-278.235,-41.171
29.6,-277.357,-40.85
29.64,-276.34,-40.587
29.67,-275.252,-40.461
29.7,-274.234,-40.472
29.74,-273.322,-40.484
29.77,-272.374,-40.404
29.8,-271.321,-40.163
29.83,-270.093,-39.785
29.87,-268.654,-39.396
29.9,-267.145,-39.155
29.93,-265.671,-39.063
29.96,-264.267,-38.995
30.0,-263.004,-38.949
30.03,-261.81,-38.88
30.06,-260.617,-38.708
30.09,-259.354,-38.376
30.13,-257.95,-38.01
30.16,-256.441,-37.666
30.19,-254.932,-37.357
30.22,-253.247,-37.105
30.26,-251.633,-36.967
30.29,-250.018,-36.875
30.32,-248.474,-36.658
30.35,-246.754,-36.245
30.39,-244.93,-35.925
30.42,-243.245,-35.764
30.45,-241.631,-35.627
30.48,-239.946,-35.432
30.52,-238.367,-35.134
30.55,-236.717,-34.882
30.58,-235.103,-34.63
30.61,-233.313,-34.229
30.65,-231.488,-33.886
30.68,-229.523,-33.748
30.71,-227.733,-33.622
30.74,-226.154,-33.313
30.78,-224.223,-33.003
30.81,-222.433,-32.774
30.84,-220.644,-32.373
30.87,-218.854,-32.03
30.91,-216.537,-31.537
30.94,-214.291,-31.171
30.97,-212.396,-31.125
31.01,-210.571,-31.09
31.04,-208.887,-30.896
31.07,-207.132,-30.563
31.1,-205.167,-30.197
31.14,-203.236,-29.716
31.17,-201.201,-29.235
31.2,-198.885,-28.799
31.23,-196.498,-28.456
31.27,-194.182,-28.249
31.3,-191.971,-28.078
31.33,-189.865,-27.871
31.36,-187.935,-27.551
31.4,-185.724,-27.127
31.43,-183.443,-26.68
31.46,-181.161,-26.073
31.49,-178.529,-25.615
31.53,-176.038,-25.397
31.56,-173.721,-25.145
31.59,-171.194,-24.755
31.62,-168.597,-24.297
31.66,-166.0,-23.805
31.69,-163.123,-23.392
31.72,-160.35,-22.945
31.75,-157.648,-22.522
31.79,-154.945,-22.315
31.82,-152.348,-22.075
31.85,-149.786,-21.651
31.88,-147.119,-21.147
31.92,-144.206,-20.586
31.95,-141.364,-20.116
31.98,-138.451,-19.658
32.01,-135.608,-19.452
32.05,-132.941,-18.97
32.08,-129.958,-18.466
32.11,-127.01,-18.02
32.15,-124.097,-17.538
32.18,-121.219,-17.08
32.21,-118.095,-16.691
32.24,-115.253,-16.198
32.28,-112.199,-15.591
32.31,-108.936,-15.156
32.34,-105.847,-14.686
32.37,-102.654,-14.113
32.41,-99.179,-13.575
32.44,-95.705,-12.991
32.47,-92.16,-12.28
32.5,-88.229,-11.73
32.54,-84.579,-11.295
32.57,-81.07,-10.825
32.6,-77.42,-10.425
32.63,-74.086,-9.978
32.67,-70.787,-9.336
32.7,-67.102,-8.752
32.73,-63.768,-8.294
32.76,-60.574,-7.824
32.8,-57.1,-7.4
32.83,-53.801,-6.999
32.86,-50.748,-6.449
32.89,-47.449,-5.968
32.93,-44.185,-5.499
32.96,-41.132,-4.857
32.99,-37.552,-4.193
33.02,-34.113,-3.895
33.06,-32.007,-4.433
33.09,-31.691,-6.014
33.12,-30.743,-4.834
33.15,-26.848,-1.191
33.19,-21.057,0.47
33.22,-14.705,0.515
33.25,-8.458,1.042
33.29,-1.193,1.569
33.32,0.772,2.394
33.35,2.597,3.528
33.38,5.264,3.517
33.42,6.598,4.204
33.45,10.037,5.625
33.48,14.986,6.014
33.51,20.461,5.453
33.55,25.233,5.086
33.58,29.936,5.086
33.61,34.288,5.052
33.64,37.798,4.823
33.68,40.009,4.376
33.71,41.202,4.032
33.74,41.693,4.491
33.77,42.711,5.762
33.81,44.957,7.217
33.84,47.835,8.557
33.87,51.134,9.84
33.9,55.31,10.791
33.94,59.943,11.341
33.97,64.786,11.547
34.0,69.313,11.467
34.03,72.893,11.398
34.07,75.841,11.547
34.1,78.859,11.834
34.13,81.456,12.189
34.16,83.562,12.887
34.2,86.475,13.758
34.23,89.703,14.526
34.26,92.827,15.316
34.29,96.477,15.98
34.33,100.232,16.404
34.36,103.671,16.782
34.39,107.321,16.954
34.42,110.445,17.069
34.46,113.077,17.481
34.49,115.849,17.939
34.52,118.797,18.329
34.56,121.324,19.016
34.59,124.483,19.83
34.62,127.992,20.528
34.65,131.361,21.147
34.69,135.292,21.857
34.72,139.503,22.35
34.75,142.802,22.338
34.78,146.066,22.464
34.82,149.155,22.441
34.85,151.401,22.808
34.88,153.682,23.335
34.91,156.384,23.828
34.95,158.701,24.354
34.98,161.017,24.893
35.01,163.719,25.317
35.04,166.246,25.649
35.08,168.738,26.027
35.11,171.616,26.394
35.14,174.107,26.737
35.17,176.669,27.207
35.21,179.582,27.539
35.24,181.969,27.848
35.27,184.496,28.272
35.3,187.233,28.513
35.34,189.479,28.685
35.37,191.444,29.005
35.4,193.831,29.315
35.43,195.831,29.613
35.47,197.762,30.025
35.5,200.008,30.334
35.53,201.903,30.495
35.56,203.517,30.712
35.6,205.412,30.941
35.63,207.097,31.171
35.66,208.781,31.594
35.7,210.887,32.03
35.73,212.958,32.316
35.76,214.818,32.648
35.79,216.924,32.866
35.83,218.819,32.866
35.86,220.293,33.026
35.89,222.047,33.347
35.92,223.907,33.645
35.96,225.522,34.0
35.99,227.347,34.355
36.02,229.347,34.63
36.05,231.137,34.928
36.09,233.032,35.054
36.12,234.682,35.077
36.15,236.05,35.352
36.18,237.665,35.764
36.22,239.525,36.074
36.25,241.174,36.406
36.28,243.14,36.761
36.31,245.28,36.956
36.35,246.895,37.013
36.38,248.439,37.116
36.41,250.089,37.231
36.44,251.317,37.391
36.48,252.721,37.654
36.51,254.3,37.918
36.54,255.704,38.239
36.57,257.037,38.456
36.61,258.441,38.479
36.64,259.529,38.548
36.67,260.652,38.685
36.7,261.88,38.846
36.74,263.004,39.063
36.77,264.091,39.361
36.8,265.39,39.602
36.84,266.618,39.751
36.87,267.706,39.911
36.9,269.005,39.98
36.93,270.058,40.072
36.97,271.146,40.255
37.0,272.269,40.484
37.03,273.532,40.679
37.06,274.55,40.805
37.1,275.497,40.793
37.13,276.27,40.69
37.16,276.796,40.667
37.19,277.147,40.598
37.23,277.498,40.667
37.26,277.884,40.942
37.29,278.445,41.229
37.32,278.972,41.229
37.36,279.358,41.274
37.39,279.744,41.217
37.42,280.2,41.274
37.45,280.446,41.4
37.49,280.797,41.4
37.52,281.253,41.526
37.55,281.744,41.698
37.58,282.201,41.698
37.62,282.411,41.561
37.65,282.552,41.389
37.68,282.376,41.229
37.71,282.06,41.045
37.75,281.569,40.919
37.78,281.183,40.976
37.81,280.762,41.137
37.84,280.446,41.125
37.88,279.814,40.942
37.91,279.147,40.713
37.94,278.34,40.427
37.97,277.252,40.186
38.01,276.199,40.083
38.04,275.287,40.083
38.07,274.094,40.003
38.11,272.971,39.785
38.14,271.883,39.464
38.17,270.444,39.155
38.2,268.794,38.857
38.24,267.25,38.617
38.27,265.671,38.479
38.3,264.127,38.433
38.33,262.863,38.307
38.37,261.494,38.078
38.4,260.126,37.872
38.43,258.687,37.654
38.46,257.248,37.334
38.5,255.774,37.047
38.53,254.265,36.921
38.56,252.931,36.807
38.59,251.562,36.6
38.63,250.124,36.371
38.66,248.72,36.039
38.69,246.93,35.741
38.72,245.351,35.455
38.76,243.631,35.146
38.79,241.736,34.905
38.82,239.806,34.676
38.85,238.191,34.584
38.89,236.542,34.435
38.92,234.787,34.08
38.95,232.857,33.668
38.98,230.962,33.404
39.02,229.207,33.21
39.05,227.452,32.958
39.08,225.627,32.706
39.11,223.837,32.454
39.15,222.188,32.179
39.18,220.503,31.938
39.21,218.433,31.445
39.25,216.467,31.113
39.28,214.642,31.056
39.31,212.923,30.941
39.34,211.168,30.667
39.38,209.378,30.357
39.41,207.518,30.174
39.44,205.939,29.819
39.47,204.008,29.235
39.51,201.587,28.662
39.54,199.236,28.261
39.57,196.814,28.009
39.6,194.357,27.826
39.64,192.287,27.619
39.67,190.146,27.413
39.7,188.005,27.161
39.73,185.97,26.806
39.77,183.899,26.313
39.8,181.477,25.798
39.83,179.091,25.385
39.86,176.634,25.088
39.9,174.248,24.813
39.93,171.791,24.366
39.96,169.089,23.805
39.99,166.176,23.358
40.03,163.474,22.968
40.06,160.666,22.499
40.09,157.753,22.166
40.12,154.735,21.766
40.16,151.822,21.33
40.19,149.049,21.135
40.22,146.382,20.712
40.25,143.961,20.425
40.29,141.188,19.818
40.32,138.38,19.314
40.35,135.643,19.016
40.38,132.835,18.627
40.42,130.063,18.283
40.45,127.466,17.802
40.48,124.553,17.298
40.52,121.535,16.817
40.55,118.446,16.324
40.58,115.393,15.797
40.61,112.34,15.362
40.65,109.322,15.007
40.68,106.268,14.583
40.71,103.04,14.033
40.74,99.741,13.392
40.78,96.231,12.761
40.81,92.616,12.235
40.84,89.142,11.627
40.87,85.422,11.009
40.91,81.596,10.573
40.94,78.017,10.207
40.97,74.612,9.783
41.0,71.138,9.336
41.04,67.839,8.832
41.07,64.47,8.214
41.1,60.89,7.652
41.13,57.381,7.228
41.17,54.222,6.885
41.2,51.099,6.449
41.23,47.94,5.945
41.26,44.746,5.361
41.3,41.342,4.811
41.33,37.903,4.204
41.36,34.569,3.929
41.39,32.568,4.708
41.43,32.112,5.968
41.46,30.533,4.147
41.49,26.041,0.974
41.52,20.285,-0.206
41.56,14.319,-0.344
41.59,8.493,-0.79
41.62,1.72,-1.054
41.66,-0.351,-1.546
41.69,-1.263,-2.749
41.72,-3.966,-3.024
41.75,-5.58,-3.666
41.79,-7.826,-5.178
41.82,-12.178,-5.945
41.85,-17.793,-6.175
41.88,-23.9,-6.266
41.92,-29.901,-5.854
41.95,-34.674,-5.189
41.98,-38.289,-4.788
42.01,-40.886,-4.639
42.05,-42.5,-4.513
42.08,-43.272,-4.536
42.11,-43.869,-5.418
42.14,-45.378,-6.85
42.18,-47.905,-8.282
42.21,-51.239,-9.588
42.24,-55.345,-10.608
42.27,-59.627,-11.204
42.31,-64.154,-11.49
42.34,-68.401,-11.501
42.37,-72.121,-11.421
42.4,-75.034,-11.513
42.44,-77.841,-11.902
42.47,-80.544,-12.429
42.5,-83.246,-13.14
42.53,-86.124,-13.918
42.57,-89.317,-14.675
42.6,-92.581,-15.408
42.63,-96.126,-16.072
42.66,-100.021,-16.519
42.7,-103.566,-16.931
42.73,-107.251,-17.264
42.76,-110.831,-17.596
42.8,-114.024,-17.985
42.83,-117.113,-18.363
42.86,-120.166,-18.707
42.89,-122.939,-19.131
42.93,-125.711,-19.704
42.96,-128.589,-20.322
42.99,-131.747,-21.078
43.02,-135.081,-21.731
43.06,-138.626,-22.121
43.09,-141.714,-22.338
43.12,-144.627,-22.613
43.15,-147.646,-22.945
43.19,-150.348,-23.186
43.22,-152.875,-23.587
43.25,-155.577,-24.045
43.28,-158.279,-24.538
43.32,-160.912,-25.019
43.35,-163.649,-25.466
43.38,-166.316,-25.798
43.41,-168.843,-26.073
43.45,-171.37,-26.371
43.48,-173.827,-26.737
43.51,-176.353,-27.31
43.54,-179.091,-27.848
43.58,-181.758,-28.238
43.61,-184.25,-28.547
43.64,-186.847,-28.742
43.67,-189.163,-28.925
43.71,-191.234,-29.235
43.74,-193.445,-29.544
43.77,-195.586,-29.888
43.8,-197.656,-30.277
43.84,-199.762,-30.621
43.87,-201.762,-30.815
43.9,-203.587,-30.93
43.93,-205.377,-31.056
43.97,-207.062,-31.331
44.0,-208.606,-31.778
44.03,-210.431,-32.213
44.07,-212.431,-32.591
44.1,-214.432,-32.981
44.13,-216.502,-33.267
44.16,-218.503,-33.416
44.2,-220.398,-33.565
44.23,-222.398,-33.782
44.26,-224.329,-34.069
44.29,-226.083,-34.195
44.33,-227.873,-34.516
44.36,-229.803,-34.871
44.39,-231.523,-35.1
44.42,-232.892,-35.146
44.46,-234.331,-35.203
44.49,-235.945,-35.707
44.52,-237.735,-36.222
44.55,-239.7,-36.578
44.59,-241.385,-36.738
44.62,-243.105,-36.91
44.65,-244.894,-37.07
44.68,-246.509,-37.173
44.72,-247.948,-37.208
44.75,-249.281,-37.334
44.78,-250.58,-37.677
44.81,-252.054,-38.032
44.85,-253.598,-38.273
44.88,-255.002,-38.468
44.91,-256.476,-38.651
44.94,-257.845,-38.8
44.98,-259.038,-38.823
45.01,-260.161,-38.869
45.04,-261.214,-39.063
45.07,-262.337,-39.407
45.11,-263.53,-39.682
45.14,-264.758,-39.819
45.17,-265.987,-39.945
45.21,-267.215,-40.175
45.24,-268.443,-40.312
45.27,-269.601,-40.358
45.3,-270.689,-40.45
45.34,-271.707,-40.679
45.37,-272.865,-40.885
45.4,-273.778,-40.965
45.43,-274.62,-40.931
45.47,-275.217,-40.908
45.5,-275.708,-40.931
45.53,-276.234,-40.873
45.56,-276.62,-41.011
45.6,-277.007,-41.217
45.63,-277.428,-41.343
45.66,-278.27,-41.744
45.69,-279.042,-41.847
45.73,-279.849,-42.007
45.76,-280.551,-41.847
45.79,-280.972,-41.595
45.82,-281.358,-41.629
45.86,-281.674,-41.767
45.89,-281.99,-41.824
45.92,-282.201,-41.767
45.95,-282.166,-41.675
45.99,-282.06,-41.561
46.02,-281.604,-41.377
46.05,-281.007,-41.16
46.08,-280.411,-41.114
46.12,-279.919,-41.343
46.15,-279.674,-41.458
46.18,-279.358,-41.366
46.21,-278.902,-41.217
46.25,-278.305,-40.919
46.28,-277.357,-40.564
46.31,-276.234,-40.289
46.35,-275.111,-40.198
46.38,-274.129,-40.266
46.41,-273.076,-40.266
46.44,-272.163,-40.094
46.48,-271.146,-39.877
46.51,-269.917,-39.579
46.54,-268.584,-39.189
46.57,-267.18,-38.834
46.61,-265.565,-38.72
46.64,-264.232,-38.777
46.67,-263.004,-38.754
46.7,-261.775,-38.64
46.74,-260.582,-38.433
46.77,-259.283,-38.067
46.8,-257.88,-37.654
46.83,-256.3,-37.357
46.87,-254.791,-37.173
46.9,-253.177,-37.059
46.93,-251.633,-36.887
46.96,-250.089,-36.658
47.0,-248.439,-36.314
47.03,-246.614,-36.005
47.06,-244.93,-35.707
47.09,-243.175,-35.443
47.13,-241.385,-35.306
47.16,-239.806,-35.214
47.19,-238.121,-34.974
47.22,-236.577,-34.745
47.26,-235.068,-34.424
47.29,-233.173,-34.012
47.32,-231.207,-33.656
47.35,-229.347,-33.45
47.39,-227.663,-33.324
47.42,-225.943,-33.049
47.45,-224.153,-32.774
47.48,-222.328,-32.58
47.52,-220.573,-32.35
47.55,-218.854,-31.95
47.58,-216.994,-31.48
47.62,-214.888,-31.171
47.65,-212.817,-30.919
47.68,-210.571,-30.495
47.71,-208.395,-30.243
47.75,-206.5,-30.197
47.78,-204.64,-29.956
47.81,-202.605,-29.487
47.84,-200.569,-29.086
47.88,-198.499,-28.753
47.91,-196.358,-28.49
47.94,-194.463,-28.272
47.97,-192.532,-27.986
48.01,-190.392,-27.711
48.04,-188.356,-27.356
48.07,-186.145,-26.909
48.1,-183.864,-26.428
48.14,-181.512,-25.867
48.17,-178.915,-25.42
48.2,-176.143,-25.237
48.23,-173.686,-25.065
48.27,-171.265,-24.721
48.3,-168.703,-24.24
48.33,-166.106,-23.702
48.36,-163.333,-23.266
48.4,-160.42,-22.831
48.43,-157.718,-22.441
48.46,-155.121,-22.098
48.49,-152.278,-21.766
48.53,-149.471,-21.296
48.56,-146.698,-20.849
48.59,-143.68,-20.334
48.62,-140.907,-20.104
48.66,-138.486,-19.875
48.69,-135.889,-19.497
48.72,-133.116,-19.039
48.76,-130.554,-18.432
48.79,-127.676,-17.951
48.82,-124.763,-17.481
48.85,-121.815,-16.966
48.89,-118.552,-16.416
48.92,-115.393,-15.912
48.95,-112.305,-15.431
48.98,-109.006,-15.007
49.02,-105.602,-14.629
49.05,-102.373,-14.148
49.08,-99.214,-13.575
49.11,-95.74,-12.956
49.15,-92.23,-12.303
49.18,-88.51,-11.685
49.21,-84.79,-11.158
49.24,-81.21,-10.619
49.28,-77.49,-10.173
49.31,-73.911,-9.817
49.34,-70.682,-9.325
49.37,-67.137,-8.752
49.41,-63.417,-8.282
49.44,-60.294,-7.813
49.47,-57.17,-7.332
49.5,-53.766,-6.965
49.54,-50.713,-6.507
49.57,-47.694,-5.98
49.6,-44.255,-5.418
49.63,-40.921,-4.846
49.67,-37.587,-4.181
49.7,-33.937,-3.769
49.73,-31.27,-4.135
49.76,-30.779,-5.751
49.8,-30.112,-5.075
49.83,-26.251,-1.524
49.86,-20.566,0.378
49.89,-14.354,0.378
49.93,-8.598,0.676
49.96,-1.579,1.237
49.99,0.737,2.039
50.03,2.0,3.253
50.06,4.808,3.311
50.09,6.107,3.941
50.12,9.16,5.59
50.16,14.319,6.335
50.19,20.11,5.842
50.22,25.269,5.189
50.25,29.901,4.937
50.29,34.042,4.88
50.32,37.657,4.708
50.35,39.728,4.365
50.38,40.921,4.055
50.42,41.553,4.468
50.45,42.5,5.751
50.48,44.711,7.274
50.51,47.94,8.615
50.55,51.66,9.772
50.58,55.907,10.642
50.61,60.539,11.158
50.64,65.067,11.387
50.68,69.313,11.398
50.71,73.068,11.249
50.74,75.63,11.398
50.77,78.368,11.788
50.81,81.07,12.269
50.84,83.492,12.991
50.87,86.053,13.896
50.9,89.388,14.675
50.94,92.686,15.316
50.97,96.161,15.912
51.0,100.056,16.347
51.03,103.531,16.748
51.07,106.97,17.08
51.1,110.445,17.298
51.13,113.463,17.642
51.17,116.376,18.146
51.2,119.534,18.569
51.23,122.482,19.096
51.26,125.22,19.738
51.3,128.624,20.391
51.33,131.818,20.883
51.36,135.117,21.64
51.39,139.188,22.441
51.43,143.188,23.071
51.46,147.084,23.633
51.49,151.295,23.988
51.52,155.121,24.263
51.56,158.595,24.652
51.59,162.175,24.836
51.62,164.842,24.755
51.65,166.737,24.973
51.69,168.983,25.271
51.72,170.949,25.5
51.75,172.528,25.993
51.78,174.564,26.703
51.82,176.845,27.333
51.85,179.301,27.94
51.88,182.144,28.49
51.91,185.162,28.788
51.95,187.689,28.994
51.98,190.251,29.051
52.01,192.497,29.051
52.04,194.322,29.28
52.08,196.428,29.681
52.11,198.499,29.945
52.14,200.183,30.288
52.17,202.008,30.667
52.21,203.903,30.884
52.24,205.377,30.987
52.27,206.921,31.228
52.31,208.817,31.549
52.34,210.571,32.007
52.37,212.396,32.454
52.4,214.677,32.706
52.44,216.643,32.877
52.47,218.573,33.152
52.5,220.538,33.233
52.53,222.083,33.347
52.57,223.767,33.702
52.6,225.662,34.046
52.63,227.347,34.309
52.66,228.891,34.63
52.7,230.786,34.917
52.73,232.541,35.123
52.76,234.12,35.18
52.79,235.735,35.329
52.83,237.314,35.707
52.86,239.104,36.211
52.89,241.139,36.543
52.92,243.069,36.749
52.96,244.93,37.047
52.99,246.93,37.253
53.02,248.579,37.173
53.05,249.878,37.276
53.09,251.387,37.494
53.12,252.931,37.838
53.15,254.44,38.239
53.18,256.09,38.502
53.22,257.774,38.651
53.25,259.038,38.697
53.28,260.231,38.536
53.31,261.108,38.456
53.35,261.88,38.823
53.38,263.004,39.247
53.41,264.127,39.441
53.44,265.109,39.693
53.48,266.408,39.968
53.51,267.706,40.049
53.54,268.654,40.072
53.58,269.707,40.163
53.61,270.9,40.266
53.64,271.918,40.541
53.67,273.251,40.908
53.71,274.655,41.022
53.74,275.708,41.091
53.77,276.656,40.965
53.8,277.322,40.862
53.84,277.147,40.369
53.87,273.883,37.391
53.9,267.741,34.103
53.93,261.143,33.782
53.97,256.265,35.615
54.0,253.177,37.322
54.03,251.457,38.365
54.06,251.282,39.693
54.1,252.931,41.183
54.13,256.476,41.721
54.16,260.652,41.423
54.19,264.583,41.526
54.23,269.145,42.065
54.26,273.813,42.019
54.29,277.147,41.045
54.32,278.621,39.923
54.36,278.796,39.556
54.39,278.937,39.499
54.42,278.621,39.785
54.45,278.059,40.541
54.49,278.094,41.16
54.52,278.445,41.412
54.55,278.621,41.458
54.58,278.656,41.24
54.62,278.445,40.839
54.65,277.989,40.45
54.68,277.322,40.198
54.72,276.41,40.083
54.75,275.322,39.98
54.78,274.164,39.923
54.81,273.076,39.831
54.85,271.848,39.579
54.88,270.338,39.201
54.91,268.689,38.926
54.94,267.215,38.811
54.98,265.881,38.8
55.01,264.548,38.72
55.04,263.319,38.605
55.07,262.161,38.296
55.11,260.512,37.895
55.14,258.968,37.62
55.17,257.494,37.425
55.2,255.984,37.288
55.24,254.405,37.07
55.27,252.721,36.807
55.3,251.141,36.704
55.33,249.843,36.555
55.37,248.369,36.131
55.4,246.544,35.73
55.43,245.0,35.547
55.46,243.42,35.409
55.5,241.806,35.146
55.53,239.981,34.825
55.56,238.367,34.596
55.59,236.612,34.424
55.63,234.892,34.115
55.66,232.997,33.645
55.69,230.927,33.473
55.72,229.172,33.427
55.76,227.557,33.129
55.79,225.627,32.809
55.82,223.907,32.557
55.86,222.188,32.282
55.89,220.187,31.778
55.92,217.976,31.297
55.95,215.836,31.022
55.99,213.66,30.815
56.02,211.519,30.586
56.05,209.378,30.311
56.08,207.378,30.105
56.12,205.272,29.83
56.15,203.271,29.338
56.18,201.096,28.914
56.21,198.849,28.742
56.25,196.814,28.536
56.28,194.814,28.181
56.31,192.708,27.837
56.34,190.813,27.574
56.38,188.918,27.253
56.41,186.601,26.726
56.44,184.25,26.176
56.47,181.723,25.741
56.51,179.266,25.5
56.54,176.81,25.225
56.57,174.423,24.962
56.6,171.967,24.618
56.64,169.51,24.16
56.67,166.983,23.724
56.7,164.316,23.335
56.73,161.684,22.842
56.77,158.806,22.338
56.8,155.893,21.995
56.83,153.12,21.708
56.86,150.523,21.33
56.9,147.54,20.918
56.93,144.733,20.46
56.96,141.925,19.933
56.99,138.942,19.44
57.03,135.959,19.062
57.06,133.046,18.615
57.09,130.063,18.191
57.13,127.045,17.825
57.16,124.307,17.481
57.19,121.465,17.046
57.22,118.587,16.576
57.26,115.709,16.026
57.29,112.55,15.557
57.32,109.567,15.213
57.35,106.795,14.801
57.39,103.777,14.216
57.42,100.443,13.655
57.45,97.249,12.991
57.48,93.704,12.257
57.52,89.879,11.65
57.55,86.194,11.146
57.58,82.544,10.677
57.61,78.683,10.31
57.65,75.139,9.921
57.68,71.84,9.439
57.71,68.33,8.935
57.74,64.891,8.408
57.78,61.697,7.881
57.81,58.328,7.435
57.84,54.959,7.022
57.87,51.941,6.472
57.91,48.607,5.957
57.94,45.203,5.453
57.97,41.869,4.88
58.0,38.324,4.227
58.04,34.814,3.987
58.07,33.165,4.949
58.1,33.06,6.301
58.13,31.34,4.124
58.17,26.743,0.779
58.2,21.092,-0.206
58.23,15.302,-0.137
58.27,9.581,-0.745
58.3,2.422,-1.306
58.33,-0.351,-1.753
58.36,-1.299,-2.944
58.4,-4.247,-3.322
58.43,-5.791,-3.769
58.46,-8.072,-5.029
58.49,-12.143,-5.613
58.53,-17.267,-5.67
58.56,-22.672,-5.682
58.59,-28.041,-5.476
58.62,-32.814,-5.155
58.66,-36.745,-4.926
58.69,-39.798,-4.766
58.72,-41.763,-4.525
58.75,-42.816,-4.639
58.79,-43.764,-5.384
58.82,-45.413,-6.61
58.85,-48.116,-8.099
58.88,-51.52,-9.485
58.92,-55.521,-10.459
58.95,-60.083,-11.295
58.98,-64.716,-11.685
59.01,-69.138,-11.593
59.05,-72.893,-11.547
59.08,-75.876,-11.65
59.11,-78.999,-11.811
59.14,-81.807,-12.154
59.18,-84.088,-12.819
59.21,-86.685,-13.609
59.24,-89.598,-14.308
59.27,-92.511,-14.972
59.31,-95.74,-15.671
59.34,-99.53,-16.29
59.37,-103.075,-16.863
59.4,-106.725,-17.218
59.44,-110.445,-17.55
59.47,-113.568,-17.939
59.5,-116.832,-18.249
59.54,-120.201,-18.535
59.57,-122.974,-18.902
59.6,-125.676,-19.394
59.63,-128.554,-19.944
59.67,-131.361,-20.597
59.7,-134.415,-21.261
59.73,-137.784,-21.777
59.76,-140.872,-22.086
59.8,-143.82,-22.384
59.83,-146.909,-22.705
59.86,-149.716,-23.026
59.89,-152.419,-23.45
59.93,-155.437,-23.873
59.96,-158.174,-24.24
59.99,-160.771,-24.652
60.02,-163.403,-25.007
60.06,-165.93,-25.34
60.09,-168.211,-25.752
60.12,-170.879,-26.142
60.15,-173.37,-26.508
60.19,-175.932,-27.047
60.22,-178.88,-27.551
60.25,-181.618,-27.894
60.28,-184.215,-28.215
60.32,-186.812,-28.524
60.35,-189.339,-28.719
60.38,-191.515,-28.948
60.41,-193.726,-29.235
60.45,-196.007,-29.624
60.48,-198.077,-30.025
60.51,-200.183,-30.3
60.54,-202.219,-30.414
60.58,-203.798,-30.552
60.61,-205.447,-30.758
60.64,-207.062,-30.987
60.68,-208.606,-31.342
60.71,-210.431,-31.824
60.74,-212.396,-32.236
60.77,-214.362,-32.591
60.81,-216.537,-32.877
60.84,-218.713,-33.118
60.87,-220.609,-33.313
60.9,-222.644,-33.542
60.94,-224.68,-33.771
60.97,-226.469,-33.966
61.0,-228.224,-34.229
61.03,-230.19,-34.504
61.07,-231.909,-34.664
61.1,-233.524,-34.917
61.13,-235.278,-35.169
61.16,-236.717,-35.306
61.2,-238.226,-35.615
61.23,-239.876,-35.81
61.26,-241.595,-36.165
61.29,-243.315,-36.646
61.33,-245.245,-36.91
61.36,-246.965,-36.921
61.39,-248.369,-36.99
61.42,-249.948,-37.116
61.46,-251.282,-37.276
61.49,-252.615,-37.505
61.52,-254.054,-37.861
61.55,-255.493,-38.113
61.59,-256.792,-38.25
61.62,-257.915,-38.124
61.65,-258.932,-38.101
61.68,-259.81,-38.388
61.72,-260.933,-38.674
61.75,-262.126,-38.983
61.78,-263.319,-39.304
61.82,-264.688,-39.476
61.85,-266.057,-39.567
61.88,-267.25,-39.705
61.91,-268.619,-39.842
61.95,-269.707,-39.888
61.98,-270.689,-40.003
62.01,-271.812,-40.243
62.04,-273.041,-40.404
62.08,-273.953,-40.507
62.11,-274.76,-40.541
62.14,-275.568,-40.438
62.17,-276.164,-40.472
62.21,-276.726,-40.381
62.24,-277.007,-40.461
62.27,-277.322,-40.644
62.3,-277.638,-40.931
62.34,-278.375,-41.148
62.37,-278.972,-41.194
62.4,-279.568,-41.366
62.43,-280.341,-41.355
62.47,-280.762,-41.229
62.5,-281.078,-41.091
62.53,-281.323,-41.183
62.56,-281.569,-41.251
62.6,-281.639,-41.217
62.63,-281.709,-41.114
62.66,-281.464,-40.999
62.69,-281.113,-40.828
62.73,-280.656,-40.667
62.76,-280.13,-40.724
62.79,-279.814,-40.965
62.82,-279.674,-41.057
62.86,-279.323,-40.999
62.89,-279.112,-40.85
62.92,-278.586,-40.564
62.95,-277.708,-40.175
62.99,-276.656,-39.797
63.02,-275.497,-39.705
63.05,-274.409,-39.762
63.09,-273.497,-39.716
63.12,-272.339,-39.567
63.15,-271.251,-39.419
63.18,-270.128,-39.121
63.22,-268.759,-38.777
63.25,-267.18,-38.491
63.28,-265.776,-38.365
63.31,-264.513,-38.376
63.35,-263.354,-38.376
63.38,-262.231,-38.239
63.41,-261.003,-37.975
63.44,-259.705,-37.654
63.48,-258.406,-37.276
63.51,-256.792,-36.944
63.54,-255.142,-36.807
63.57,-253.773,-36.658
63.61,-252.229,-36.417
63.64,-250.615,-36.268
63.67,-249.071,-36.096
63.7,-247.316,-35.661
63.74,-245.456,-35.272
63.77,-243.666,-35.031
63.8,-241.736,-34.848
63.83,-239.946,-34.596
63.87,-238.261,-34.458
63.9,-236.752,-34.607
63.93,-235.419,-34.47
63.96,-234.05,-33.954
64.0,-232.401,-33.427
64.03,-230.505,-33.141
64.06,-228.716,-32.809
64.09,-226.715,-32.35
64.13,-224.504,-32.098
64.16,-222.504,-31.995
64.19,-220.538,-31.675
64.23,-218.292,-31.354
64.26,-216.327,-31.148
64.29,-214.326,-30.953
64.32,-212.326,-30.77
64.36,-210.571,-30.529
64.39,-208.887,-30.162
64.42,-206.921,-29.807
64.45,-204.991,-29.338
64.49,-202.885,-28.788
64.52,-200.429,-28.307
64.55,-197.902,-28.02
64.58,-195.551,-27.837
64.62,-193.41,-27.883
64.65,-191.62,-27.734
64.68,-189.725,-27.459
64.71,-187.619,-27.069
64.75,-185.513,-26.726
64.78,-183.267,-26.038
64.81,-180.775,-25.649
64.84,-178.564,-25.454
64.88,-176.389,-25.202
64.91,-173.967,-24.687
64.94,-171.545,-24.274
64.97,-169.124,-23.759
65.01,-166.457,-23.415
65.04,-163.719,-22.888
65.07,-160.806,-22.247
65.1,-157.683,-21.96
65.14,-154.91,-21.995
65.17,-152.419,-21.834
65.2,-149.821,-21.181
65.23,-146.979,-20.631
65.27,-144.136,-20.116
65.3,-141.434,-19.99
65.33,-138.942,-19.818
65.37,-136.661,-19.36
65.4,-134.029,-18.81
65.43,-131.151,-18.26
65.46,-128.378,-17.71
65.5,-125.395,-17.149
65.53,-122.096,-16.599
65.56,-118.727,-15.98
65.59,-115.147,-15.442
65.63,-111.568,-15.098
65.66,-108.409,-14.858
65.69,-105.391,-14.549
65.72,-102.232,-14.09
65.76,-99.144,-13.506
65.79,-95.81,-12.819
65.82,-92.265,-12.2
65.85,-88.791,-11.627
65.89,-85.211,-10.997
65.92,-81.456,-10.413
65.95,-77.736,-9.875
65.98,-73.981,-9.439
66.02,-70.331,-9.073
66.05,-66.821,-8.615
66.08,-63.382,-8.099
66.11,-59.943,-7.618
66.15,-56.609,-7.228
66.18,-53.485,-6.805
66.21,-50.397,-6.301
66.24,-47.238,-5.751
66.28,-43.799,-5.178
66.31,-40.395,-4.628
66.34,-37.025,-4.055
66.37,-33.621,-3.792
66.41,-31.656,-4.662
66.44,-31.551,-6.117
66.47,-30.182,-4.17
66.5,-25.62,-0.745
66.54,-19.829,0.344
66.57,-13.933,0.401
66.6,-7.756,1.008
66.64,-1.053,1.375
66.67,0.526,1.925
66.7,1.93,2.91
66.73,4.492,2.99
66.77,5.615,3.54
66.8,7.721,4.949
66.83,12.178,6.037
66.86,17.899,6.071
66.9,23.584,5.659
66.93,28.813,5.304
66.96,33.621,5.155
66.99,37.868,5.121
67.03,41.167,4.949
67.06,43.132,4.662
67.09,44.115,4.731
67.12,45.168,5.522
67.16,46.677,6.862
67.19,49.484,8.214
67.22,52.748,9.416
67.25,56.503,10.47
67.29,60.855,11.226
67.32,65.207,11.604
67.35,69.418,11.708
67.38,73.174,11.582
67.42,76.157,11.559
67.45,78.894,11.811
67.48,81.526,12.338
67.51,84.158,12.945
67.55,86.685,13.655
67.58,89.633,14.319
67.61,92.686,14.927
67.64,95.775,15.511
67.68,99.179,16.118
67.71,102.759,16.668
67.74,106.058,17.057
67.78,109.743,17.55
67.81,113.182,17.825
67.84,116.235,18.203
67.87,119.499,18.569
67.91,122.552,18.959
67.94,125.43,19.6
67.97,128.799,20.276
68.0,132.344,20.895
68.04,135.713,21.479
68.07,139.153,21.937
68.1,142.487,22.258
68.13,145.54,22.602
68.17,148.628,22.911
68.2,151.576,23.06
68.23,153.822,23.243
68.26,156.139,23.587
68.3,158.595,24.034
68.33,160.841,24.561
68.36,163.193,25.156
68.39,166.0,25.66
68.43,168.703,26.096
68.46,171.335,26.508
68.49,174.213,26.863
68.52,177.055,27.23
68.56,179.758,27.608
68.59,182.53,27.894
68.62,184.987,28.158
68.65,187.338,28.433
68.69,189.725,28.605
68.72,191.655,28.811
68.75,193.48,29.166
68.78,195.515,29.498
68.82,197.375,29.762
68.85,198.99,30.002
68.88,200.78,30.231
68.92,202.57,30.506
68.95,204.184,30.815
68.98,205.974,31.067
69.01,207.764,31.4
69.05,209.694,31.835
69.08,211.905,32.236
69.11,214.116,32.511
69.14,216.011,32.717
69.18,218.047,32.832
69.21,219.872,32.992
69.24,221.591,33.29
69.27,223.521,33.565
69.31,225.311,33.771
69.34,226.926,34.069
69.37,228.786,34.458
69.4,230.821,34.79
69.44,232.436,34.928
69.47,234.436,35.34
69.5,236.647,35.73
69.53,238.542,35.89
69.57,240.297,35.982
69.6,242.017,36.154
69.63,243.666,36.417
69.66,245.386,36.669
69.7,247.141,36.864
69.73,248.579,37.024
69.76,249.913,37.265
69.79,251.457,37.54
69.83,252.861,37.769
69.86,254.3,37.918
69.89,255.774,38.032
69.92,256.897,38.216
69.96,258.301,38.353
69.99,259.529,38.422
70.02,260.547,38.559
70.05,261.459,38.72
70.09,262.582,38.983
70.12,263.705,39.212
70.15,264.864,39.43
70.19,266.092,39.59
70.22,267.426,39.854
70.25,268.513,39.831
70.28,269.637,39.888
70.32,270.654,39.991
70.35,271.497,40.186
70.38,272.479,40.163
70.41,273.251,40.392
70.45,274.094,40.472
70.48,274.339,40.186
70.51,274.374,39.808
70.54,274.409,40.037
70.58,274.76,40.472
70.61,275.252,40.576
70.64,275.743,40.828
70.67,276.41,41.08
70.71,277.217,41.194
70.74,277.919,41.148
70.77,278.902,41.423
70.8,280.025,41.71
70.84,281.183,41.801
70.87,282.411,42.019
70.9,283.78,42.248
70.93,285.008,42.214
70.97,285.745,42.019
71.0,286.342,41.79
71.03,286.412,41.503
71.06,285.886,41.148
71.1,285.114,40.931
71.13,284.236,41.045
71.16,283.394,41.148
71.19,282.622,41.022
71.23,281.429,40.805
71.26,280.27,40.644
71.29,279.077,40.472
71.33,277.744,40.266
71.36,276.48,40.106
71.39,275.392,40.129
71.42,274.445,40.117
71.46,273.357,39.888
71.49,272.023,39.487
71.52,270.76,39.155
71.55,269.18,38.846
71.59,267.426,38.559
71.62,265.811,38.307
71.65,264.302,38.216
71.68,262.688,38.17
71.72,261.319,38.032
71.75,259.915,37.769
71.78,258.231,37.517
71.81,256.721,37.276
71.85,255.318,36.979
71.88,253.809,36.772
71.91,252.299,36.6
71.94,250.79,36.383
71.98,249.246,36.188
72.01,247.702,35.948
72.04,246.158,35.604
72.07,244.438,35.237
72.11,242.578,34.917
72.14,240.683,34.63
72.17,238.683,34.39
72.2,236.893,34.275
72.24,235.278,34.264
72.27,233.769,34.149
72.3,232.26,33.782
72.33,230.576,33.324
72.37,228.751,33.038
72.4,226.996,32.786
72.43,225.066,32.396
72.46,222.995,31.995
72.5,220.995,31.801
72.53,219.17,31.663
72.56,217.204,31.365
72.6,215.239,31.067
72.63,213.344,30.804
72.66,211.378,30.552
72.69,209.659,30.346
72.73,207.939,30.162
72.76,206.325,30.025
72.79,204.64,29.704
72.82,202.921,29.177
72.86,200.955,28.662
72.89,198.709,28.33
72.92,196.533,28.112
72.95,194.392,27.837
72.99,192.322,27.677
73.02,190.356,27.539
73.05,188.637,27.276
73.08,186.496,26.783
73.12,184.25,26.256
73.15,181.934,25.786
73.18,179.477,25.42
73.21,177.09,25.065
73.25,174.669,24.652
73.28,171.931,24.217
73.31,169.019,23.816
73.34,166.281,23.427
73.38,163.579,23.083
73.41,160.42,22.419
73.44,157.542,22.144
73.47,154.77,22.006
73.51,152.419,21.937
73.54,150.383,21.846
73.57,148.242,21.204
73.6,145.645,20.666
73.64,142.978,19.898
73.67,140.1,19.291
73.7,137.082,18.936
73.74,134.099,18.604
73.77,131.186,18.249
73.8,128.098,17.768
73.83,125.044,17.298
73.87,122.026,16.897
73.9,118.938,16.473
73.93,115.779,15.992
73.96,112.796,15.454
74.0,109.743,14.961
74.03,106.584,14.537
74.06,103.426,14.079
74.09,100.197,13.54
74.13,96.828,12.842
74.16,93.178,12.143
74.19,89.282,11.524
74.22,85.562,10.997
74.26,81.877,10.516
74.29,77.982,10.115
74.32,74.332,9.76
74.35,70.963,9.313
74.39,67.558,8.844
74.42,64.224,8.351
74.45,61.101,7.836
74.48,57.942,7.286
74.52,54.608,6.828
74.55,51.274,6.266
74.58,48.08,5.728
74.61,44.676,5.258
74.65,41.272,4.914
74.68,38.078,4.387
74.71,34.814,3.987
74.74,32.709,4.605
74.78,32.603,6.197
74.81,31.516,4.628
74.84,27.129,0.962
74.88,21.198,-0.619
74.91,14.74,-0.722
74.94,8.107,-1.214
74.97,0.948,-1.684
75.01,-0.632,-2.589
75.04,-2.597,-3.517
75.07,-4.773,-3.242
75.1,-5.721,-3.998
75.14,-8.633,-5.556
75.17,-13.371,-6.049
75.2,-19.127,-5.923
75.23,-24.847,-5.854
75.27,-30.392,-5.648
75.3,-35.306,-5.327
75.33,-39.272,-4.926
75.36,-41.588,-4.559
75.4,-42.886,-4.296
75.43,-43.378,-4.445
75.46,-44.044,-5.464
75.49,-45.589,-7.034
75.53,-48.396,-8.615
75.56,-52.116,-9.932
75.59,-56.398,-10.906
75.62,-60.96,-11.456
75.66,-65.453,-11.753
75.69,-69.804,-11.708
75.72,-73.489,-11.547
75.75,-76.367,-11.593
75.79,-78.999,-11.96
75.82,-81.947,-12.372
75.85,-84.404,-13.014
75.88,-86.826,-13.804
75.92,-89.774,-14.514
75.95,-92.757,-15.098
75.98,-95.81,-15.706
76.01,-99.249,-16.359
76.05,-102.899,-16.897
76.08,-106.339,-17.321
76.11,-110.059,-17.687
76.15,-113.463,-17.974
76.18,-116.516,-18.26
76.21,-119.815,-18.524
76.24,-122.552,-18.844
76.28,-125.009,-19.337
76.31,-127.852,-19.944
76.34,-130.8,-20.574
76.37,-133.713,-21.296
76.41,-137.187,-21.972
76.44,-140.662,-22.327
76.47,-143.82,-22.613
76.5,-146.909,-22.98
76.54,-150.067,-23.175
76.57,-152.84,-23.576
76.6,-155.788,-24.16
76.63,-158.736,-24.492
76.67,-161.017,-24.836
76.7,-163.579,-25.191
76.73,-166.316,-25.534
76.76,-168.633,-26.004
76.8,-171.335,-26.474
76.83,-174.142,-26.817
76.86,-176.599,-27.276
76.89,-179.231,-27.78
76.93,-182.179,-28.078
76.96,-184.566,-28.352
76.99,-187.022,-28.662
77.02,-189.549,-28.834
77.06,-191.55,-29.051
77.09,-193.515,-29.383
77.12,-195.831,-29.704
77.15,-197.762,-30.071
77.19,-199.727,-30.506
77.22,-201.938,-30.747
77.25,-203.587,-30.861
77.29,-205.202,-31.079
77.32,-207.132,-31.457
77.35,-209.097,-31.858
77.38,-210.957,-32.27
77.42,-213.168,-32.476
77.45,-215.063,-32.648
77.48,-216.888,-32.935
77.51,-218.994,-33.129
77.55,-220.538,-33.198
77.58,-221.942,-33.301
77.61,-223.627,-33.439
77.64,-225.136,-33.748
77.68,-226.434,-34.229
77.71,-228.224,-34.607
77.74,-230.049,-34.939
77.77,-231.804,-35.26
77.81,-233.875,-35.558
77.84,-235.875,-35.787
77.87,-237.735,-35.982
77.9,-239.7,-36.142
77.94,-241.56,-36.291
77.97,-243.105,-36.612
78.0,-244.894,-36.875
78.03,-246.404,-36.841
78.07,-247.562,-36.944
78.1,-248.895,-37.265
78.13,-250.475,-37.574
78.16,-251.808,-37.838
78.2,-253.282,-38.136
78.23,-254.967,-38.422
78.26,-256.335,-38.594
78.29,-257.704,-38.571
78.33,-258.968,-38.559
78.36,-259.985,-38.697
78.39,-261.108,-38.926
78.43,-262.407,-39.247
78.46,-263.565,-39.51
78.49,-264.688,-39.774
78.52,-266.162,-39.785
78.56,-267.11,-39.854
78.59,-268.373,-40.163
78.62,-269.496,-40.06
78.65,-270.338,-40.175
78.69,-271.497,-40.644
78.72,-272.935,-40.965
78.75,-273.883,-40.747
78.78,-274.62,-40.644
78.82,-275.357,-40.736
78.85,-276.059,-40.873
78.88,-276.164,-40.564
78.91,-276.48,-40.656
78.95,-276.936,-41.022
78.98,-277.603,-41.274
79.01,-278.375,-41.607
79.04,-279.147,-41.607
79.08,-279.955,-41.721
79.11,-280.656,-41.561
79.14,-281.042,-41.297
79.17,-281.253,-41.435
79.21,-281.639,-41.584
79.24,-281.885,-41.629
79.27,-282.06,-41.607
79.3,-282.06,-41.503
79.34,-281.85,-41.355
79.37,-281.499,-41.103
79.4,-280.727,-40.85
79.43,-280.06,-40.896
79.47,-279.709,-41.148
79.5,-279.358,-41.32
79.53,-279.112,-41.274
79.56,-278.867,-41.091
79.6,-278.305,-40.839
79.63,-277.568,-40.541
79.66,-276.55,-40.209
79.7,-275.427,-40.037
79.73,-274.515,-40.06
79.76,-273.637,-40.083
79.79,-272.514,-39.923
79.83,-271.391,-39.716
79.86,-270.338,-39.407
79.89,-269.005,-39.018
79.92,-267.32,-38.731
79.96,-265.846,-38.559
79.99,-264.442,-38.468
80.02,-263.039,-38.514
80.05,-261.81,-38.491
80.09,-260.757,-38.25
80.12,-259.248,-37.906
80.15,-257.88,-37.597
80.18,-256.441,-37.299
80.22,-255.002,-37.105
80.25,-253.528,-36.921
80.28,-251.949,-36.681
80.31,-250.299,-36.497
80.35,-248.79,-36.234
80.38,-247.035,-35.764
80.41,-244.859,-35.443
80.44,-242.999,-35.249
80.48,-241.245,-35.031
80.51,-239.42,-34.917
80.54,-237.665,-34.825
80.57,-236.261,-34.619
80.61,-234.647,-34.298
80.64,-232.927,-33.931
80.67,-231.242,-33.553
80.7,-229.417,-33.359
80.74,-227.803,-33.198
80.77,-226.118,-32.694
80.8,-224.048,-32.224
80.84,-222.047,-32.144
80.87,-220.328,-32.018
80.9,-218.292,-31.766
80.93,-216.151,-31.377
80.97,-214.432,-31.01
81.0,-212.466,-30.781
81.03,-210.431,-30.689
81.06,-208.817,-30.414
81.1,-207.027,-30.117
81.13,-205.096,-29.819
81.16,-203.166,-29.349
81.19,-200.885,-28.845
81.23,-198.428,-28.501
81.26,-196.393,-28.284
81.29,-194.392,-28.112
81.32,-192.287,-27.917
81.36,-190.392,-27.665
81.39,-188.391,-27.253
81.42,-186.11,-26.737
81.45,-183.899,-26.21
81.49,-181.442,-25.706
81.52,-178.775,-25.397
81.55,-176.318,-25.225
81.58,-173.932,-24.927
81.62,-171.37,-24.561
81.65,-168.913,-24.137
81.68,-166.316,-23.644
81.71,-163.579,-23.209
81.75,-160.912,-22.682
81.78,-158.034,-22.178
81.81,-155.121,-21.892
81.84,-152.348,-21.628
81.88,-149.716,-21.227
81.91,-146.803,-20.849
81.94,-143.925,-20.288
81.97,-141.258,-19.956
82.01,-138.345,-19.497
82.04,-135.608,-19.188
82.07,-133.362,-19.177
82.11,-130.73,-18.547
82.14,-128.098,-17.951
82.17,-125.255,-17.367
82.2,-122.131,-16.84
82.24,-118.832,-16.393
82.27,-115.919,-15.877
82.3,-112.55,-15.408
82.33,-109.181,-15.041
82.37,-106.093,-14.571
82.4,-102.899,-14.09
82.43,-99.425,-13.621
82.46,-96.196,-13.036
82.5,-92.686,-12.338
82.53,-89.001,-11.753
82.56,-85.422,-11.204
82.59,-81.737,-10.608
82.63,-77.911,-10.138
82.66,-74.332,-9.703
82.69,-70.857,-9.325
82.72,-67.523,-8.947
82.76,-64.294,-8.408
82.79,-60.925,-7.79
82.82,-57.416,-7.274
82.85,-54.152,-6.85
82.89,-50.958,-6.381
82.92,-47.624,-5.877
82.95,-44.36,-5.27
82.98,-40.886,-4.674
83.02,-37.201,-4.124
83.05,-33.762,-3.815
83.08,-31.551,-4.387
83.11,-31.129,-5.934
83.15,-30.112,-4.617
83.18,-26.111,-1.088
83.21,-20.32,0.389
83.25,-14.284,0.412
83.28,-8.353,0.928
83.31,-1.369,1.409
83.34,0.667,2.073
83.38,2.176,3.253
83.41,5.089,3.437
83.44,6.528,4.193
83.47,9.792,5.636
83.51,14.635,6.094
83.54,20.039,5.544
83.57,24.988,5.235
83.6,29.866,5.224
83.64,34.323,5.189
83.67,37.973,4.937
83.7,40.395,4.445
83.73,41.483,4.124
83.77,42.044,4.605
83.8,43.167,5.785
83.83,45.168,7.08
83.86,47.905,8.237
83.9,51.169,9.336
83.93,55.135,10.321
83.96,59.486,11.02
83.99,64.084,11.387
84.03,68.295,11.49
84.06,72.015,11.547
84.09,75.349,11.65
84.12,78.297,11.891
84.16,80.93,12.326
84.19,83.597,13.025
84.22,86.51,13.804
84.25,89.563,14.526
84.29,92.827,15.098
84.32,96.126,15.591
84.35,99.46,16.038
84.39,102.829,16.611
84.42,106.339,17.137
84.45,109.953,17.619
84.48,113.498,18.008
84.52,116.762,18.352
84.55,119.885,18.695
84.58,122.868,19.177
84.61,125.922,19.704
84.65,129.115,20.345
84.68,132.414,20.964
84.71,136.029,21.766
84.74,139.784,22.361
84.78,143.294,22.499
84.81,146.382,22.728
84.84,149.084,22.705
84.87,151.541,22.842
84.91,153.682,23.255
84.94,155.998,23.782
84.97,158.42,24.251
85.0,160.771,24.698
85.04,163.158,25.156
85.07,165.649,25.569
85.1,168.071,25.855
85.13,170.387,26.13
85.17,172.809,26.462
85.2,175.23,26.932
85.23,177.863,27.459
85.26,180.635,27.883
85.3,183.372,28.307
85.33,186.005,28.616
85.36,188.531,28.765
85.39,190.707,28.879
85.43,192.813,29.2
85.46,195.059,29.647
85.49,197.2,30.082
85.52,199.446,30.46
85.56,201.657,30.758
85.59,203.658,30.861
85.62,205.482,30.964
85.66,207.272,31.251
85.69,209.203,31.652
85.72,211.133,31.972
85.75,213.063,32.27
85.79,215.028,32.568
85.82,216.888,32.9
85.85,218.713,32.946
85.88,220.258,33.049
85.92,221.907,33.599
85.95,223.767,33.943
85.98,225.732,34.241
86.01,227.592,34.527
86.05,229.558,34.871
86.08,231.593,35.077
86.11,233.524,35.237
86.14,235.138,35.191
86.18,236.542,35.226
86.21,237.946,35.604
86.24,239.665,35.959
86.27,241.245,36.268
86.31,242.964,36.738
86.34,245.0,37.139
86.37,246.719,37.162
86.4,248.228,37.162
86.44,249.843,37.322
86.47,251.282,37.505
86.5,252.686,37.7
86.53,254.054,37.929
86.57,255.493,38.193
86.6,256.757,38.353
86.63,257.985,38.456
86.66,259.213,38.594
86.7,260.336,38.766
86.73,261.459,38.926
86.76,262.723,39.155
86.8,263.916,39.384
86.83,265.179,39.613
86.86,266.513,39.762
86.89,267.706,39.934
86.93,268.935,40.072
86.96,270.023,40.175
86.99,271.216,40.289
87.02,272.269,40.53
87.06,273.462,40.77
87.09,274.55,40.908
87.12,275.533,40.816
87.15,276.024,40.553
87.19,276.234,40.381
87.22,276.27,40.312
87.25,276.375,40.472
87.28,276.55,40.793
87.32,277.042,41.251
87.35,277.849,41.503
87.38,278.586,41.664
87.41,279.639,41.744
87.45,280.727,41.927
87.48,281.674,41.893
87.51,282.341,41.607
87.54,282.903,41.538
87.58,283.675,41.859
87.61,283.955,41.778
87.64,283.99,41.458
87.67,283.78,41.274
87.71,283.499,41.458
87.74,282.867,41.045
87.77,281.955,40.702
87.8,281.148,41.011
87.84,280.902,41.526
87.87,280.516,41.343
87.9,279.884,41.022
87.94,279.323,40.919
87.97,278.761,40.885
88.0,277.708,40.243
88.03,276.234,39.774
88.07,275.111,39.911
88.1,274.129,40.072
88.13,272.971,39.865
88.16,271.672,39.556
88.2,270.338,39.293
88.23,268.9,39.041
88.26,267.426,38.754
88.29,266.057,38.536
88.33,264.478,38.491
88.36,263.144,38.399
88.39,261.951,38.181
88.42,260.547,37.952
88.46,259.038,37.7
88.49,257.529,37.322
88.52,255.949,36.967
88.55,254.195,36.875
88.59,252.756,36.818
88.62,251.387,36.635
88.65,249.843,36.486
88.68,248.439,36.257
88.72,247.07,35.948
88.75,245.491,35.673
88.78,243.771,35.226
88.81,242.017,34.917
88.85,240.016,34.653
88.88,238.121,34.481
88.91,236.366,34.332
88.94,234.612,34.046
88.98,232.611,33.485
89.01,230.4,33.164
89.04,228.54,33.29
89.07,227.136,33.233
89.11,225.768,32.981
89.14,224.048,32.74
89.17,222.504,32.602
89.21,221.31,32.328
89.24,219.872,31.904
89.27,218.152,31.434
89.3,216.187,31.045
89.34,214.151,30.758
89.37,212.186,30.552
89.4,210.15,30.323
89.43,207.939,30.048
89.47,205.798,29.67
89.5,203.658,29.257
89.53,201.306,28.902
89.56,198.99,28.627
89.6,196.919,28.375
89.63,194.849,28.181
89.66,192.813,27.986
89.69,190.988,27.654
89.73,188.882,27.184
89.76,186.566,26.714
89.79,184.285,26.222
89.82,181.723,25.729
89.86,179.196,25.363
89.89,176.634,25.156
89.92,174.248,24.904
89.95,171.756,24.515
89.99,169.124,23.988
90.02,166.316,23.541
90.05,163.438,23.117
90.08,160.771,22.602
90.12,157.928,22.166
90.15,155.016,21.834
90.18,152.068,21.491
90.21,149.084,20.929
90.25,145.961,20.219
90.28,142.908,19.91
90.31,139.749,19.589
90.35,136.906,19.371
90.38,134.239,19.096
90.41,131.607,18.718
90.44,129.115,18.512
90.48,126.869,18.146
90.51,124.518,17.63
90.54,121.815,17.011
90.57,119.043,16.381
90.61,116.06,15.74
90.64,112.936,15.224
90.67,109.778,14.881
90.7,106.584,14.468
90.74,103.285,13.987
90.77,99.846,13.403
90.8,96.301,12.83
90.83,92.827,12.303
90.87,89.317,11.719
90.9,85.492,11.192
90.93,81.807,10.814
90.96,78.438,10.333
91.0,74.928,9.783
91.03,71.349,9.176
91.06,67.769,8.58
91.09,64.154,7.985
91.13,60.399,7.503
91.16,56.854,7.137
91.19,53.59,6.805
91.22,50.467,6.404
91.26,47.308,5.923
91.29,44.15,5.396
91.32,41.026,4.972
91.35,37.973,4.456
91.39,34.955,4.227
91.42,33.376,4.983
91.45,33.411,6.266
91.48,32.323,4.582
91.52,28.076,1.146
91.55,22.321,-0.355
91.58,16.003,-0.596
91.62,9.721,-1.249
91.65,1.965,-1.695
91.68,-0.526,-2.291
91.71,-2.211,-3.597
91.75,-5.299,-3.815
91.78,-6.914,-4.468
91.81,-10.107,-5.567
91.84,-14.424,-5.648
91.88,-19.653,-5.693
91.91,-25.198,-5.9
91.94,-30.673,-5.659
91.97,-35.06,-5.098
92.01,-38.184,-4.41
92.04,-39.798,-3.941
92.07,-40.5,-3.941
92.1,-41.026,-4.617
92.14,-42.36,-5.831
92.17,-44.395,-7.332
92.2,-47.519,-8.821
92.23,-51.59,-9.943
92.27,-55.977,-10.711
92.3,-60.609,-11.146
92.33,-65.207,-11.295
92.36,-69.208,-11.318
92.4,-72.963,-11.364
92.43,-76.122,-11.456
92.46,-78.543,-11.788
92.49,-81.105,-12.28
92.53,-83.702,-12.899
92.56,-86.369,-13.735
92.59,-89.423,-14.64
92.62,-92.967,-15.396
92.66,-96.371,-15.923
92.69,-99.916,-16.37
92.72,-103.636,-16.725
92.76,-106.9,-17.08
92.79,-110.269,-17.504
92.82,-113.708,-17.871
92.85,-116.692,-18.26
92.89,-119.64,-18.707
92.92,-122.763,-19.177
92.95,-125.641,-19.795
92.98,-128.764,-20.505
93.02,-132.59,-21.25
93.05,-136.31,-21.903
93.08,-139.749,-22.166
93.11,-142.943,-22.132
93.15,-145.294,-22.052
93.18,-147.716,-22.499
93.21,-150.418,-22.923
93.24,-152.734,-23.369
93.28,-155.051,-23.954
93.31,-157.718,-24.549
93.34,-160.526,-25.03
93.37,-163.193,-25.443
93.41,-166.141,-25.775
93.44,-168.808,-26.038
93.47,-171.3,-26.279
93.5,-173.792,-26.588
93.54,-176.353,-27.047
93.57,-178.951,-27.585
93.6,-181.793,-28.009
93.63,-184.46,-28.272
93.67,-186.777,-28.57
93.7,-189.233,-28.834
93.73,-191.55,-29.074
93.76,-193.585,-29.441
93.8,-195.901,-29.842
93.83,-198.183,-30.094
93.86,-199.937,-30.369
93.9,-201.903,-30.609
93.93,-203.833,-30.735
93.96,-205.412,-30.941
93.99,-207.097,-31.228
94.03,-208.922,-31.537
94.06,-210.571,-32.007
94.09,-212.572,-32.522
94.12,-214.783,-32.912
94.16,-216.994,-33.244
94.19,-219.17,-33.485
94.22,-221.31,-33.576
94.25,-223.241,-33.702
94.29,-225.136,-33.84
94.32,-226.891,-34.012
94.35,-228.4,-34.309
94.38,-229.979,-34.676
94.42,-231.804,-34.871
94.45,-233.208,-34.985
94.48,-234.682,-35.249
94.51,-236.436,-35.615
94.55,-238.121,-35.959
94.58,-239.876,-36.314
94.61,-241.982,-36.543
94.64,-243.806,-36.726
94.68,-245.386,-36.91
94.71,-247.105,-36.944
94.74,-248.369,-36.967
94.77,-249.527,-37.15
94.81,-250.826,-37.391
94.84,-252.159,-37.746
94.87,-253.493,-38.136
94.9,-254.967,-38.365
94.94,-256.371,-38.433
94.97,-257.634,-38.548
95.0,-258.968,-38.64
95.03,-260.126,-38.708
95.07,-261.143,-38.926
95.1,-262.547,-39.235
95.13,-263.916,-39.384
95.17,-264.899,-39.579
95.2,-266.197,-39.762
95.23,-267.355,-39.854
95.26,-268.408,-40.014
95.3,-269.601,-40.094
95.33,-270.584,-40.209
95.36,-271.602,-40.495
95.39,-272.795,-40.736
95.43,-274.059,-40.77
95.46,-274.76,-40.713
95.49,-275.568,-40.724
95.52,-276.129,-40.576
95.56,-276.305,-40.564
95.59,-276.62,-40.702
95.62,-277.112,-40.999
95.65,-277.673,-41.217
95.69,-278.13,-41.4
95.72,-278.831,-41.366
95.75,-279.498,-41.618
95.78,-280.165,-41.538
95.82,-280.446,-41.194
95.85,-280.762,-41.377
95.88,-281.358,-41.629
95.91,-281.779,-41.618
95.95,-282.095,-41.503
95.98,-282.025,-41.458
96.01,-281.955,-41.332
96.04,-281.604,-41.068
96.08,-281.007,-40.931
96.11,-280.481,-40.965
96.14,-280.025,-41.08
96.17,-279.674,-41.183
96.21,-279.393,-41.217
96.24,-279.042,-41.068
96.27,-278.41,-40.759
96.31,-277.568,-40.404
96.34,-276.445,-40.06
96.37,-275.322,-39.945
96.4,-274.234,-39.98
96.44,-273.216,-39.968
96.47,-272.198,-39.842
96.5,-271.111,-39.705
96.53,-269.987,-39.464
96.57,-268.759,-39.063
96.6,-267.285,-38.766
96.63,-265.776,-38.662
96.66,-264.653,-38.582
96.7,-263.354,-38.502
96.73,-262.196,-38.41
96.76,-261.038,-38.17
96.79,-259.599,-37.723
96.83,-257.845,-37.357
96.86,-256.406,-37.139
96.89,-254.826,-36.99
96.92,-253.247,-36.83
96.96,-251.668,-36.6
96.99,-250.159,-36.429
97.02,-248.579,-36.245
97.05,-247.07,-35.81
97.09,-245.14,-35.398
97.12,-243.175,-35.249
97.15,-241.666,-35.146
97.18,-240.016,-34.928
97.22,-238.086,-34.607
97.25,-236.507,-34.344
97.28,-234.857,-34.172
97.31,-233.102,-33.989
97.35,-231.593,-33.759
97.38,-229.909,-33.485
97.41,-228.224,-33.233
97.45,-226.575,-32.763
97.48,-224.609,-32.442
97.51,-222.784,-32.373
97.54,-221.03,-32.11
97.58,-219.17,-31.606
97.61,-217.099,-31.308
97.64,-215.204,-31.136
97.67,-213.133,-30.827
97.71,-211.028,-30.552
97.74,-209.097,-30.334
97.77,-207.343,-30.059
97.8,-205.272,-29.762
97.84,-203.201,-29.315
97.87,-201.096,-28.811
97.9,-198.709,-28.501
97.93,-196.463,-28.261
97.97,-194.357,-28.043
98.0,-192.252,-27.837
98.03,-190.286,-27.642
98.06,-188.321,-27.241
98.1,-186.005,-26.749
98.13,-183.723,-26.279
98.16,-181.477,-25.752
98.19,-178.88,-25.317
98.23,-176.178,-25.053
98.26,-173.756,-24.79
98.29,-171.124,-24.412
98.32,-168.527,-24.022
98.36,-166.071,-23.53
98.39,-163.228,-23.117
98.42,-160.385,-22.728
98.45,-157.823,-22.315
98.49,-155.191,-22.052
98.52,-152.419,-21.731
98.55,-149.751,-21.239
98.58,-146.944,-20.689
98.62,-143.855,-20.196
98.65,-140.872,-19.681
98.68,-137.994,-19.452
98.72,-135.222,-19.28
98.75,-132.765,-18.947
98.78,-129.922,-18.295
98.81,-126.799,-17.63
98.85,-123.886,-17.149
98.88,-120.973,-16.714
98.91,-117.815,-16.29
98.94,-114.691,-15.774
98.98,-111.568,-15.259
99.01,-108.374,-14.915
99.04,-105.251,-14.594
99.07,-102.338,-14.125
99.11,-99.004,-13.552
99.14,-95.74,-12.876
99.17,-92.195,-12.143
99.2,-88.44,-11.513
99.24,-84.72,-11.043
99.27,-81.105,-10.539
99.3,-77.245,-10.069
99.33,-73.595,-9.668
99.37,-70.366,-9.21
99.4,-66.856,-8.809
99.43,-63.557,-8.466
99.46,-60.785,-8.007
99.5,-57.697,-7.503
99.53,-54.503,-7.011
99.56,-51.695,-6.415
99.59,-48.466,-5.9
99.63,-45.132,-5.396
99.66,-41.904,-4.766
99.69,-38.254,-4.021
99.72,-34.639,-3.769
99.76,-32.814,-4.766
99.79,-32.428,-6.163
99.82,-30.638,-3.987
99.86,-25.935,-0.561
99.89,-19.899,0.401
99.92,-13.898,0.355
99.95,-7.721,0.962
99.99,-0.912,1.375
100.02,0.632,2.073
100.05,2.281,3.219
100.08,5.054,3.402
100.12,6.703,4.33
100.15,10.037,5.774
100.18,15.021,6.026
100.21,20.215,5.396
100.25,24.953,5.086
100.28,29.55,5.144
100.31,33.937,5.075
100.34,37.482,4.72
100.38,39.552,4.296
100.41,40.675,4.113
100.44,41.377,4.674
100.47,42.5,5.934
100.51,44.922,7.389
100.54,48.186,8.672
100.57,51.976,9.783
100.6,56.363,10.631
100.64,60.96,11.135
100.67,65.417,11.284
100.7,69.524,11.272
100.73,73.138,11.272
100.77,76.157,11.467
100.8,78.824,11.868
100.83,81.526,12.28
100.86,83.772,12.865
100.9,86.475,13.712
100.93,89.668,14.526
100.96,92.967,15.247
100.99,96.301,15.877
101.03,100.021,16.37
101.06,103.636,16.794
101.09,107.391,17.195
101.13,110.971,17.504
101.16,114.27,17.882
101.19,117.288,18.295
101.22,120.341,18.627
101.26,123.219,18.993
101.29,125.957,19.509
101.32,129.01,20.127
101.35,131.993,20.723
101.39,135.187,21.514
101.42,138.837,22.166
101.45,142.171,22.315
101.48,145.224,22.625
101.52,148.242,22.831
101.55,151.295,23.14
101.58,153.787,23.438
101.61,156.314,23.828
101.65,158.946,24.228
101.68,161.333,24.584
101.71,163.754,24.904
101.74,166.141,25.191
101.78,168.211,25.546
101.81,170.422,25.993
101.84,172.984,26.485
101.87,175.616,27.035
101.91,178.389,27.585
101.94,181.337,28.009
101.97,184.074,28.33
102.0,186.707,28.547
102.04,189.339,28.673
102.07,191.515,28.822
102.1,193.655,29.131
102.13,195.866,29.464
102.17,197.867,29.819
102.2,199.797,30.197
102.23,201.938,30.518
102.27,203.868,30.678
102.3,205.553,30.884
102.33,207.413,31.148
102.36,209.273,31.48
102.4,210.992,31.801
102.43,212.958,32.098
102.46,215.028,32.454
102.49,216.959,32.809
102.53,218.678,32.809
102.56,220.293,32.797
102.59,221.942,33.336
102.62,223.872,33.679
102.66,225.732,33.954
102.69,227.487,34.206
102.72,229.488,34.55
102.75,231.383,34.848
102.79,233.208,35.088
102.82,234.892,35.1
102.85,236.577,35.157
102.88,238.121,35.547
102.92,239.876,35.913
102.95,241.56,36.131
102.98,243.105,36.44
103.01,244.93,36.795
103.05,246.79,36.864
103.08,248.158,36.921
103.11,249.562,37.127
103.14,251.106,37.357
103.18,252.51,37.563
103.21,253.914,37.826
103.24,255.458,38.055
103.27,256.757,38.193
103.31,258.02,38.239
103.34,259.178,38.273
103.37,260.266,38.422
103.41,261.389,38.685
103.44,262.653,39.006
103.47,263.811,39.293
103.5,265.144,39.51
103.54,266.478,39.636
103.57,267.671,39.739
103.6,268.935,39.865
103.63,270.163,39.957
103.67,271.321,40.049
103.7,272.269,40.346
103.73,273.602,40.553
103.76,274.69,40.633
103.8,275.638,40.644
103.83,276.305,40.541
103.86,276.936,40.415
103.89,277.112,40.45
103.93,277.568,40.621
103.96,277.989,40.77
103.99,278.481,41.045
104.02,279.112,41.148
104.06,279.604,41.274
104.09,280.341,41.332
104.12,281.042,41.538
104.15,281.569,41.286
104.19,281.779,41.217
104.22,282.306,41.595
104.25,283.183,41.847
104.28,283.429,41.549
104.32,283.464,41.297
104.35,283.394,41.183
104.38,283.253,41.217
104.41,282.692,40.736
104.45,281.639,40.415
104.48,280.972,40.679
104.51,280.867,41.229
104.54,281.218,41.962
104.58,282.446,42.569
104.61,283.745,42.683
104.64,284.833,42.477
104.68,285.745,42.191
104.71,286.588,41.881
104.74,286.833,41.492
104.77,286.272,40.965
104.81,284.833,40.278
104.84,282.657,39.567
104.87,279.849,38.914
104.9,276.55,38.536
104.94,273.181,38.376
104.97,270.128,38.41
105.0,267.601,38.605
105.03,265.32,38.846
105.07,263.67,38.788
105.1,262.302,38.376
105.13,260.617,37.987
105.16,258.968,37.654
105.2,257.564,37.253
105.23,255.879,36.898
105.26,254.16,36.658
105.29,252.615,36.371
105.33,250.685,36.028
105.36,248.509,35.65
105.39,246.544,35.214
105.42,244.263,34.928
105.46,242.262,34.939
105.49,240.543,34.882
105.52,238.718,34.733
105.55,237.173,34.596
105.59,235.945,34.378
105.62,234.401,34.08
105.65,232.716,33.759
105.68,231.172,33.21
105.72,229.417,32.855
105.75,227.663,32.843
105.78,226.048,32.683
105.82,224.329,32.396
105.85,222.679,32.213
105.88,221.065,31.869
105.91,218.959,31.285
105.95,216.678,30.93
105.98,214.677,30.701
106.01,212.642,30.46
106.04,210.536,30.311
106.08,208.781,30.151
106.11,206.851,29.819
106.14,204.675,29.452
106.17,202.64,29.04
106.21,200.674,28.696
106.24,198.499,28.501
106.27,196.709,28.295
106.3,194.919,28.02
106.34,192.883,27.745
106.37,190.778,27.299
106.4,188.637,26.703
106.43,186.11,26.142
106.47,183.583,25.775
106.5,180.881,25.443
106.53,178.108,25.145
106.56,175.581,24.973
106.6,173.546,24.79
106.63,170.984,24.366
106.66,168.282,23.759
106.69,165.649,23.209
106.73,162.737,22.739
106.76,159.859,22.292
106.79,157.121,21.88
106.82,154.103,21.662
106.86,151.331,21.468
106.89,148.804,20.941
106.92,145.821,20.334
106.96,142.838,19.944
106.99,139.925,19.474
107.02,135.152,17.367
107.05,128.413,14.778
107.09,121.114,13.3
107.12,114.059,13.472
107.15,109.181,15.098
107.18,106.514,16.29
107.22,104.478,16.737
107.25,103.25,17.011
107.28,103.706,16.954
107.31,104.443,16.45
107.35,104.373,15.683
107.38,103.847,14.48
107.41,102.162,13.105
107.44,99.249,12.04
107.48,95.634,11.307
107.51,91.634,10.837
107.54,87.563,10.665
107.57,83.702,10.699
107.61,80.333,10.78
107.64,77.174,10.722
107.67,74.542,10.402
107.7,71.945,9.829
107.74,68.892,9.164
107.77,65.909,8.454
107.8,62.715,7.744
107.83,59.171,7.148
107.87,55.801,6.621
107.9,52.397,6.197
107.93,48.923,5.923
107.96,45.694,5.418
108.0,42.22,4.823
108.03,38.464,4.296
108.06,35.271,4.101
108.09,33.2,4.72
108.13,32.919,6.278
108.16,32.639,5.384
108.19,29.059,1.684
108.23,23.409,-0.218
108.26,17.407,-0.229
108.29,11.827,-0.493
108.32,5.054,-1.191
108.36,0.0,-1.386
108.39,-0.491,-2.268
108.42,-2.948,-3.104
108.45,-5.194,-3.414
108.49,-7.159,-4.651
108.52,-10.809,-5.785
108.55,-16.179,-6.117
108.58,-22.285,-6.243
108.62,-28.357,-5.991
108.65,-33.481,-5.361
108.68,-37.482,-4.869
108.71,-40.289,-4.479
108.75,-42.044,-4.101
108.78,-42.606,-4.216
108.81,-43.307,-5.109
108.84,-44.817,-6.53
108.88,-47.343,-8.156
108.91,-50.888,-9.577
108.94,-55.205,-10.596
108.97,-59.802,-11.238
109.01,-64.575,-11.513
109.04,-68.962,-11.467
109.07,-72.507,-11.41
109.1,-75.771,-11.421
109.14,-78.508,-11.524
109.17,-80.719,-11.983
109.2,-83.246,-12.704
109.23,-86.089,-13.483
109.27,-88.966,-14.319
109.3,-92.09,-15.075
109.33,-95.529,-15.591
109.37,-98.828,-16.003
109.4,-102.338,-16.427
109.43,-105.917,-16.84
109.46,-109.286,-17.344
109.5,-112.691,-17.756
109.53,-115.955,-18.031
109.56,-119.008,-18.375
109.59,-121.956,-18.856
109.63,-125.009,-19.314
109.66,-127.887,-19.864
109.69,-131.046,-20.517
109.72,-134.555,-21.193
109.76,-137.924,-21.685
109.79,-141.118,-21.937
109.82,-144.206,-22.224
109.85,-147.119,-22.567
109.89,-149.857,-22.842
109.92,-152.559,-23.163
109.95,-155.261,-23.656
109.98,-157.964,-24.171
110.02,-160.771,-24.595
110.05,-163.298,-24.904
110.08,-165.825,-25.237
110.11,-168.422,-25.638
110.15,-170.914,-25.981
110.18,-173.441,-26.382
110.21,-176.143,-26.898
110.24,-178.915,-27.379
110.28,-181.653,-27.791
110.31,-184.32,-28.066
110.34,-186.847,-28.33
110.37,-189.268,-28.593
110.41,-191.83,-28.834
110.44,-193.971,-29.131
110.47,-196.217,-29.509
110.51,-198.463,-29.807
110.54,-200.429,-30.025
110.57,-202.289,-30.231
110.6,-204.008,-30.483
110.64,-205.798,-30.747
110.67,-207.518,-31.056
110.7,-209.483,-31.445
110.73,-211.414,-31.824
110.77,-213.449,-32.167
110.8,-215.52,-32.431
110.83,-217.52,-32.568
110.86,-219.17,-32.66
110.9,-220.784,-32.786
110.93,-222.469,-33.049
110.96,-224.083,-33.404
110.99,-225.838,-33.782
111.03,-227.768,-34.126
111.06,-229.663,-34.561
111.09,-231.839,-34.848
111.12,-233.875,-34.985
111.16,-235.594,-34.997
111.19,-237.314,-35.191
111.22,-239.139,-35.489
111.25,-240.858,-35.776
111.29,-242.578,-36.016
111.32,-244.157,-36.245
111.35,-245.631,-36.429
111.38,-247.0,-36.474
111.42,-248.299,-36.52
111.45,-249.422,-36.772
111.48,-250.861,-37.116
111.51,-252.264,-37.379
111.55,-253.598,-37.574
111.58,-255.002,-37.861
111.61,-256.546,-38.032
111.64,-257.774,-37.998
111.68,-258.827,-38.021
111.71,-259.95,-38.284
111.74,-261.284,-38.594
111.78,-262.477,-38.869
111.81,-263.916,-39.132
111.84,-265.355,-39.396
111.87,-266.829,-39.533
111.91,-268.092,-39.464
111.94,-269.075,-39.407
111.97,-270.023,-39.51
112.0,-271.075,-39.671
112.04,-271.988,-39.98
112.07,-273.146,-40.243
112.1,-274.234,-40.346
112.13,-275.111,-40.278
112.17,-275.883,-40.438
112.2,-276.48,-40.358
112.23,-276.726,-39.991
112.26,-276.831,-40.106
112.3,-277.252,-40.45
112.33,-277.779,-40.702
112.36,-278.305,-40.816
112.39,-278.867,-40.976
112.43,-279.639,-41.091
112.46,-280.165,-41.034
112.49,-280.586,-40.816
112.52,-280.832,-40.713
112.56,-281.042,-40.896
112.59,-281.393,-40.931
112.62,-281.429,-40.919
112.65,-281.639,-40.988
112.69,-281.569,-40.919
112.72,-281.218,-40.69
112.75,-280.902,-40.45
112.78,-280.341,-40.461
112.82,-280.025,-40.656
112.85,-279.99,-40.816
112.88,-279.779,-40.919
112.92,-279.744,-40.679
112.95,-279.112,-40.243
112.98,-278.235,-39.945
113.01,-277.147,-39.59
113.05,-275.883,-39.384
113.08,-274.725,-39.464
113.11,-273.813,-39.522
113.14,-272.725,-39.373
113.18,-271.391,-39.167
113.21,-270.163,-38.892
113.24,-268.864,-38.571
113.27,-267.285,-38.25
113.31,-265.811,-38.181
113.34,-264.653,-38.307
113.37,-263.6,-38.296
113.4,-262.477,-38.113
113.44,-261.424,-37.792
113.47,-260.091,-37.379
113.5,-258.476,-36.944
113.53,-256.792,-36.612
113.57,-255.107,-36.429
113.6,-253.387,-36.303
113.63,-251.738,-36.2
113.66,-250.299,-36.085
113.7,-248.79,-35.936
113.73,-247.316,-35.569
113.76,-245.807,-35.272
113.79,-244.263,-35.1
113.83,-242.754,-34.894
113.86,-241.209,-34.573
113.89,-239.384,-34.275
113.92,-237.665,-34.103
113.96,-235.98,-33.943
113.99,-234.296,-33.553
114.02,-232.576,-33.29
114.05,-230.962,-33.141
114.09,-229.102,-32.855
114.12,-227.242,-32.396
114.15,-225.206,-31.961
114.19,-223.03,-31.766
114.22,-220.924,-31.514
114.25,-218.784,-31.216
114.28,-216.327,-30.712
114.32,-214.046,-30.414
114.35,-212.256,-30.472
114.38,-210.536,-30.483
114.41,-208.887,-30.266
114.45,-207.307,-29.876
114.48,-205.553,-29.418
114.51,-203.552,-28.914
114.54,-201.411,-28.421
114.58,-199.095,-28.009
114.61,-196.709,-27.745
114.64,-194.463,-27.562
114.67,-192.287,-27.447
114.71,-190.216,-27.299
114.74,-188.426,-27.001
114.77,-186.285,-26.508
114.8,-183.829,-25.993
114.84,-181.548,-25.443
114.87,-179.056,-24.95
114.9,-176.459,-24.629
114.93,-173.932,-24.354
114.97,-171.194,-24.114
115.0,-168.527,-23.759
115.03,-166.0,-23.369
115.06,-163.368,-22.911
115.1,-160.455,-22.499
115.13,-157.648,-22.029
115.16,-155.051,-21.869
115.19,-152.419,-21.491
115.23,-149.716,-20.929
115.26,-146.944,-20.425
115.29,-143.925,-19.967
115.33,-141.153,-19.669
115.36,-138.486,-19.291
115.39,-135.503,-18.799
115.42,-132.625,-18.363
115.46,-129.817,-18.042
115.49,-127.185,-17.756
115.52,-124.553,-17.309
115.55,-121.675,-16.737
115.59,-118.587,-16.164
115.62,-115.498,-15.614
115.65,-112.445,-15.11
115.68,-109.181,-14.732
115.72,-106.093,-14.354
115.75,-103.04,-13.85
115.78,-99.67,-13.288
115.81,-96.091,-12.716
115.85,-92.651,-12.028
115.88,-88.896,-11.364
115.91,-85.036,-10.848
115.94,-81.386,-10.413
115.98,-77.876,-9.921
116.01,-74.156,-9.52
116.04,-70.682,-9.084
116.07,-67.172,-8.523
116.11,-63.628,-7.939
116.14,-60.118,-7.469
116.17,-56.749,-7.068
116.2,-53.52,-6.656
116.24,-50.186,-6.14
116.27,-46.852,-5.659
116.3,-43.658,-5.189
116.33,-40.5,-4.823
116.37,-37.447,-4.387
116.4,-34.534,-4.078
116.43,-32.849,-4.743
116.47,-32.744,-6.209
116.5,-31.691,-4.594
116.53,-27.409,-1.111
116.56,-21.759,0.298
116.6,-15.582,0.47
116.63,-9.23,1.157
116.66,-1.649,1.695
116.69,0.737,2.28
