Trigger_Date,2023/06/28
Trigger_Time,T 15:06:46.105 PDT
Samples_Per_Cycle,512
Microseconds_Per_Sample,32.550
Time (ms),Voltage (V),Current (A)
-16.67,-1.158,-2.692
-16.63,-3.018,-3.574
-16.6,-5.089,-3.78
-16.57,-7.826,-4.662
-16.54,-12.143,-5.224
-16.5,-17.548,-5.43
-16.47,-23.409,-5.59
-16.44,-29.164,-5.292
-16.41,-34.007,-4.639
-16.37,-37.271,-4.284
-16.34,-39.377,-4.113
-16.31,-40.956,-4.021
-16.28,-41.588,-4.456
-16.24,-42.395,-5.728
-16.21,-44.641,-7.332
-16.18,-47.975,-8.763
-16.14,-52.046,-9.955
-16.11,-56.96,-10.734
-16.08,-61.978,-10.906
-16.05,-66.541,-10.803
-16.01,-70.471,-10.539
-15.98,-73.349,-10.356
-15.95,-75.314,-10.757
-15.92,-77.946,-11.41
-15.88,-80.403,-11.914
-15.85,-82.544,-12.887
-15.82,-85.703,-14.033
-15.79,-89.528,-14.732
-15.75,-92.932,-15.156
-15.72,-96.793,-15.683
-15.69,-100.793,-15.854
-15.66,-104.163,-16.141
-15.62,-107.602,-16.336
-15.59,-110.69,-16.622
-15.56,-113.147,-17.183
-15.53,-115.955,-17.733
-15.49,-119.113,-18.157
-15.46,-121.535,-18.73
-15.43,-124.377,-19.36
-15.4,-127.782,-19.875
-15.36,-130.695,-20.437
-15.33,-134.099,-21.032
-15.3,-137.854,-21.468
-15.27,-140.907,-21.754
-15.23,-143.89,-22.006
-15.2,-147.119,-22.315
-15.17,-149.646,-22.705
-15.14,-152.173,-23.209
-15.1,-155.296,-23.667
-15.07,-157.999,-24.206
-15.04,-160.841,-24.847
-15.01,-164.0,-25.225
-14.97,-166.667,-25.454
-14.94,-169.299,-25.798
-14.91,-172.353,-26.119
-14.88,-174.879,-26.416
-14.84,-177.301,-27.001
-14.81,-180.179,-27.585
-14.78,-182.951,-28.009
-14.75,-185.478,-28.387
-14.71,-188.391,-28.627
-14.68,-190.883,-28.799
-14.65,-192.813,-29.109
-14.62,-195.059,-29.406
-14.58,-197.13,-29.67
-14.55,-198.849,-30.094
-14.52,-201.096,-30.506
-14.48,-203.201,-30.712
-14.45,-204.745,-30.919
-14.42,-206.395,-31.125
-14.39,-208.115,-31.377
-14.35,-209.694,-31.801
-14.32,-211.8,-32.224
-14.29,-213.87,-32.476
-14.26,-215.765,-32.832
-14.22,-217.766,-33.152
-14.19,-219.766,-33.313
-14.16,-221.556,-33.496
-14.13,-223.451,-33.771
-14.09,-225.487,-34.046
-14.06,-227.206,-34.344
-14.03,-228.996,-34.653
-14.0,-230.997,-34.905
-13.96,-232.576,-35.02
-13.93,-234.05,-35.146
-13.9,-235.77,-35.226
-13.87,-236.998,-35.535
-13.83,-238.507,-36.028
-13.8,-240.332,-36.348
-13.77,-241.911,-36.623
-13.74,-243.701,-36.956
-13.7,-245.631,-37.15
-13.67,-247.316,-37.208
-13.64,-248.72,-37.311
-13.61,-250.334,-37.494
-13.57,-251.668,-37.7
-13.54,-252.896,-38.044
-13.51,-254.546,-38.353
-13.48,-256.09,-38.617
-13.44,-257.564,-38.8
-13.41,-258.932,-38.857
-13.38,-260.161,-38.892
-13.35,-261.179,-39.052
-13.31,-262.442,-39.201
-13.28,-263.53,-39.373
-13.25,-264.618,-39.762
-13.22,-266.092,-40.14
-13.18,-267.531,-40.358
-13.15,-268.9,-40.484
-13.12,-270.233,-40.495
-13.09,-271.356,-40.472
-13.05,-272.304,-40.644
-13.02,-273.392,-40.885
-12.99,-274.445,-41.057
-12.96,-275.392,-41.229
-12.92,-276.305,-41.263
-12.89,-277.007,-41.217
-12.86,-277.498,-41.274
-12.82,-277.919,-41.24
-12.79,-278.235,-41.217
-12.76,-278.34,-41.412
-12.73,-278.761,-41.744
-12.69,-279.393,-41.95
-12.66,-279.919,-41.95
-12.63,-280.586,-41.973
-12.6,-281.113,-42.03
-12.56,-281.604,-41.985
-12.53,-281.885,-41.836
-12.5,-282.095,-41.927
-12.47,-282.306,-42.065
-12.43,-282.552,-42.099
-12.4,-282.657,-42.042
-12.37,-282.657,-41.996
-12.34,-282.411,-41.836
-12.3,-281.99,-41.629
-12.27,-281.534,-41.629
-12.24,-281.183,-41.813
-12.21,-280.972,-41.927
-12.17,-280.727,-41.881
-12.14,-280.481,-41.675
-12.11,-279.779,-41.32
-12.08,-278.761,-41.034
-12.04,-277.779,-40.805
-12.01,-276.656,-40.747
-11.98,-275.533,-40.85
-11.95,-274.655,-40.931
-11.91,-273.778,-40.828
-11.88,-272.865,-40.53
-11.85,-271.742,-40.094
-11.82,-270.338,-39.682
-11.78,-268.724,-39.419
-11.75,-267.039,-39.35
-11.72,-265.495,-39.361
-11.69,-264.197,-39.361
-11.65,-263.074,-39.258
-11.62,-261.81,-39.075
-11.59,-260.547,-38.72
-11.56,-259.178,-38.33
-11.52,-257.529,-38.044
-11.49,-256.02,-37.849
-11.46,-254.546,-37.631
-11.43,-252.896,-37.437
-11.39,-251.352,-37.311
-11.36,-249.878,-37.036
-11.33,-248.228,-36.623
-11.29,-246.263,-36.303
-11.26,-244.473,-36.028
-11.23,-242.613,-35.776
-11.2,-240.613,-35.615
-11.16,-238.998,-35.489
-11.13,-237.63,-35.535
-11.1,-236.401,-35.421
-11.07,-234.998,-34.962
-11.03,-233.313,-34.412
-11.0,-231.418,-34.034
-10.97,-229.558,-33.828
-10.94,-227.628,-33.507
-10.9,-225.381,-33.164
-10.87,-223.416,-32.935
-10.84,-221.381,-32.751
-10.81,-219.275,-32.557
-10.77,-217.45,-32.247
-10.74,-215.414,-31.869
-10.71,-213.414,-31.549
-10.68,-211.343,-31.113
-10.64,-209.097,-30.781
-10.61,-207.167,-30.781
-10.58,-205.447,-30.655
-10.55,-203.693,-30.277
-10.51,-201.833,-29.853
-10.48,-199.832,-29.452
-10.45,-197.691,-29.086
-10.42,-195.621,-28.799
-10.38,-193.62,-28.513
-10.35,-191.515,-28.261
-10.32,-189.514,-27.906
-10.29,-187.163,-27.39
-10.25,-184.706,-26.966
-10.22,-182.144,-26.577
-10.19,-179.442,-26.21
-10.16,-177.09,-25.981
-10.12,-174.704,-25.752
-10.09,-172.247,-25.385
-10.06,-169.685,-24.927
-10.03,-167.194,-24.446
-9.99,-164.632,-23.999
-9.96,-161.894,-23.518
-9.93,-158.911,-23.037
-9.9,-156.104,-22.751
-9.86,-153.226,-22.499
-9.83,-150.243,-21.914
-9.8,-147.365,-21.536
-9.77,-144.417,-20.987
-9.73,-141.539,-20.7
-9.7,-139.012,-20.494
-9.67,-136.345,-20.07
-9.63,-133.748,-19.658
-9.6,-131.291,-19.085
-9.57,-128.413,-18.489
-9.54,-125.22,-17.894
-9.5,-122.026,-17.332
-9.47,-118.622,-16.805
-9.44,-115.112,-16.416
-9.41,-111.813,-16.026
-9.37,-108.549,-15.74
-9.34,-105.602,-15.431
-9.31,-102.794,-14.915
-9.28,-99.6,-14.285
-9.24,-96.126,-13.552
-9.21,-92.686,-12.727
-9.18,-88.721,-12.017
-9.15,-84.685,-11.547
-9.11,-80.789,-11.112
-9.08,-76.929,-10.757
-9.05,-73.209,-10.482
-9.02,-70.05,-10.012
-8.98,-66.681,-9.405
-8.95,-63.136,-8.89
-8.92,-59.978,-8.363
-8.89,-56.679,-7.79
-8.85,-53.275,-7.309
-8.82,-50.221,-6.782
-8.79,-47.028,-6.243
-8.76,-43.588,-5.716
-8.72,-40.289,-5.098
-8.69,-36.78,-4.422
-8.66,-33.025,-4.09
-8.63,-30.814,-4.72
-8.59,-30.638,-6.243
-8.56,-29.691,-4.914
-8.53,-25.83,-1.478
-8.5,-20.566,-0.172
-8.46,-15.056,-0.218
-8.43,-9.932,0.229
-8.4,-3.615,1.02
-8.37,1.053,1.077
-8.33,0.842,1.959
-8.3,2.457,3.253
-8.27,5.44,3.78
-8.24,8.528,4.811
-8.2,13.722,6.037
-8.17,20.004,6.049
-8.14,25.795,5.212
-8.11,30.638,4.571
-8.07,34.639,4.342
-8.04,37.692,4.193
-8.01,39.412,4.078
-7.97,40.5,4.078
-7.94,41.237,4.697
-7.91,42.149,6.037
-7.88,44.501,7.584
-7.84,48.116,8.855
-7.81,52.327,9.794
-7.78,56.889,10.436
-7.75,61.732,10.734
-7.71,65.979,10.757
-7.68,70.015,10.562
-7.65,73.033,10.379
-7.62,75.139,10.677
-7.58,77.701,11.352
-7.55,80.508,12.04
-7.52,82.79,12.887
-7.49,85.667,13.907
-7.45,89.563,14.663
-7.42,93.248,15.259
-7.39,97.144,15.671
-7.36,101.074,15.866
-7.32,104.268,16.106
-7.29,107.567,16.45
-7.26,110.971,16.737
-7.23,113.498,17.229
-7.19,116.165,17.802
-7.16,119.429,18.203
-7.13,122.061,18.638
-7.1,124.728,19.452
-7.06,128.203,20.082
-7.03,131.467,20.689
-7.0,134.836,21.296
-6.97,138.696,21.617
-6.93,141.82,21.777
-6.9,144.662,21.995
-6.87,147.786,22.27
-6.84,150.278,22.613
-6.8,152.524,23.163
-6.77,155.402,23.77
-6.74,158.279,24.32
-6.71,160.982,24.916
-6.67,164.14,25.385
-6.64,167.088,25.615
-6.61,169.685,25.878
-6.58,172.563,26.187
-6.54,175.546,26.772
-6.51,178.459,27.688
-6.48,182.285,28.524
-6.44,186.25,28.799
-6.41,189.268,28.948
-6.38,192.357,29.074
-6.35,194.954,29.063
-6.31,196.498,29.189
-6.28,198.253,29.418
-6.25,199.902,29.601
-6.22,200.85,30.025
-6.18,202.113,30.518
-6.15,203.693,30.689
-6.12,204.57,30.781
-6.09,205.588,31.022
-6.05,206.886,31.262
-6.02,208.044,31.549
-5.99,209.518,31.892
-5.96,211.203,32.156
-5.92,212.852,32.465
-5.89,214.818,32.832
-5.86,216.959,33.061
-5.83,218.889,33.313
-5.79,220.854,33.588
-5.76,223.03,33.794
-5.73,224.855,34.046
-5.7,226.715,34.412
-5.66,229.066,34.825
-5.63,231.242,35.02
-5.6,232.997,35.249
-5.57,235.103,35.443
-5.53,236.928,35.592
-5.5,238.577,35.97
-5.47,240.367,36.154
-5.44,241.841,36.188
-5.4,243.14,36.635
-5.37,245.035,37.105
-5.34,246.79,37.276
-5.31,248.193,37.425
-5.27,249.878,37.723
-5.24,251.598,37.975
-5.21,253.072,38.181
-5.18,254.721,38.353
-5.14,256.511,38.605
-5.11,258.055,38.914
-5.08,259.705,39.052
-5.05,261.003,39.075
-5.01,262.091,39.201
-4.98,263.249,39.281
-4.95,264.302,39.315
-4.92,265.074,39.659
-4.88,266.338,40.129
-4.85,267.776,40.392
-4.82,268.97,40.553
-4.78,270.268,40.713
-4.75,271.497,40.724
-4.72,272.479,40.759
-4.69,273.427,40.885
-4.65,274.48,40.976
-4.62,275.217,41.068
-4.59,275.919,41.251
-4.56,276.62,41.343
-4.52,277.217,41.446
-4.49,277.849,41.469
-4.46,278.34,41.446
-4.43,278.761,41.664
-4.39,279.498,41.927
-4.36,280.165,41.893
-4.33,280.762,41.939
-4.3,281.113,41.985
-4.26,281.639,42.019
-4.23,282.166,42.282
-4.2,282.306,42.042
-4.17,282.587,42.191
-4.13,283.043,42.363
-4.1,283.218,42.088
-4.07,282.762,41.595
-4.04,281.604,41.091
-4.0,280.095,40.702
-3.97,278.094,40.404
-3.94,276.27,40.518
-3.91,275.006,41.148
-3.87,274.62,41.767
-3.84,274.971,42.053
-3.81,275.568,42.179
-3.78,276.41,42.191
-3.74,277.463,41.996
-3.71,278.34,41.572
-3.68,278.726,41.183
-3.65,278.726,41.034
-3.61,278.41,40.976
-3.58,277.814,40.747
-3.55,276.796,40.484
-3.52,275.357,40.243
-3.48,273.567,40.003
-3.45,271.637,39.739
-3.42,269.672,39.716
-3.39,267.952,39.831
-3.35,266.373,39.751
-3.32,264.934,39.476
-3.29,263.425,39.201
-3.26,261.81,38.926
-3.22,260.371,38.514
-3.19,258.582,38.067
-3.16,256.616,37.78
-3.12,254.721,37.609
-3.09,252.966,37.483
-3.06,251.247,37.322
-3.03,249.527,37.105
-2.99,247.842,36.818
-2.96,246.123,36.509
-2.93,244.333,36.142
-2.9,242.578,35.81
-2.86,240.437,35.432
-2.83,238.402,35.157
-2.8,236.366,35.02
-2.77,234.471,34.905
-2.73,232.787,34.664
-2.7,231.137,34.401
-2.67,229.488,34.206
-2.64,227.979,34.034
-2.6,226.54,33.782
-2.57,225.066,33.485
-2.54,223.451,33.072
-2.51,221.837,32.717
-2.47,219.731,32.167
-2.44,217.38,31.778
-2.41,215.274,31.755
-2.38,213.379,31.675
-2.34,211.554,31.491
-2.31,209.94,31.274
-2.28,208.185,31.102
-2.25,206.535,30.77
-2.21,204.781,30.243
-2.18,202.675,29.716
-2.15,200.288,29.269
-2.12,197.902,28.925
-2.08,195.656,28.776
-2.05,193.48,28.662
-2.02,191.444,28.467
-1.99,189.514,28.123
-1.95,187.584,27.7
-1.92,185.443,27.23
-1.89,183.057,26.646
-1.86,180.424,26.13
-1.82,177.827,25.912
-1.79,175.476,25.752
-1.76,172.984,25.408
-1.73,170.282,24.859
-1.69,167.439,24.446
-1.66,164.702,24.034
-1.63,161.824,23.495
-1.59,158.841,23.083
-1.56,156.068,22.831
-1.53,153.331,22.567
-1.5,150.664,22.247
-1.46,147.961,21.64
-1.43,145.084,21.227
-1.4,142.206,20.654
-1.37,139.153,20.082
-1.33,136.134,19.795
-1.3,133.432,19.532
-1.27,130.87,19.28
-1.24,128.203,18.764
-1.2,125.29,18.214
-1.17,122.412,17.664
-1.14,119.359,17.137
-1.11,116.2,16.565
-1.07,112.971,16.003
-1.04,109.602,15.614
-1.01,106.374,15.27
-0.98,103.215,14.766
-0.94,99.741,14.125
-0.91,96.056,13.529
-0.88,92.511,12.945
-0.85,88.721,12.292
-0.81,84.755,11.696
-0.78,80.965,11.204
-0.75,77.174,10.757
-0.72,73.349,10.459
-0.68,70.155,10.115
-0.65,67.067,9.554
-0.62,63.803,8.97
-0.59,60.645,8.397
-0.55,57.416,7.778
-0.52,53.871,7.343
-0.49,50.467,6.954
-0.46,47.203,6.472
-0.42,43.904,5.945
-0.39,40.746,5.453
-0.36,37.692,4.857
-0.33,34.428,4.582
-0.29,32.428,5.098
-0.26,32.428,6.381
-0.23,32.042,5.361
-0.2,28.497,1.982
-0.16,23.198,0.126
-0.13,17.056,-0.263
-0.1,10.88,-0.905
-0.07,3.123,-1.581
-0.03,-1.474,-1.867
0.0,-1.439,-3.127
0.03,-3.79,-3.895
0.07,-5.756,-4.113
0.1,-8.739,-5.178
0.13,-13.617,-5.659
0.16,-19.337,-5.51
0.2,-25.058,-5.453
0.23,-30.533,-5.27
0.26,-35.341,-4.823
0.29,-38.815,-4.296
0.33,-40.395,-4.021
0.36,-41.377,-4.124
0.39,-42.079,-4.559
0.42,-42.851,-5.785
0.46,-44.641,-7.446
0.49,-47.835,-8.752
0.52,-51.73,-9.726
0.55,-56.152,-10.493
0.59,-61.066,-10.848
0.62,-65.663,-10.894
0.65,-69.875,-10.745
0.68,-73.138,-10.562
0.72,-75.42,-10.745
0.75,-77.56,-11.364
0.78,-80.473,-11.983
0.81,-83.035,-12.761
0.85,-85.703,-13.804
0.88,-89.458,-14.732
0.91,-93.283,-15.35
0.94,-97.003,-15.751
0.98,-101.109,-15.912
1.01,-104.549,-16.061
1.04,-107.602,-16.416
1.07,-111.041,-16.737
1.11,-113.849,-17.172
1.14,-116.2,-17.79
1.17,-119.289,-18.409
1.2,-122.307,-18.902
1.24,-125.114,-19.566
1.27,-128.589,-20.253
1.3,-132.414,-20.964
1.33,-135.994,-21.491
1.37,-139.749,-21.754
1.4,-143.013,-21.743
1.43,-145.329,-21.892
1.46,-148.137,-22.27
1.5,-150.629,-22.636
1.53,-152.699,-23.301
1.56,-155.542,-23.976
1.59,-158.63,-24.492
1.63,-161.298,-24.95
1.66,-164.14,-25.42
1.69,-167.123,-25.752
1.73,-169.51,-26.05
1.76,-172.212,-26.405
1.79,-175.055,-26.691
1.82,-177.617,-27.23
1.86,-180.53,-27.826
1.89,-183.548,-28.158
1.92,-186.145,-28.41
1.95,-188.531,-28.673
1.99,-191.023,-28.879
2.02,-192.953,-29.074
2.05,-194.708,-29.452
2.08,-196.884,-29.899
2.12,-198.744,-30.3
2.15,-200.71,-30.701
2.18,-202.921,-30.873
2.21,-204.64,-30.976
2.25,-206.29,-31.228
2.28,-208.22,-31.503
2.31,-209.904,-31.755
2.34,-211.414,-32.121
2.38,-213.379,-32.488
2.41,-215.344,-32.809
2.44,-217.239,-33.175
2.47,-219.415,-33.393
2.51,-221.275,-33.45
2.54,-222.855,-33.691
2.57,-224.75,-33.966
2.6,-226.434,-34.149
2.64,-227.908,-34.538
2.67,-229.768,-34.905
2.7,-231.593,-35.169
2.73,-233.453,-35.478
2.77,-235.384,-35.673
2.8,-237.244,-35.81
2.83,-238.753,-36.051
2.86,-240.472,-36.337
2.9,-242.192,-36.555
2.93,-243.596,-36.83
2.96,-245.386,-37.127
2.99,-247.246,-37.265
3.03,-248.509,-37.368
3.06,-249.843,-37.597
3.09,-251.422,-37.838
3.12,-252.896,-38.181
3.16,-254.546,-38.536
3.19,-256.195,-38.731
3.22,-257.634,-38.811
3.26,-258.897,-38.88
3.29,-260.231,-38.937
3.32,-261.143,-39.041
3.35,-262.091,-39.27
3.39,-263.249,-39.499
3.42,-264.091,-39.854
3.45,-265.25,-40.358
3.48,-266.653,-40.587
3.52,-268.163,-40.667
3.55,-269.531,-40.702
3.58,-270.9,-40.679
3.61,-271.988,-40.724
3.65,-273.146,-40.931
3.68,-274.304,-41.011
3.71,-275.146,-41.103
3.74,-275.743,-41.183
3.78,-276.375,-41.148
3.81,-276.62,-41.114
3.84,-276.796,-41.24
3.87,-277.112,-41.355
3.91,-277.603,-41.71
3.94,-278.165,-41.985
3.97,-278.902,-42.122
4.0,-279.568,-42.042
4.04,-280.481,-42.225
4.07,-281.148,-42.191
4.1,-281.429,-41.778
4.13,-281.499,-41.824
4.17,-281.92,-42.168
4.2,-282.341,-42.26
4.23,-282.552,-42.191
4.26,-282.657,-42.214
4.3,-282.762,-42.168
4.33,-282.587,-41.996
4.36,-282.201,-41.755
4.39,-281.744,-41.698
4.43,-281.218,-41.836
4.46,-280.937,-41.95
4.49,-280.621,-41.939
4.52,-280.235,-41.824
4.56,-279.498,-41.549
4.59,-278.621,-41.274
4.62,-277.638,-41.034
4.65,-276.585,-40.896
4.69,-275.427,-40.873
4.72,-274.374,-40.908
4.75,-273.532,-40.816
4.78,-272.444,-40.541
4.82,-271.286,-40.129
4.85,-269.672,-39.842
4.88,-267.987,-39.659
4.92,-266.583,-39.522
4.95,-265.32,-39.487
4.98,-264.091,-39.476
5.01,-263.074,-39.361
5.05,-262.056,-39.109
5.08,-260.722,-38.708
5.11,-259.143,-38.307
5.14,-257.458,-37.987
5.18,-255.739,-37.746
5.21,-253.984,-37.54
5.24,-252.264,-37.391
5.27,-250.615,-37.368
5.31,-249.281,-37.299
5.34,-247.878,-36.933
5.37,-246.123,-36.497
5.4,-244.579,-36.348
5.44,-243.069,-36.119
5.47,-241.385,-35.776
5.5,-239.49,-35.432
5.53,-237.665,-35.1
5.57,-235.664,-34.848
5.6,-233.699,-34.63
5.63,-231.769,-34.401
5.66,-229.944,-34.275
5.7,-228.259,-34.16
5.73,-226.715,-33.886
5.76,-224.995,-33.542
5.79,-223.381,-33.29
5.83,-221.696,-32.958
5.86,-219.907,-32.557
5.89,-217.871,-32.179
5.92,-215.836,-31.812
5.96,-213.73,-31.514
5.99,-211.554,-31.239
6.02,-209.308,-30.884
6.05,-207.132,-30.85
6.09,-205.132,-30.632
6.12,-203.307,-30.277
6.15,-201.236,-29.83
6.18,-198.955,-29.383
6.22,-196.954,-29.28
6.25,-195.164,-29.154
6.28,-193.41,-28.914
6.31,-191.69,-28.547
6.35,-189.935,-28.066
6.38,-187.724,-27.528
6.41,-185.373,-27.035
6.44,-182.776,-26.508
6.48,-179.968,-26.061
6.51,-177.266,-25.901
6.54,-174.704,-25.821
6.58,-172.282,-25.523
6.61,-169.685,-25.03
6.64,-167.053,-24.538
6.67,-164.456,-24.102
6.71,-161.684,-23.61
6.74,-158.841,-23.071
6.77,-155.998,-22.819
6.8,-153.366,-22.579
6.84,-150.523,-21.846
6.87,-147.505,-21.41
6.9,-144.487,-20.952
6.93,-141.644,-20.689
6.97,-138.907,-20.471
7.0,-136.169,-20.104
7.03,-133.572,-19.795
7.06,-131.081,-19.337
7.1,-128.519,-18.776
7.13,-125.676,-18.157
7.16,-122.588,-17.573
7.19,-119.254,-16.966
7.23,-115.779,-16.439
7.26,-112.34,-16.015
7.29,-109.076,-15.751
7.32,-105.882,-15.465
7.36,-102.864,-14.995
7.39,-99.706,-14.411
7.42,-96.301,-13.724
7.45,-92.757,-12.899
7.49,-88.966,-12.143
7.52,-84.86,-11.593
7.55,-80.965,-11.181
7.58,-77.104,-10.791
7.62,-73.384,-10.402
7.65,-69.945,-9.966
7.68,-66.646,-9.416
7.71,-63.136,-8.901
7.75,-59.943,-8.408
7.78,-56.819,-7.813
7.81,-53.45,-7.251
7.84,-50.186,-6.736
7.88,-46.992,-6.232
7.91,-43.658,-5.728
7.94,-40.184,-5.224
7.97,-36.85,-4.674
8.01,-33.411,-4.296
8.04,-31.235,-4.869
8.07,-31.235,-6.381
8.11,-30.708,-5.063
8.14,-26.813,-1.546
8.17,-21.408,-0.103
8.2,-15.898,0.023
8.24,-10.318,0.584
8.27,-3.334,1.42
8.3,1.544,1.799
8.33,1.685,3.013
8.37,4.001,3.906
8.4,6.247,4.113
8.43,9.37,5.04
8.46,14.249,5.67
8.5,19.864,5.338
8.53,25.093,4.96
8.56,30.006,4.88
8.59,34.428,4.766
8.63,38.008,4.342
8.66,39.903,3.941
8.69,40.675,3.929
8.72,41.447,4.628
8.76,42.535,5.865
8.79,44.29,7.286
8.82,47.519,8.683
8.85,51.59,9.817
8.89,56.433,10.562
8.92,61.592,10.837
8.95,66.119,10.871
8.98,70.19,10.745
9.02,73.7,10.551
9.05,76.262,10.608
9.08,78.262,11.135
9.11,80.649,11.902
9.15,83.105,12.739
9.18,85.632,13.712
9.21,89.107,14.571
9.24,92.897,15.224
9.28,96.687,15.694
9.31,100.618,15.946
9.34,104.163,16.129
9.37,107.286,16.439
9.41,110.62,16.737
9.44,113.744,17.115
9.47,116.2,17.676
9.5,119.183,18.237
9.54,122.202,18.661
9.57,124.869,19.429
9.6,128.168,20.139
9.63,131.923,20.7
9.67,135.257,21.273
9.7,138.942,21.617
9.73,142.276,21.697
9.77,144.768,21.857
9.8,147.365,22.258
9.83,150.208,22.671
9.86,152.524,23.175
9.9,155.121,23.805
9.93,158.104,24.343
9.96,160.912,24.881
9.99,163.824,25.351
10.03,166.983,25.615
10.06,169.65,25.786
10.09,172.177,26.107
10.12,174.985,26.508
10.16,177.617,27.161
10.19,180.319,27.883
10.22,183.688,28.364
10.25,186.636,28.662
10.29,189.339,28.914
10.32,192.216,28.96
10.35,194.287,28.971
10.38,195.937,29.28
10.42,197.937,29.647
10.45,199.692,29.933
10.48,200.955,30.266
10.51,202.605,30.54
10.55,204.008,30.678
10.58,205.307,31.045
10.61,207.097,31.491
10.64,208.957,31.801
10.68,210.606,32.087
10.71,212.572,32.396
10.74,214.748,32.774
10.77,216.818,33.118
10.81,219.029,33.221
10.84,220.995,33.278
10.87,222.574,33.519
10.9,224.434,33.771
10.94,226.259,33.977
10.97,227.487,34.286
11.0,229.312,34.882
11.03,231.628,35.363
11.07,233.559,35.524
11.1,235.454,35.558
11.13,237.349,35.627
11.16,238.963,35.948
11.2,240.543,36.234
11.23,242.332,36.303
11.26,243.771,36.658
11.29,245.421,37.105
11.33,247.316,37.253
11.36,248.72,37.322
11.39,250.159,37.62
11.43,251.808,37.906
11.46,253.352,38.136
11.49,254.791,38.433
11.52,256.651,38.708
11.56,258.301,38.926
11.59,259.705,38.949
11.62,261.038,38.88
11.65,261.986,38.914
11.69,262.933,39.132
11.72,264.021,39.327
11.75,265.004,39.636
11.78,266.092,40.094
11.82,267.496,40.381
11.85,268.829,40.45
11.88,269.952,40.553
11.91,271.216,40.61
11.95,272.198,40.679
11.98,273.181,40.873
12.01,274.339,41.034
12.04,275.357,41.148
12.08,276.199,41.286
12.11,276.901,41.32
12.14,277.638,41.286
12.17,277.884,41.24
12.21,278.165,41.286
12.24,278.621,41.446
12.27,279.077,41.733
12.3,279.533,41.801
12.34,279.955,41.824
12.37,280.235,41.733
12.4,280.621,41.801
12.43,281.042,41.927
12.47,281.218,41.87
12.5,281.499,41.973
12.53,281.92,42.076
12.56,282.271,42.191
12.6,282.552,42.099
12.63,282.552,41.859
12.66,282.201,41.595
12.69,281.569,41.366
12.73,280.797,41.297
12.76,280.095,41.549
12.79,279.779,41.881
12.82,279.779,42.076
12.86,279.919,42.122
12.89,280.165,42.007
12.92,280.095,41.721
12.96,279.674,41.389
12.99,278.937,41.022
13.02,278.13,40.908
13.05,277.182,40.816
13.09,275.954,40.61
13.12,274.515,40.312
13.15,272.795,40.037
13.18,271.075,39.831
13.22,269.145,39.579
13.25,267.11,39.396
13.28,265.39,39.304
13.31,263.6,39.304
13.35,262.231,39.293
13.38,261.214,39.052
13.41,259.74,38.674
13.44,258.301,38.307
13.48,256.932,37.964
13.51,255.353,37.735
13.54,253.844,37.586
13.57,252.44,37.391
13.61,250.826,37.219
13.64,249.281,37.047
13.67,247.948,36.772
13.7,246.333,36.555
13.74,244.719,36.2
13.77,242.999,35.821
13.8,241.069,35.478
13.83,239.244,35.295
13.87,237.56,35.18
13.9,235.594,34.848
13.93,233.488,34.435
13.96,231.628,34.172
14.0,229.803,34.069
14.03,227.979,34.012
14.06,226.54,33.794
14.09,225.066,33.439
14.13,223.311,33.129
14.16,221.732,32.832
14.19,219.942,32.316
14.22,217.871,31.961
14.26,215.906,31.904
14.29,213.976,31.709
14.32,212.045,31.48
14.35,210.326,31.228
14.39,208.571,30.953
14.42,206.711,30.632
14.45,204.745,30.174
14.48,202.57,29.635
14.52,200.148,29.212
14.55,197.797,28.971
14.58,195.551,28.799
14.62,193.234,28.582
14.65,191.164,28.433
14.68,189.339,28.135
14.71,187.268,27.7
14.75,185.127,27.218
14.78,182.916,26.783
14.81,180.46,26.313
14.84,178.003,25.924
14.88,175.581,25.649
14.91,172.914,25.317
14.94,170.282,24.813
14.97,167.545,24.354
15.01,164.632,23.931
15.04,161.684,23.53
15.07,158.771,23.106
15.1,155.893,22.842
15.14,153.191,22.567
15.17,150.594,22.178
15.2,147.856,21.582
15.23,145.119,21.227
15.27,142.381,20.7
15.3,139.468,20.139
15.33,136.485,19.795
15.36,133.607,19.44
15.4,130.87,19.165
15.43,128.098,18.695
15.46,125.185,18.146
15.49,122.237,17.55
15.53,119.113,16.977
15.56,115.919,16.45
15.59,112.55,15.992
15.62,109.322,15.637
15.66,106.198,15.213
15.69,103.004,14.663
15.72,99.53,14.067
15.75,95.845,13.414
15.79,92.125,12.761
15.82,88.124,12.166
15.85,84.229,11.708
15.88,80.544,11.318
15.92,77.069,10.894
15.95,73.56,10.447
15.98,70.155,10.001
16.01,66.962,9.497
16.05,63.733,8.924
16.08,60.609,8.374
16.11,57.381,7.79
16.14,54.152,7.286
16.18,50.748,6.816
16.21,47.484,6.369
16.24,44.29,5.854
16.28,41.061,5.396
16.31,37.868,4.811
16.34,34.464,4.491
16.37,32.358,5.132
16.41,32.323,6.621
16.44,31.972,5.384
16.47,28.252,1.879
16.5,22.952,0.206
16.54,17.021,-0.16
16.57,11.02,-0.928
16.6,3.369,-1.695
16.63,-1.404,-1.902
16.67,-1.509,-3.036
16.7,-3.755,-3.78
16.73,-5.685,-3.975
16.76,-8.388,-4.96
16.8,-12.95,-5.579
16.83,-18.671,-5.602
16.86,-24.496,-5.499
16.89,-29.971,-5.212
16.93,-34.639,-4.72
16.96,-38.113,-4.273
16.99,-40.114,-4.067
17.02,-41.026,-4.17
17.06,-41.763,-4.582
17.09,-42.921,-5.613
17.12,-44.571,-7.228
17.15,-47.554,-8.741
17.19,-51.695,-9.852
17.22,-56.328,-10.585
17.25,-61.311,-10.86
17.28,-65.979,-10.883
17.32,-70.05,-10.825
17.35,-73.524,-10.654
17.38,-76.157,-10.654
17.41,-78.262,-11.135
17.45,-80.649,-11.925
17.48,-83.351,-12.796
17.51,-86.089,-13.724
17.54,-89.282,-14.594
17.58,-93.037,-15.236
17.61,-96.722,-15.728
17.64,-100.583,-16.049
17.67,-104.443,-16.255
17.71,-107.707,-16.519
17.74,-110.796,-16.851
17.77,-113.989,-17.241
17.81,-116.586,-17.676
17.84,-119.324,-18.272
17.87,-122.377,-18.821
17.9,-125.255,-19.463
17.94,-128.273,-20.162
17.97,-131.853,-20.929
18.0,-135.432,-21.468
18.03,-138.942,-21.788
18.07,-142.592,-21.811
18.1,-145.189,-21.857
18.13,-147.681,-22.27
18.16,-150.453,-22.682
18.2,-152.664,-23.186
18.23,-154.945,-23.862
18.26,-157.999,-24.492
18.29,-161.052,-24.985
18.33,-163.86,-25.466
18.36,-166.948,-25.798
18.39,-169.72,-26.027
18.42,-172.282,-26.279
18.46,-175.125,-26.543
18.49,-177.722,-26.921
18.52,-180.038,-27.551
18.55,-182.776,-28.112
18.59,-185.548,-28.456
18.62,-187.97,-28.788
18.65,-190.637,-29.017
18.68,-193.059,-29.189
18.72,-194.989,-29.441
18.75,-197.06,-29.807
18.78,-199.06,-30.128
18.81,-200.815,-30.483
18.85,-202.745,-30.804
18.88,-204.781,-30.999
18.91,-206.29,-31.297
18.94,-208.08,-31.594
18.98,-209.869,-31.835
19.01,-211.519,-32.224
19.04,-213.484,-32.625
19.07,-215.73,-32.9
19.11,-217.59,-33.118
19.14,-219.31,-33.336
19.17,-221.205,-33.416
19.2,-222.749,-33.668
19.24,-224.539,-34.103
19.27,-226.505,-34.412
19.3,-228.259,-34.71
19.33,-229.979,-34.939
19.37,-231.839,-35.169
19.4,-233.418,-35.386
19.43,-234.892,-35.65
19.47,-236.682,-35.936
19.5,-238.367,-36.188
19.53,-240.086,-36.52
19.56,-242.017,-36.772
19.6,-243.771,-36.956
19.63,-245.456,-37.219
19.66,-247.351,-37.345
19.69,-248.86,-37.391
19.73,-250.089,-37.631
19.76,-251.668,-37.918
19.79,-253.107,-38.124
19.82,-254.3,-38.388
19.86,-255.949,-38.662
19.89,-257.494,-38.869
19.92,-258.687,-39.018
19.95,-260.056,-39.075
19.99,-261.179,-39.155
20.02,-262.161,-39.373
20.05,-263.39,-39.602
20.08,-264.513,-39.785
20.12,-265.53,-40.232
20.15,-266.724,-40.644
20.18,-268.268,-40.69
20.21,-269.566,-40.69
20.25,-270.83,-40.724
20.28,-271.988,-40.759
20.31,-272.971,-40.976
20.34,-274.023,-41.183
20.38,-275.076,-41.274
20.41,-275.778,-41.274
20.44,-276.445,-41.286
20.47,-276.971,-41.297
20.51,-277.252,-41.32
20.54,-277.498,-41.458
20.57,-278.024,-41.767
20.6,-278.621,-41.985
20.64,-279.323,-42.076
20.67,-279.849,-41.985
20.7,-280.551,-42.191
20.73,-281.148,-42.26
20.77,-281.569,-41.881
20.8,-281.639,-41.859
20.83,-281.955,-42.202
20.86,-282.306,-42.26
20.9,-282.411,-42.134
20.93,-282.446,-42.202
20.96,-282.446,-42.214
20.99,-282.376,-42.076
21.03,-281.99,-41.893
21.06,-281.429,-41.778
21.09,-281.042,-41.893
21.13,-280.937,-42.03
21.16,-280.656,-41.996
21.19,-280.305,-41.801
21.22,-279.639,-41.503
21.26,-278.656,-41.114
21.29,-277.357,-40.885
21.32,-276.199,-40.873
21.35,-275.111,-40.976
21.39,-274.164,-41.011
21.42,-273.357,-40.919
21.45,-272.304,-40.724
21.48,-271.216,-40.404
21.52,-269.952,-39.98
21.55,-268.408,-39.602
21.58,-266.689,-39.43
21.61,-265.179,-39.407
21.65,-263.811,-39.419
21.68,-262.653,-39.373
21.71,-261.53,-39.155
21.74,-260.196,-38.8
21.78,-258.617,-38.468
21.81,-257.248,-38.147
21.84,-255.704,-37.918
21.87,-254.124,-37.735
21.91,-252.721,-37.574
21.94,-251.176,-37.414
21.97,-249.562,-37.265
22.0,-248.123,-36.841
22.04,-246.158,-36.36
22.07,-244.298,-36.326
22.1,-242.859,-36.188
22.13,-241.245,-35.867
22.17,-239.349,-35.592
22.2,-237.7,-35.352
22.23,-236.086,-35.111
22.26,-234.261,-34.756
22.3,-232.401,-34.424
22.33,-230.54,-34.241
22.36,-228.575,-34.149
22.39,-226.891,-33.886
22.43,-225.171,-33.519
22.46,-223.311,-33.255
22.49,-221.626,-32.981
22.52,-219.801,-32.488
22.56,-217.59,-32.076
22.59,-215.485,-31.869
22.62,-213.519,-31.709
22.66,-211.378,-31.388
22.69,-209.308,-31.148
22.72,-207.729,-31.113
22.75,-206.009,-30.873
22.79,-204.114,-30.392
22.82,-202.254,-29.865
22.85,-200.008,-29.487
22.88,-197.797,-29.154
22.92,-195.691,-28.799
22.95,-193.34,-28.49
22.98,-191.093,-28.284
23.01,-189.058,-27.997
23.05,-186.636,-27.585
23.08,-184.18,-27.218
23.11,-181.863,-26.714
23.14,-179.372,-26.268
23.18,-176.845,-26.084
23.21,-174.739,-25.924
23.24,-172.528,-25.523
23.27,-169.931,-24.939
23.31,-167.229,-24.354
23.34,-164.456,-23.931
23.37,-161.473,-23.564
23.4,-158.701,-23.037
23.44,-155.998,-22.751
23.47,-153.296,-22.579
23.5,-150.558,-21.972
23.53,-147.54,-21.525
23.57,-144.452,-21.032
23.6,-141.714,-20.7
23.63,-138.942,-20.448
23.66,-136.134,-20.07
23.7,-133.572,-19.749
23.73,-131.151,-19.337
23.76,-128.413,-18.89
23.79,-125.536,-18.352
23.83,-122.552,-17.699
23.86,-119.359,-17.034
23.89,-116.06,-16.519
23.92,-112.656,-16.072
23.96,-109.322,-15.694
23.99,-106.058,-15.339
24.02,-102.829,-14.881
24.05,-99.495,-14.354
24.09,-95.95,-13.689
24.12,-92.441,-12.968
24.15,-88.651,-12.292
24.18,-84.72,-11.776
24.22,-80.859,-11.307
24.25,-77.104,-10.825
24.28,-73.454,-10.39
24.32,-70.015,-9.955
24.35,-66.646,-9.439
24.38,-63.312,-8.901
24.41,-59.978,-8.374
24.45,-56.644,-7.836
24.48,-53.275,-7.332
24.51,-50.011,-6.805
24.54,-46.782,-6.369
24.58,-43.623,-5.888
24.61,-40.395,-5.315
24.64,-37.096,-4.697
24.67,-33.937,-4.307
24.71,-31.866,-4.834
24.74,-31.726,-6.358
24.77,-31.129,-5.109
24.8,-27.129,-1.569
24.84,-21.584,-0.092
24.87,-15.793,0.08
24.9,-10.072,0.619
24.93,-3.229,1.237
24.97,1.263,1.329
25.0,1.018,2.44
25.03,2.948,3.574
25.06,5.545,3.872
25.1,8.423,4.903
25.13,13.301,6.083
25.16,19.513,6.037
25.19,25.549,5.396
25.23,30.673,4.96
25.26,35.06,4.857
25.29,38.71,4.651
25.32,40.956,4.284
25.36,41.728,4.055
25.39,42.079,4.582
25.42,43.027,5.762
25.45,44.746,7.217
25.49,47.624,8.729
25.52,51.625,9.943
25.55,56.328,10.699
25.58,61.522,11.078
25.62,66.295,11.043
25.65,70.331,10.86
25.68,73.805,10.677
25.71,76.472,10.677
25.75,78.473,11.089
25.78,80.473,11.845
25.81,83.035,12.796
25.84,85.913,13.792
25.88,89.142,14.709
25.91,92.932,15.419
25.94,96.793,15.877
25.98,100.758,16.084
26.01,104.584,16.244
26.04,107.707,16.565
26.07,110.62,16.897
26.11,113.919,17.241
26.14,116.551,17.619
26.17,118.938,18.272
26.2,121.745,18.947
26.24,124.834,19.715
26.27,127.957,20.311
26.3,131.572,20.929
26.33,135.327,21.502
26.37,138.802,21.834
26.4,142.416,21.926
26.43,145.259,21.995
26.46,147.575,22.338
26.5,150.278,22.751
26.53,152.805,23.209
26.56,155.051,23.896
26.59,157.999,24.641
26.63,161.122,25.156
26.66,163.614,25.603
26.69,166.457,25.958
26.72,169.37,26.233
26.76,171.861,26.588
26.79,174.704,27.035
26.82,177.652,27.47
26.85,180.319,27.917
26.89,183.267,28.364
26.92,186.25,28.605
26.95,188.567,28.742
26.98,190.742,28.96
27.02,192.989,29.212
27.05,194.814,29.567
27.08,196.744,30.025
27.11,199.06,30.392
27.15,200.885,30.667
27.18,202.64,30.987
27.21,204.43,31.102
27.24,205.869,31.205
27.28,207.237,31.537
27.31,209.097,31.938
27.34,210.887,32.35
27.37,212.782,32.763
27.41,214.853,33.118
27.44,216.994,33.439
27.47,218.959,33.576
27.51,220.995,33.611
27.54,222.609,33.771
27.57,224.258,34.138
27.6,226.224,34.481
27.64,227.943,34.664
27.67,229.593,35.111
27.7,231.734,35.512
27.73,233.629,35.627
27.77,235.208,35.753
27.8,237.033,36.039
27.83,238.858,36.28
27.86,240.332,36.555
27.9,242.262,36.933
27.93,244.157,37.288
27.96,245.877,37.54
27.99,247.632,37.666
28.03,249.106,37.654
28.06,250.229,37.735
28.09,251.773,38.09
28.12,253.423,38.514
28.16,254.932,38.88
28.19,256.581,39.075
28.22,258.125,39.109
28.25,259.319,39.155
28.29,260.512,39.235
28.32,261.6,39.304
28.35,262.442,39.487
28.38,263.425,39.819
28.42,264.583,40.14
28.45,265.811,40.472
28.48,267.145,40.724
28.51,268.584,40.759
28.55,269.637,40.805
28.58,270.76,40.896
28.61,271.953,40.942
28.64,272.83,41.148
28.68,273.813,41.458
28.71,275.006,41.538
28.74,275.778,41.595
28.77,276.515,41.652
28.81,277.182,41.629
28.84,277.533,41.549
28.87,277.744,41.595
28.9,278.13,41.847
28.94,278.586,42.134
28.97,279.112,42.225
29.0,279.709,42.248
29.03,280.095,42.156
29.07,280.446,42.271
29.1,280.972,42.397
29.13,281.358,42.317
29.17,281.779,42.454
29.2,282.271,42.638
29.23,282.903,42.706
29.26,283.218,42.615
29.3,283.359,42.443
29.33,283.183,42.225
29.36,282.587,41.996
29.39,281.885,41.881
29.43,281.323,42.03
29.46,280.867,42.271
29.49,280.656,42.512
29.52,280.621,42.477
29.56,280.341,42.156
29.59,279.744,41.836
29.62,278.972,41.538
29.65,278.024,41.332
29.69,276.971,41.217
29.72,275.989,41.206
29.75,275.392,41.572
29.78,275.533,42.225
29.82,276.129,42.477
29.85,276.726,42.134
29.88,276.831,41.549
29.91,276.234,41.08
29.95,275.357,40.633
29.98,273.883,40.094
30.01,271.812,39.636
30.04,269.215,39.304
30.08,266.408,39.063
30.11,263.6,38.937
30.14,261.073,38.903
30.17,258.722,38.892
30.21,256.651,38.857
30.24,255.107,38.685
30.27,253.773,38.353
30.3,251.843,37.826
30.34,249.878,37.116
30.37,247.667,36.406
30.4,244.965,36.108
30.43,242.683,36.062
30.47,240.543,35.925
30.5,238.437,35.844
30.53,236.647,35.776
30.56,235.454,35.684
30.6,234.05,35.501
30.63,232.892,35.203
30.66,231.734,34.722
30.69,230.049,34.218
30.73,228.084,33.84
30.76,226.118,33.45
30.79,223.943,33.129
30.83,221.767,32.866
30.86,219.38,32.522
30.89,216.959,32.373
30.92,214.923,32.328
30.96,213.203,32.202
30.99,211.343,31.984
31.02,209.729,31.778
31.05,208.36,31.297
31.09,206.5,30.735
31.12,204.324,30.151
31.15,201.938,29.658
31.18,199.411,29.383
31.22,196.919,29.28
31.25,194.778,29.223
31.28,192.848,29.154
31.31,190.988,28.857
31.35,189.163,28.307
31.38,186.987,27.711
31.41,184.496,27.264
31.44,182.179,26.817
31.48,179.582,26.439
31.51,177.09,26.29
31.54,175.02,26.176
31.57,172.633,25.706
31.61,169.861,25.042
31.64,167.123,24.515
31.67,164.281,24.125
31.7,161.473,23.736
31.74,158.56,23.278
31.77,155.647,22.934
31.8,152.769,22.671
31.83,149.892,22.212
31.87,146.979,21.628
31.9,143.925,21.204
31.93,141.118,20.895
31.96,138.556,20.505
32.0,135.818,20.059
32.03,132.941,19.658
32.06,130.344,19.303
32.09,127.466,18.695
32.13,124.307,18.008
32.16,121.008,17.344
32.19,117.534,16.817
32.22,112.726,15.098
32.26,106.233,12.933
32.29,98.828,11.845
32.32,92.406,12.235
32.36,87.668,13.3
32.39,84.193,14.022
32.42,82.053,14.285
32.45,80.894,13.747
32.49,80.017,13.014
32.52,78.964,12.2
32.55,77.701,11.192
32.58,75.595,9.978
32.62,72.401,9.027
32.65,68.857,8.534
32.68,65.242,8.397
32.71,61.768,8.282
32.75,58.609,8.294
32.78,55.801,8.317
32.81,53.415,8.214
32.84,51.379,7.767
32.88,49.168,7.091
32.91,46.571,6.197
32.94,43.553,5.338
32.97,40.009,4.491
33.01,36.324,4.078
33.04,33.762,4.674
33.07,33.34,6.392
33.1,33.34,6.106
33.14,29.901,2.291
33.17,23.795,-0.183
33.2,17.372,-0.412
33.23,11.336,-0.619
33.27,4.492,-1.157
33.3,-0.842,-1.18
33.33,-0.702,-1.925
33.36,-1.579,-2.933
33.4,-3.79,-3.082
33.43,-5.65,-3.792
33.46,-9.019,-5.407
33.49,-14.775,-6.22
33.53,-21.233,-5.98
33.56,-27.374,-5.522
33.59,-32.674,-4.972
33.62,-36.99,-4.605
33.66,-40.219,-4.365
33.69,-42.184,-4.147
33.72,-43.167,-4.181
33.75,-43.764,-4.914
33.79,-44.852,-6.369
33.82,-47.238,-8.042
33.85,-50.853,-9.485
33.88,-55.31,-10.505
33.92,-60.188,-11.135
33.95,-65.417,-11.364
33.98,-70.12,-11.249
34.02,-74.016,-11.009
34.05,-77.139,-10.791
34.08,-79.28,-10.974
34.11,-81.316,-11.559
34.15,-83.737,-12.361
34.18,-86.194,-13.254
34.21,-88.861,-14.159
34.24,-92.09,-14.904
34.28,-95.459,-15.408
34.31,-98.898,-15.786
34.34,-102.618,-16.164
34.37,-106.233,-16.519
34.41,-109.427,-16.908
34.44,-112.796,-17.241
34.47,-115.674,-17.481
34.5,-118.201,-17.905
34.54,-121.184,-18.478
34.57,-124.167,-19.005
34.6,-126.939,-19.635
34.63,-130.168,-20.379
34.67,-133.748,-21.032
34.7,-137.222,-21.548
34.73,-140.767,-21.766
34.76,-144.241,-21.949
34.8,-147.084,-22.327
34.83,-150.067,-22.762
34.86,-153.015,-23.129
34.89,-155.472,-23.667
34.93,-158.385,-24.217
34.96,-161.473,-24.618
34.99,-164.07,-24.996
35.02,-166.667,-25.431
35.06,-169.44,-25.775
35.09,-171.896,-26.107
35.12,-174.353,-26.531
35.15,-177.336,-27.012
35.19,-180.003,-27.528
35.22,-182.811,-28.043
35.25,-185.724,-28.364
35.28,-188.181,-28.536
35.32,-190.532,-28.742
35.35,-192.918,-28.914
35.38,-194.919,-29.2
35.41,-196.814,-29.727
35.45,-199.095,-30.128
35.48,-200.99,-30.392
35.51,-202.78,-30.701
35.54,-204.921,-30.93
35.58,-206.711,-31.056
35.61,-208.185,-31.319
35.64,-209.975,-31.675
35.68,-211.765,-32.03
35.71,-213.589,-32.408
35.74,-215.695,-32.717
35.77,-217.766,-32.935
35.81,-219.626,-33.313
35.84,-221.767,-33.542
35.87,-223.662,-33.714
35.9,-225.522,-34.034
35.94,-227.522,-34.275
35.97,-229.453,-34.47
36.0,-231.067,-34.779
36.03,-232.787,-34.974
36.07,-234.331,-34.974
36.1,-235.454,-35.134
36.13,-236.998,-35.524
36.16,-238.823,-35.959
36.2,-240.472,-36.348
36.23,-242.332,-36.772
36.26,-244.438,-37.082
36.29,-246.333,-37.208
36.33,-248.088,-37.185
36.36,-249.632,-37.127
36.39,-250.79,-37.253
36.42,-251.949,-37.517
36.46,-253.247,-37.803
36.49,-254.405,-38.113
36.52,-255.914,-38.594
36.55,-257.564,-38.846
36.59,-258.968,-38.846
36.62,-260.126,-38.892
36.65,-261.424,-39.018
36.68,-262.547,-39.167
36.72,-263.6,-39.373
36.75,-264.864,-39.59
36.78,-265.987,-39.934
36.81,-267.32,-40.209
36.85,-268.724,-40.266
36.88,-269.917,-40.312
36.91,-270.9,-40.404
36.94,-271.953,-40.461
36.98,-272.9,-40.702
37.01,-273.883,-40.976
37.04,-275.111,-41.091
37.07,-275.848,-41.045
37.11,-276.55,-41.148
37.14,-277.042,-40.965
37.17,-277.217,-40.908
37.21,-277.322,-41.148
37.24,-277.884,-41.4
37.27,-278.375,-41.584
37.3,-278.972,-41.755
37.34,-279.568,-41.904
37.37,-280.411,-41.973
37.4,-280.972,-41.859
37.43,-281.358,-41.675
37.47,-281.464,-41.492
37.5,-281.499,-41.607
37.53,-281.744,-41.755
37.56,-281.815,-41.778
37.6,-281.779,-41.813
37.63,-281.815,-41.79
37.66,-281.709,-41.687
37.69,-281.323,-41.526
37.73,-280.937,-41.549
37.76,-280.797,-41.755
37.79,-280.762,-41.847
37.82,-280.621,-41.755
37.86,-280.376,-41.538
37.89,-279.779,-41.263
37.92,-278.902,-40.954
37.95,-277.779,-40.644
37.99,-276.55,-40.576
38.02,-275.603,-40.724
38.05,-274.655,-40.793
38.08,-273.778,-40.656
38.12,-272.83,-40.438
38.15,-271.567,-40.163
38.18,-270.303,-39.785
38.21,-268.829,-39.43
38.25,-267.285,-39.338
38.28,-265.881,-39.361
38.31,-264.618,-39.247
38.34,-263.249,-39.109
38.38,-262.161,-38.972
38.41,-261.003,-38.594
38.44,-259.354,-38.17
38.47,-257.809,-37.883
38.51,-256.335,-37.723
38.54,-254.686,-37.62
38.57,-253.247,-37.517
38.6,-251.843,-37.322
38.64,-250.194,-37.082
38.67,-248.615,-36.726
38.7,-246.965,-36.257
38.73,-244.965,-35.913
38.77,-242.999,-35.73
38.8,-241.35,-35.569
38.83,-239.42,-35.466
38.87,-237.84,-35.432
38.9,-236.647,-35.272
38.93,-235.103,-34.894
38.96,-233.559,-34.458
39.0,-232.014,-34.206
39.03,-230.225,-33.84
39.06,-228.224,-33.427
39.09,-226.013,-33.026
39.13,-223.767,-32.717
39.16,-221.486,-32.499
39.19,-219.275,-32.27
39.22,-216.783,-31.927
39.26,-214.642,-31.812
39.29,-213.028,-31.835
39.32,-211.519,-31.652
39.35,-209.904,-31.354
39.39,-208.536,-30.964
39.42,-206.992,-30.437
39.45,-204.816,-29.865
39.48,-202.71,-29.269
39.52,-200.078,-28.765
39.55,-197.411,-28.559
39.58,-194.919,-28.547
39.61,-192.638,-28.501
39.65,-190.497,-28.33
39.68,-188.602,-28.055
39.71,-186.742,-27.654
39.74,-184.601,-27.264
39.78,-182.495,-26.749
39.81,-180.179,-26.164
39.84,-177.722,-25.786
39.87,-175.336,-25.534
39.91,-172.809,-25.191
39.94,-170.001,-24.755
39.97,-167.334,-24.332
40.0,-164.807,-23.919
40.04,-161.894,-23.553
40.07,-159.087,-23.083
40.1,-156.49,-22.842
40.13,-153.682,-22.579
40.17,-151.085,-22.121
40.2,-148.453,-21.559
40.23,-145.435,-20.952
40.26,-142.451,-20.517
40.3,-139.468,-20.024
40.33,-136.275,-19.635
40.36,-133.221,-19.406
40.39,-130.589,-19.119
40.43,-127.887,-18.65
40.46,-124.974,-18.111
40.49,-122.131,-17.447
40.53,-118.867,-16.84
40.56,-115.428,-16.416
40.59,-112.305,-15.969
40.62,-109.357,-15.534
40.66,-106.233,-15.121
40.69,-103.32,-14.629
40.72,-100.162,-14.033
40.75,-96.442,-13.38
40.79,-92.581,-12.67
40.82,-88.545,-11.994
40.85,-84.509,-11.501
40.88,-80.614,-11.181
40.92,-76.929,-10.883
40.95,-73.349,-10.585
40.98,-70.12,-10.138
41.01,-67.067,-9.439
41.05,-63.698,-8.798
41.08,-60.294,-8.259
41.11,-56.96,-7.767
41.14,-53.625,-7.332
41.18,-50.327,-6.839
41.21,-47.238,-6.323
41.24,-44.044,-5.819
41.27,-40.746,-5.258
41.31,-37.341,-4.628
41.34,-34.007,-4.273
41.37,-31.972,-4.926
41.4,-31.866,-6.472
41.44,-31.129,-5.006
41.47,-26.883,-1.363
41.5,-21.127,0.092
41.53,-15.161,0.172
41.57,-9.265,0.836
41.6,-1.86,1.501
41.63,1.579,1.776
41.66,1.474,2.967
41.7,3.685,3.528
41.73,5.58,3.769
41.76,8.493,4.88
41.79,13.301,5.774
41.83,19.162,5.567
41.86,24.637,5.052
41.89,29.655,4.823
41.92,34.183,4.8
41.96,37.903,4.662
41.99,40.5,4.365
42.02,41.763,4.147
42.06,42.465,4.617
42.09,43.553,5.728
42.12,45.343,7.08
42.15,48.08,8.5
42.19,51.871,9.68
42.22,56.398,10.505
42.25,61.206,10.906
42.28,65.944,10.952
42.32,69.98,10.871
42.35,73.244,10.78
42.38,76.016,10.906
42.41,78.543,11.272
42.45,80.789,11.971
42.48,83.456,12.876
42.51,86.545,13.724
42.54,89.703,14.388
42.58,93.037,14.949
42.61,96.617,15.396
42.64,100.021,15.786
42.67,103.461,16.255
42.71,106.83,16.691
42.74,109.743,17.057
42.77,112.866,17.573
42.8,116.235,18.054
42.84,119.359,18.466
42.87,122.377,18.799
42.9,125.536,19.303
42.93,128.554,19.818
42.97,131.677,20.471
43.0,135.187,21.067
43.03,138.24,21.456
43.06,141.223,21.8
43.1,144.276,22.086
43.13,147.014,22.545
43.16,149.786,23.06
43.19,152.769,23.518
43.23,155.542,23.919
43.26,158.525,24.389
43.29,161.578,24.813
43.32,164.281,25.202
43.36,166.878,25.58
43.39,169.685,25.901
43.42,172.177,26.199
43.45,174.669,26.646
43.49,177.441,27.161
43.52,180.074,27.677
43.55,182.706,28.204
43.58,185.759,28.559
43.62,188.461,28.765
43.65,190.707,28.96
43.68,192.989,29.097
43.72,194.954,29.292
43.75,196.638,29.704
43.78,198.569,30.151
43.81,200.464,30.506
43.85,202.078,30.919
43.88,204.008,31.171
43.91,205.869,31.308
43.94,207.553,31.537
43.98,209.589,31.904
44.01,211.589,32.213
44.04,213.449,32.522
44.07,215.485,32.82
44.11,217.555,33.141
44.14,219.38,33.336
44.17,221.17,33.45
44.2,222.96,33.576
44.24,224.434,33.943
44.27,226.154,34.344
44.3,228.049,34.584
44.33,229.628,34.848
44.37,231.418,35.283
44.4,233.383,35.455
44.43,235.103,35.638
44.46,237.033,35.982
44.5,239.034,36.177
44.53,240.613,36.337
44.56,242.332,36.669
44.59,244.298,37.07
44.63,246.158,37.368
44.66,248.018,37.586
44.69,249.843,37.62
44.72,251.141,37.586
44.76,252.335,37.872
44.79,253.984,38.262
44.82,255.283,38.536
44.85,256.546,38.743
44.89,257.915,38.869
44.92,259.073,38.937
44.95,260.091,39.075
44.98,261.214,39.224
45.02,262.196,39.419
45.05,263.214,39.693
45.08,264.478,39.9
45.11,265.741,40.152
45.15,267.075,40.484
45.18,268.549,40.576
45.21,269.777,40.61
45.24,270.9,40.736
45.28,272.163,40.805
45.31,273.111,40.942
45.34,274.129,41.206
45.38,275.111,41.4
45.41,276.059,41.4
45.44,276.62,41.389
45.47,277.322,41.423
45.51,277.708,41.389
45.54,277.954,41.458
45.57,278.41,41.618
45.6,279.042,41.87
45.64,279.533,41.985
45.67,280.025,42.099
45.7,280.586,41.996
45.73,280.832,41.962
45.77,281.288,42.099
45.8,281.674,42.065
45.83,281.955,42.202
45.86,282.376,42.397
45.9,282.867,42.454
45.93,283.218,42.282
45.96,283.183,42.099
45.99,283.043,41.985
46.03,282.657,41.824
46.06,281.955,41.767
46.09,281.569,41.95
46.12,281.323,42.179
46.16,281.113,42.237
46.19,280.832,42.134
46.22,280.516,41.881
46.25,279.99,41.492
46.29,278.902,41.171
46.32,278.059,41.229
46.35,277.673,41.755
46.38,277.779,42.156
46.42,277.884,41.893
46.45,277.287,41.125
46.48,275.883,40.289
46.51,273.743,39.659
46.55,271.251,39.155
46.58,268.303,38.869
46.61,265.53,38.892
46.64,262.933,39.029
46.68,260.652,39.212
46.71,259.143,39.327
46.74,258.231,39.086
46.77,256.862,38.788
46.81,255.739,38.514
46.84,254.897,37.987
46.87,253.387,37.322
46.91,251.352,36.91
46.94,249.597,36.738
46.97,247.737,36.589
47.0,245.772,36.406
47.04,244.087,36.222
47.07,242.157,36.131
47.1,240.508,36.085
47.13,239.244,35.787
47.17,237.77,35.547
47.2,236.612,35.638
47.23,235.699,35.432
47.26,234.436,34.768
47.3,232.506,34.195
47.33,230.751,33.931
47.36,228.891,33.748
47.39,226.82,33.45
47.43,224.855,33.084
47.46,222.784,32.843
47.49,220.538,32.74
47.52,218.573,32.442
47.56,216.537,32.121
47.59,214.397,31.995
47.62,212.747,31.778
47.65,210.852,31.342
47.69,208.746,31.079
47.72,207.132,30.884
47.75,205.623,30.621
47.78,203.693,30.105
47.82,201.657,29.762
47.85,199.657,29.349
47.88,197.27,29.04
47.91,195.129,28.845
47.95,193.199,28.696
47.98,191.269,28.478
48.01,189.479,28.158
48.04,187.584,27.688
48.08,185.443,27.379
48.11,183.127,26.886
48.14,180.705,26.245
48.17,177.933,25.935
48.21,175.511,25.924
48.24,173.265,25.512
48.27,170.387,24.904
48.3,167.509,24.538
48.34,165.088,24.332
48.37,162.315,23.77
48.4,159.262,23.243
48.43,156.454,22.877
48.47,153.577,22.419
48.5,150.769,22.235
48.53,148.418,22.063
48.57,145.961,21.617
48.6,143.188,21.032
48.63,140.591,20.414
48.66,137.608,19.807
48.7,134.344,19.394
48.73,131.361,19.062
48.76,128.308,18.604
48.79,124.974,18.146
48.83,121.851,17.584
48.86,118.587,17.023
48.89,115.007,16.576
48.92,111.673,16.152
48.96,108.62,15.694
48.99,105.321,15.259
49.02,102.162,14.709
49.05,98.863,14.045
49.09,95.108,13.495
49.12,91.599,12.991
49.15,88.159,12.429
49.18,84.65,11.96
49.22,81.491,11.673
49.25,78.613,11.352
49.28,75.63,10.917
49.31,72.682,10.402
49.35,69.734,9.76
49.38,66.505,8.993
49.41,62.961,8.271
49.44,59.311,7.606
49.48,55.45,7.217
49.51,51.695,6.908
49.54,48.291,6.507
49.57,45.027,5.991
49.61,41.833,5.544
49.64,38.605,5.029
49.67,35.376,4.754
49.7,33.305,5.384
49.74,33.27,6.61
49.77,32.603,5.098
49.8,28.568,1.569
49.83,22.672,-0.137
49.87,16.284,-0.55
49.9,9.827,-1.146
49.93,2.071,-1.546
49.96,-1.439,-1.753
50.0,-1.439,-3.047
50.03,-3.966,-3.803
50.06,-6.107,-4.296
50.09,-9.23,-5.384
50.13,-14.108,-5.716
50.16,-19.969,-5.854
50.19,-26.111,-5.842
50.23,-31.866,-5.396
50.26,-36.324,-4.72
50.29,-39.307,-4.101
50.32,-40.851,-3.757
50.36,-41.377,-3.861
50.39,-41.518,-4.479
50.42,-42.36,-5.854
50.45,-44.606,-7.675
50.49,-48.221,-9.336
50.52,-52.888,-10.505
50.55,-58.188,-11.123
50.58,-63.452,-11.112
50.62,-68.12,-10.803
50.65,-71.91,-10.459
50.68,-74.577,-10.276
50.71,-76.613,-10.459
50.75,-78.403,-11.009
50.78,-80.122,-11.856
50.81,-82.544,-12.979
50.84,-85.667,-14.067
50.88,-89.212,-14.858
50.91,-93.037,-15.408
50.94,-97.003,-15.683
50.97,-100.758,-15.786
51.01,-104.022,-15.797
51.04,-107.005,-16.049
51.07,-109.743,-16.553
51.1,-112.55,-17.321
51.14,-115.639,-17.882
51.17,-118.587,-18.478
51.2,-121.78,-19.108
51.23,-125.29,-19.566
51.27,-128.694,-20.07
51.3,-131.993,-20.597
51.33,-135.538,-21.067
51.36,-138.942,-21.491
51.4,-142.065,-21.72
51.43,-145.084,-21.914
51.46,-147.821,-22.304
51.49,-150.348,-22.888
51.53,-153.156,-23.438
51.56,-155.928,-23.976
51.59,-158.736,-24.503
51.62,-161.859,-24.904
51.66,-164.842,-25.156
51.69,-167.334,-25.477
51.72,-170.001,-25.855
51.76,-172.493,-26.187
51.79,-174.809,-26.634
51.82,-177.582,-27.207
51.85,-180.46,-27.78
51.89,-183.022,-28.387
51.92,-185.97,-28.765
51.95,-188.847,-28.845
51.98,-191.199,-28.983
52.02,-193.48,-29.223
52.05,-195.656,-29.406
52.08,-197.481,-29.727
52.11,-199.341,-30.128
52.15,-201.306,-30.437
52.18,-202.956,-30.724
52.21,-204.71,-30.987
52.24,-206.395,-31.148
52.28,-207.764,-31.388
52.31,-209.273,-31.766
52.34,-211.203,-32.202
52.37,-213.203,-32.648
52.41,-215.485,-33.049
52.44,-217.871,-33.198
52.47,-219.801,-33.255
52.5,-221.451,-33.359
52.54,-223.276,-33.507
52.57,-224.75,-33.794
52.6,-226.224,-34.195
52.63,-228.084,-34.596
52.67,-229.874,-34.825
52.7,-231.628,-35.157
52.73,-233.629,-35.466
52.76,-235.419,-35.615
52.8,-237.068,-35.764
52.83,-238.858,-35.902
52.86,-240.437,-36.165
52.89,-242.017,-36.497
52.93,-243.877,-36.784
52.96,-245.456,-37.001
52.99,-246.86,-37.185
53.02,-248.334,-37.334
53.06,-249.773,-37.574
53.09,-251.212,-37.975
53.12,-253.001,-38.284
53.15,-254.651,-38.491
53.19,-256.23,-38.766
53.22,-258.09,-38.995
53.25,-259.705,-38.995
53.28,-260.793,-39.075
53.32,-262.021,-39.086
53.35,-262.933,-38.972
53.38,-263.635,-39.304
53.42,-264.793,-39.797
53.45,-266.127,-40.117
53.48,-267.25,-40.358
53.51,-268.513,-40.553
53.55,-269.847,-40.541
53.58,-270.724,-40.541
53.61,-271.707,-40.724
53.64,-272.655,-40.976
53.68,-273.708,-41.183
53.71,-274.901,-41.274
53.74,-275.813,-41.206
53.77,-276.375,-41.217
53.81,-276.936,-41.297
53.84,-277.498,-41.297
53.87,-277.849,-41.366
53.9,-278.27,-41.755
53.94,-279.147,-41.985
53.97,-279.919,-42.019
54.0,-280.376,-42.007
54.03,-281.183,-42.168
54.07,-281.779,-42.122
54.1,-281.92,-41.687
54.13,-281.885,-41.607
54.16,-282.025,-41.973
54.2,-282.341,-42.26
54.23,-282.587,-42.202
54.26,-282.727,-42.122
54.29,-282.797,-42.099
54.33,-282.622,-41.939
54.36,-282.201,-41.629
54.39,-281.464,-41.538
54.42,-280.867,-41.721
54.46,-280.621,-41.87
54.49,-280.341,-41.847
54.52,-279.779,-41.744
54.55,-279.218,-41.446
54.59,-278.34,-41.08
54.62,-277.252,-40.816
54.65,-276.024,-40.713
54.68,-275.041,-40.805
54.72,-274.094,-40.919
54.75,-273.357,-40.816
54.78,-272.479,-40.53
54.81,-271.181,-40.198
54.85,-269.777,-39.842
54.88,-268.338,-39.476
54.91,-266.618,-39.27
54.94,-265.039,-39.361
54.98,-263.881,-39.384
55.01,-262.688,-39.315
55.04,-261.565,-39.155
55.08,-260.512,-38.64
55.11,-258.862,-38.078
55.14,-257.037,-37.826
55.17,-255.458,-37.666
55.21,-253.844,-37.586
55.24,-252.264,-37.494
55.27,-250.826,-37.311
55.3,-249.352,-37.047
55.34,-247.562,-36.784
55.37,-246.088,-36.452
55.4,-244.333,-36.074
55.43,-242.368,-35.856
55.47,-240.788,-35.695
55.5,-239.139,-35.455
55.53,-237.384,-35.283
55.56,-235.91,-35.1
55.6,-234.296,-34.733
55.63,-232.33,-34.332
55.66,-230.47,-34.046
55.69,-228.645,-33.84
55.73,-226.645,-33.645
55.76,-224.785,-33.359
55.79,-222.995,-33.084
55.82,-220.995,-32.935
55.86,-219.415,-32.728
55.89,-217.801,-32.27
55.92,-215.73,-31.904
55.95,-213.905,-31.652
55.99,-212.045,-31.319
56.02,-209.975,-31.045
56.05,-208.009,-30.804
56.08,-206.009,-30.38
56.12,-203.658,-29.945
56.15,-201.271,-29.567
56.18,-198.955,-29.2
56.21,-196.463,-28.937
56.25,-194.182,-28.879
56.28,-192.392,-28.662
56.31,-190.532,-28.49
56.34,-188.812,-28.169
56.38,-187.022,-27.596
56.41,-184.531,-26.875
56.44,-181.934,-26.52
56.47,-179.828,-26.382
56.51,-177.582,-26.038
56.54,-175.16,-25.821
56.57,-173.055,-25.512
56.61,-170.563,-25.03
56.64,-167.79,-24.492
56.67,-165.158,-23.976
56.7,-162.21,-23.45
56.74,-158.946,-23.014
56.77,-155.998,-22.728
56.8,-153.226,-22.51
56.83,-150.137,-21.926
56.87,-147.26,-21.502
56.9,-144.382,-20.952
56.93,-141.223,-20.586
56.96,-138.661,-20.391
57.0,-135.994,-19.944
57.03,-133.116,-19.669
57.06,-130.624,-19.257
57.09,-128.238,-18.638
57.13,-125.29,-18.031
57.16,-122.307,-17.458
57.19,-119.148,-16.863
57.22,-115.569,-16.37
57.26,-112.094,-15.992
57.29,-108.936,-15.648
57.32,-105.672,-15.282
57.35,-102.513,-14.858
57.39,-99.46,-14.251
57.42,-95.845,-13.609
57.45,-92.23,-12.991
57.48,-88.756,-12.303
57.52,-84.895,-11.708
57.55,-81.035,-11.181
57.58,-77.35,-10.642
57.61,-73.56,-10.195
57.65,-69.945,-9.863
57.68,-66.646,-9.348
57.71,-63.101,-8.752
57.74,-59.697,-8.317
57.78,-56.609,-7.893
57.81,-53.52,-7.458
57.84,-50.362,-6.931
57.87,-47.414,-6.369
57.91,-44.36,-5.762
57.94,-41.167,-5.292
57.97,-37.973,-4.731
58.0,-34.639,-4.387
58.04,-32.428,-4.972
58.07,-32.393,-6.518
58.1,-31.621,-5.098
58.13,-27.164,-1.283
58.17,-20.882,0.389
58.2,-14.494,0.515
58.23,-8.247,0.974
58.27,-1.018,1.409
58.3,1.614,1.959
58.33,1.965,3.345
58.36,4.422,3.723
58.4,6.107,4.009
58.43,9.3,5.258
58.46,14.389,5.945
58.49,20.145,5.499
58.53,25.514,5.029
58.56,30.498,4.903
58.59,34.85,4.788
58.62,38.254,4.365
58.66,40.009,3.918
58.69,40.57,3.906
58.72,41.167,4.662
58.75,42.43,6.037
58.79,44.781,7.687
58.82,48.361,9.164
58.85,52.888,10.31
58.88,58.118,10.929
58.92,63.347,11.078
58.95,68.015,10.86
58.98,71.875,10.551
59.01,74.683,10.356
59.05,76.788,10.505
59.08,78.683,11.032
59.11,80.438,11.627
59.14,82.193,12.624
59.18,84.895,13.861
59.21,88.44,14.972
59.24,92.441,15.66
59.27,96.512,15.969
59.31,100.407,15.935
59.34,103.777,15.98
59.37,106.97,16.278
59.4,109.778,16.588
59.44,112.375,17.149
59.47,115.147,17.733
59.5,118.06,18.363
59.53,120.973,19.039
59.57,124.448,19.784
59.6,128.027,20.322
59.63,131.642,20.838
59.66,135.397,21.33
59.7,138.942,21.582
59.73,141.96,21.685
59.76,144.733,21.766
59.79,147.119,22.086
59.83,149.295,22.625
59.86,151.787,23.243
59.89,154.63,23.805
59.93,157.191,24.458
59.96,160.175,25.088
59.99,163.368,25.592
60.02,166.492,25.912
60.06,169.51,26.119
60.09,172.353,26.29
60.12,174.95,26.6
60.15,177.582,27.115
60.19,180.389,27.574
60.22,182.916,27.997
60.25,185.513,28.478
60.28,188.005,28.799
60.32,190.286,29.04
60.35,192.497,29.292
60.38,194.778,29.635
60.41,196.884,30.071
60.45,198.92,30.483
60.48,201.236,30.724
60.51,203.131,30.873
60.54,204.745,30.976
60.58,206.325,31.113
60.61,207.764,31.434
60.64,209.378,31.95
60.67,211.203,32.396
60.71,213.203,32.774
60.74,215.239,33.221
60.77,217.696,33.588
60.8,219.801,33.668
60.84,221.661,33.702
60.87,223.521,33.851
60.9,225.136,34.092
60.93,226.855,34.401
60.97,228.68,34.573
61.0,230.365,34.997
61.03,232.05,35.512
61.06,234.12,35.707
61.1,235.699,35.638
61.13,236.893,35.73
61.16,238.612,36.188
61.19,240.402,36.578
61.23,242.017,36.979
61.26,243.842,37.265
61.29,245.702,37.437
61.32,247.316,37.517
61.36,248.965,37.609
61.39,250.545,37.803
61.42,251.949,38.055
61.46,253.387,38.296
61.49,254.897,38.525
61.52,256.195,38.846
61.55,257.739,39.212
61.59,259.389,39.235
61.62,260.512,39.189
61.65,261.6,39.373
61.68,262.758,39.51
61.72,263.776,39.682
61.75,264.899,40.072
61.78,266.267,40.438
61.81,267.706,40.679
61.85,269.04,40.77
61.88,270.374,40.724
61.91,271.356,40.759
61.94,272.339,40.896
61.98,273.286,41.045
62.01,274.234,41.332
62.04,275.076,41.595
62.07,276.059,41.652
62.11,276.796,41.595
62.14,277.322,41.629
62.17,277.744,41.526
62.2,277.954,41.458
62.24,278.13,41.744
62.27,278.656,42.065
62.3,279.147,42.122
62.33,279.604,42.237
62.37,280.06,42.26
62.4,280.516,42.191
62.43,281.183,42.534
62.46,281.604,42.282
62.5,282.025,42.305
62.53,282.481,42.649
62.56,283.008,42.5
62.59,283.043,42.237
62.63,282.903,42.248
62.66,282.762,42.202
62.69,282.201,41.95
62.72,281.534,41.893
62.76,281.148,42.248
62.79,281.042,42.466
62.82,280.937,42.386
62.85,280.621,42.214
62.89,280.235,41.962
62.92,279.674,41.595
62.95,278.656,41.24
62.98,277.428,41.057
63.02,276.375,41.24
63.05,275.673,41.423
63.08,274.866,41.332
63.12,273.953,40.942
63.15,272.585,40.484
63.18,270.865,40.083
63.21,269.005,39.648
63.25,266.934,39.384
63.28,264.758,39.338
63.31,262.968,39.304
63.34,261.319,39.281
63.38,259.88,39.315
63.41,258.862,39.155
63.44,257.739,38.754
63.47,256.3,38.388
63.51,255.142,38.032
63.54,253.879,37.631
63.57,252.124,37.391
63.6,250.51,37.299
63.64,248.895,37.196
63.67,247.246,37.059
63.7,245.807,36.818
63.73,244.403,36.532
63.77,242.754,36.314
63.8,241.174,35.97
63.83,239.56,35.627
63.86,237.77,35.558
63.9,236.191,35.352
63.93,234.506,34.836
63.96,232.365,34.424
63.99,230.4,34.286
64.03,228.68,34.023
64.06,226.61,33.817
64.09,224.644,33.633
64.12,222.96,33.37
64.16,221.135,33.233
64.19,219.521,33.084
64.22,218.117,32.66
64.25,216.222,32.224
64.29,214.362,31.984
64.32,212.888,31.709
64.35,210.992,31.377
64.38,208.992,31.113
64.42,207.097,30.735
64.45,204.816,30.311
64.48,202.429,29.979
64.51,200.253,29.647
64.55,197.867,29.315
64.58,195.515,29.131
64.61,193.585,28.902
64.64,191.585,28.673
64.68,189.514,28.398
64.71,187.584,27.894
64.74,185.443,27.333
64.78,182.811,26.863
64.81,180.354,26.336
64.84,177.617,25.958
64.87,174.774,25.809
64.91,172.423,25.603
64.94,169.791,25.122
64.97,166.983,24.675
65.0,164.421,24.274
65.04,161.789,23.816
65.07,158.841,23.358
65.1,156.104,22.957
65.13,153.542,22.499
65.17,150.383,22.018
65.2,147.26,21.399
65.23,144.312,21.09
65.26,141.153,20.849
65.3,138.345,20.494
65.33,135.959,20.196
65.36,133.186,19.864
65.39,130.94,19.6
65.43,128.729,18.993
65.46,125.851,18.272
65.49,122.728,17.573
65.52,119.64,16.954
65.56,116.2,16.45
65.59,112.621,16.129
65.62,109.357,15.82
65.65,106.093,15.465
65.69,102.899,15.064
65.72,99.916,14.423
65.75,96.407,13.689
65.78,92.616,13.071
65.82,89.037,12.475
65.85,85.281,11.914
65.88,81.526,11.467
65.91,78.192,10.974
65.95,74.507,10.447
65.98,70.717,10.001
66.01,67.418,9.531
66.04,63.979,9.004
66.08,60.539,8.557
66.11,57.381,8.007
66.14,54.152,7.389
66.17,50.677,6.896
66.21,47.414,6.461
66.24,44.255,5.877
66.27,40.816,5.315
66.31,37.411,4.72
66.34,34.218,4.422
66.37,32.253,5.166
66.4,32.253,6.495
66.44,31.586,4.846
66.47,27.55,1.455
66.5,22.215,0.034
66.53,16.495,-0.344
66.57,10.493,-1.042
66.6,2.983,-1.615
66.63,-1.369,-1.787
66.66,-1.614,-3.036
66.7,-4.036,-3.861
66.73,-6.177,-4.113
66.76,-9.3,-4.96
66.79,-13.722,-5.304
66.83,-19.197,-5.407
66.86,-24.918,-5.43
66.89,-30.252,-5.063
66.92,-34.569,-4.513
66.96,-37.762,-4.09
66.99,-39.763,-3.838
67.02,-40.64,-3.883
67.05,-41.132,-4.513
67.09,-42.079,-5.762
67.12,-44.185,-7.366
67.15,-47.589,-8.855
67.18,-51.871,-9.978
67.22,-56.749,-10.631
67.25,-61.697,-10.825
67.28,-66.365,-10.757
67.31,-70.436,-10.585
67.35,-73.77,-10.47
67.38,-76.297,-10.619
67.41,-78.473,-11.158
67.44,-80.684,-11.948
67.48,-83.316,-12.853
67.51,-86.44,-13.804
67.54,-89.879,-14.583
67.57,-93.529,-15.133
67.61,-97.144,-15.465
67.64,-100.723,-15.751
67.67,-104.163,-16.164
67.7,-107.637,-16.496
67.74,-110.901,-16.805
67.77,-113.884,-17.264
67.8,-116.797,-17.802
67.83,-119.745,-18.352
67.87,-122.693,-18.89
67.9,-125.851,-19.44
67.93,-129.221,-20.024
67.97,-132.66,-20.689
68.0,-136.345,-21.342
68.03,-139.854,-21.559
68.06,-142.767,-21.571
68.1,-145.119,-21.456
68.13,-147.505,-21.857
68.16,-149.927,-22.613
68.19,-152.489,-23.312
68.23,-155.296,-23.976
68.26,-158.279,-24.561
68.29,-161.508,-25.03
68.32,-164.772,-25.282
68.36,-167.65,-25.477
68.39,-170.352,-25.695
68.42,-172.844,-25.935
68.45,-175.055,-26.222
68.49,-177.371,-26.726
68.52,-180.038,-27.356
68.55,-182.706,-28.02
68.58,-185.548,-28.582
68.62,-188.391,-28.868
68.65,-190.988,-28.948
68.68,-193.34,-29.074
68.71,-195.621,-29.269
68.75,-197.621,-29.567
68.78,-199.376,-29.888
68.81,-201.236,-30.185
68.84,-202.85,-30.437
68.88,-204.359,-30.793
68.91,-206.29,-31.125
68.94,-208.15,-31.377
68.97,-209.799,-31.663
69.01,-211.729,-32.018
69.04,-213.66,-32.35
69.07,-215.695,-32.694
69.1,-217.801,-32.935
69.14,-219.696,-33.107
69.17,-221.521,-33.324
69.2,-223.381,-33.542
69.23,-225.241,-33.782
69.27,-226.82,-34.092
69.3,-228.716,-34.424
69.33,-230.47,-34.573
69.36,-232.05,-34.894
69.4,-233.699,-35.111
69.43,-235.349,-35.226
69.46,-236.893,-35.592
69.49,-238.612,-35.902
69.53,-240.402,-36.085
69.56,-241.982,-36.383
69.59,-243.842,-36.795
69.63,-245.772,-37.036
69.66,-247.386,-37.127
69.69,-249.001,-37.242
69.72,-250.545,-37.357
69.76,-251.843,-37.597
69.79,-253.387,-37.906
69.82,-254.967,-38.136
69.85,-256.371,-38.433
69.89,-257.809,-38.662
69.92,-259.178,-38.685
69.95,-260.301,-38.777
69.98,-261.459,-38.972
70.02,-262.688,-39.132
70.05,-263.776,-39.304
70.08,-264.864,-39.659
70.11,-266.302,-40.026
70.15,-267.706,-40.198
70.18,-269.075,-40.312
70.21,-270.374,-40.266
70.24,-271.391,-40.266
70.28,-272.269,-40.45
70.31,-273.357,-40.644
70.34,-274.304,-40.793
70.37,-275.111,-40.999
70.41,-275.954,-41.011
70.44,-276.62,-40.965
70.47,-277.077,-41.034
70.5,-277.533,-41.034
70.54,-277.744,-41.103
70.57,-278.024,-41.469
70.6,-278.551,-41.744
70.63,-279.358,-41.778
70.67,-279.884,-41.698
70.7,-280.621,-41.904
70.73,-281.323,-41.87
70.76,-281.639,-41.481
70.8,-281.674,-41.492
70.83,-281.885,-41.778
70.86,-282.13,-41.904
70.89,-282.236,-41.836
70.93,-282.376,-41.87
70.96,-282.446,-41.927
70.99,-282.411,-41.778
71.02,-282.201,-41.515
71.06,-281.709,-41.446
71.09,-281.323,-41.538
71.12,-281.113,-41.595
71.16,-280.727,-41.572
71.19,-280.235,-41.503
71.22,-279.604,-41.251
71.25,-278.691,-40.896
71.29,-277.603,-40.633
71.32,-276.305,-40.53
71.35,-275.322,-40.61
71.38,-274.374,-40.679
71.42,-273.392,-40.621
71.45,-272.549,-40.346
71.48,-271.356,-39.945
71.51,-269.777,-39.59
71.55,-268.303,-39.247
71.58,-266.724,-39.121
71.61,-265.179,-39.189
71.64,-264.162,-39.178
71.68,-263.074,-39.063
71.71,-261.74,-38.972
71.74,-260.722,-38.605
71.77,-259.283,-38.021
71.81,-257.564,-37.643
71.84,-255.739,-37.563
71.87,-254.44,-37.414
71.9,-252.826,-37.116
71.94,-251.106,-37.001
71.97,-249.632,-36.864
72.0,-247.807,-36.566
72.03,-246.193,-36.222
72.07,-244.684,-36.142
72.1,-243.14,-35.936
72.13,-241.525,-35.592
72.16,-239.841,-35.123
72.2,-237.77,-34.836
72.23,-235.91,-34.733
72.26,-234.19,-34.424
72.29,-232.12,-34.023
72.33,-229.979,-33.943
72.36,-228.645,-33.931
72.39,-226.961,-33.656
72.42,-225.171,-33.359
72.46,-223.697,-33.118
72.49,-222.012,-32.671
72.52,-219.942,-32.362
72.55,-218.152,-31.915
72.59,-215.906,-31.423
72.62,-213.695,-31.354
72.65,-211.905,-31.274
72.68,-209.94,-31.01
72.72,-207.869,-30.804
72.75,-206.114,-30.518
72.78,-204.254,-30.036
72.82,-202.078,-29.613
72.85,-200.008,-29.189
72.88,-197.797,-28.799
72.91,-195.305,-28.582
72.95,-193.234,-28.41
72.98,-191.164,-28.135
73.01,-188.988,-27.826
73.04,-186.952,-27.425
73.08,-184.811,-26.898
73.11,-182.074,-26.405
73.14,-179.442,-25.993
73.17,-176.915,-25.672
73.21,-174.283,-25.534
73.24,-171.967,-25.282
73.27,-169.685,-24.813
73.3,-166.808,-24.366
73.34,-164.246,-23.976
73.37,-161.824,-23.404
73.4,-158.946,-22.854
73.43,-156.104,-22.59
73.47,-153.682,-22.396
73.5,-150.804,-21.983
73.53,-147.961,-21.559
73.56,-145.189,-20.883
73.6,-142.065,-20.448
73.63,-139.117,-20.104
73.66,-136.38,-19.589
73.69,-133.467,-19.326
73.73,-130.589,-19.039
73.76,-128.168,-18.604
73.79,-125.325,-18.054
73.82,-122.237,-17.504
73.86,-119.254,-16.851
73.89,-115.814,-16.267
73.92,-112.27,-15.946
73.95,-109.251,-15.637
73.99,-106.128,-15.167
74.02,-102.864,-14.652
74.05,-99.811,-13.999
74.08,-96.407,-13.243
74.12,-92.371,-12.635
74.15,-88.545,-12.109
74.18,-84.825,-11.593
74.21,-80.824,-11.169
74.25,-77.245,-10.722
74.28,-73.595,-10.23
74.31,-69.804,-9.829
74.34,-66.435,-9.359
74.38,-63.066,-8.741
74.41,-59.416,-8.271
74.44,-56.293,-7.881
74.48,-53.345,-7.286
74.51,-50.011,-6.679
74.54,-46.817,-6.186
74.57,-43.694,-5.659
74.61,-40.254,-5.212
74.64,-36.99,-4.708
74.67,-33.797,-4.342
74.7,-31.796,-5.029
74.74,-31.761,-6.564
74.77,-31.165,-4.914
74.8,-26.743,-1.26
74.83,-20.811,0.08
74.87,-14.951,0.229
74.9,-9.055,0.882
74.93,-1.895,1.398
74.96,1.439,1.546
75.0,1.299,2.795
75.03,3.79,3.666
75.06,6.107,4.009
75.09,9.055,5.075
75.13,14.003,5.934
75.16,19.864,5.682
75.19,25.409,5.086
75.22,30.287,4.8
75.26,34.604,4.674
75.29,38.043,4.399
75.32,40.149,3.929
75.35,40.605,3.677
75.39,40.781,4.273
75.42,41.763,5.636
75.45,43.764,7.32
75.48,47.028,8.844
75.52,51.239,9.978
75.55,56.152,10.699
75.58,61.452,10.974
75.61,66.365,10.917
75.65,70.576,10.745
75.68,73.911,10.596
75.71,76.402,10.699
75.74,78.648,11.238
75.78,80.965,12.04
75.81,83.702,12.865
75.84,86.545,13.758
75.87,89.774,14.583
75.91,93.423,15.305
75.94,97.284,15.728
75.97,101.074,15.9
76.01,104.408,16.129
76.04,107.637,16.439
76.07,110.655,16.828
76.1,113.603,17.298
76.14,116.341,17.825
76.17,119.254,18.329
76.2,122.202,18.867
76.23,125.22,19.429
76.27,128.378,20.059
76.3,131.607,20.574
76.33,134.871,21.055
76.36,138.275,21.468
76.4,141.434,21.754
76.43,144.347,22.063
76.46,147.189,22.373
76.49,149.892,22.854
76.53,152.524,23.369
76.56,155.367,23.862
76.59,158.244,24.389
76.62,161.227,24.881
76.66,164.14,25.271
76.69,166.983,25.569
76.72,169.615,25.844
76.75,172.142,26.142
76.79,174.669,26.565
76.82,177.301,27.173
76.85,180.214,27.734
76.88,182.986,28.169
76.92,185.583,28.547
76.95,188.356,28.765
76.98,190.778,28.902
77.01,192.953,29.131
77.05,195.094,29.429
77.08,196.954,29.784
77.11,198.744,30.185
77.14,200.78,30.598
77.18,202.815,30.907
77.21,204.465,31.113
77.24,206.255,31.297
77.27,208.009,31.537
77.31,209.834,31.995
77.34,211.87,32.442
77.37,214.046,32.694
77.4,216.011,32.981
77.44,218.047,33.278
77.47,219.977,33.301
77.5,221.486,33.359
77.53,223.065,33.645
77.57,224.89,34.023
77.6,226.434,34.47
77.63,228.329,34.745
77.67,230.4,35.134
77.7,232.471,35.455
77.73,234.366,35.592
77.76,236.05,35.478
77.8,237.384,35.478
77.83,238.823,35.925
77.86,240.613,36.28
77.89,242.017,36.543
77.93,243.456,36.921
77.96,245.28,37.357
77.99,247.105,37.54
78.02,248.685,37.62
78.06,250.404,37.792
78.09,252.054,38.067
78.12,253.598,38.307
78.15,255.283,38.445
78.19,256.721,38.651
78.22,258.09,38.96
78.25,259.564,39.041
78.28,260.687,39.041
78.32,261.67,39.247
78.35,262.898,39.453
78.38,263.951,39.613
78.41,265.004,40.003
78.45,266.443,40.358
78.48,267.917,40.53
78.51,269.18,40.61
78.54,270.338,40.644
78.58,271.356,40.667
78.61,272.234,40.805
78.64,273.286,40.988
78.67,274.269,41.194
78.71,275.146,41.412
78.74,276.024,41.458
78.77,276.62,41.366
78.8,277.042,41.423
78.84,277.498,41.412
78.87,277.919,41.366
78.9,278.2,41.664
78.93,278.796,42.019
78.97,279.463,42.088
79.0,280.06,42.088
79.03,280.586,42.145
79.06,281.358,42.351
79.1,281.92,42.34
79.13,282.095,41.859
79.16,282.341,42.088
79.19,282.692,42.454
79.23,282.867,42.202
79.26,282.762,42.019
79.29,282.657,42.156
79.33,282.587,42.191
79.36,282.271,41.962
79.39,281.779,41.939
79.42,281.639,42.111
79.46,281.499,42.248
79.49,281.323,42.156
79.52,281.078,41.927
79.55,280.481,41.664
79.59,279.568,41.332
79.62,278.481,41.022
79.65,277.077,40.919
79.68,275.989,41.045
79.72,275.006,41.125
79.75,273.953,41.011
79.78,273.076,40.77
79.81,271.988,40.381
79.85,270.303,39.911
79.88,268.443,39.476
79.91,266.583,39.189
79.94,264.618,39.201
79.98,263.109,39.281
80.01,261.74,39.212
80.04,260.406,39.132
80.07,259.213,38.937
80.11,258.231,38.617
80.14,256.897,38.342
80.17,255.598,38.124
80.2,254.335,37.78
80.24,252.861,37.448
80.27,251.387,37.265
80.3,249.983,37.105
80.33,248.369,36.841
80.37,246.509,36.532
80.4,244.894,36.28
80.43,243.105,36.177
80.46,241.209,35.925
80.5,239.7,35.65
80.53,238.051,35.443
80.56,236.191,35.146
80.59,234.401,34.687
80.63,232.33,34.286
80.66,230.154,34.046
80.69,228.259,33.84
80.72,226.329,33.771
80.76,224.504,33.691
80.79,223.135,33.496
80.82,221.837,33.221
80.86,220.222,32.9
80.89,218.678,32.488
80.92,216.959,32.018
80.95,214.888,31.686
80.99,212.923,31.411
81.02,210.887,31.113
81.05,208.641,30.896
81.08,206.57,30.644
81.12,204.43,30.174
81.15,201.833,29.75
81.18,199.551,29.452
81.21,197.446,29.177
81.25,195.2,29.051
81.28,193.304,28.868
81.31,191.62,28.501
81.34,189.549,28.112
81.38,187.408,27.654
81.41,185.233,27.069
81.44,182.6,26.6
81.47,179.968,26.29
81.51,177.441,26.05
81.54,174.774,25.855
81.57,172.423,25.615
81.6,170.212,25.145
81.64,167.474,24.652
81.67,164.772,24.183
81.7,162.175,23.644
81.73,159.262,23.175
81.77,156.314,22.934
81.8,153.787,22.579
81.83,150.909,22.144
81.86,147.821,21.571
81.9,145.049,21.216
81.93,142.03,20.643
81.96,138.696,20.139
81.99,135.889,19.852
82.03,133.046,19.566
82.06,130.344,19.417
82.09,128.062,19.005
82.12,125.5,18.363
82.16,122.412,17.79
82.19,119.71,17.241
82.22,116.727,16.588
82.25,113.252,16.061
82.29,110.023,15.671
82.32,106.76,15.213
82.35,103.11,14.709
82.38,99.67,14.171
82.42,96.161,13.54
82.45,92.195,13.002
82.48,88.51,12.487
82.52,85.036,11.879
82.55,81.245,11.444
82.58,77.806,11.032
82.61,74.577,10.459
82.65,70.822,9.909
82.68,67.207,9.439
82.71,63.943,8.867
82.74,60.364,8.317
82.78,56.889,7.813
82.81,53.731,7.263
82.84,50.291,6.862
82.87,47.449,6.873
82.91,45.589,6.896
82.94,43.518,6.61
82.97,41.377,5.911
83.0,39.236,5.224
83.04,37.552,5.373
83.07,37.411,6.69
83.1,37.236,5.888
83.13,32.919,1.707
83.17,25.444,-1.088
83.2,17.267,-1.546
83.23,8.949,-1.959
83.26,0.246,-2.36
83.3,-2.281,-3.46
83.33,-4.211,-4.731
83.36,-6.282,-4.571
83.39,-8.739,-5.659
83.43,-14.424,-7.102
83.46,-20.636,-6.369
83.49,-26.006,-5.109
83.52,-30.638,-4.995
83.56,-35.271,-5.201
83.59,-38.464,-4.433
83.62,-39.552,-3.23
83.65,-39.096,-2.864
83.69,-38.64,-3.849
83.72,-39.131,-5.567
83.75,-41.342,-7.423
83.78,-44.887,-8.981
83.82,-49.484,-10.115
83.85,-54.819,-10.848
83.88,-60.609,-11.055
83.91,-65.909,-10.803
83.95,-70.226,-10.47
83.98,-73.349,-10.173
84.01,-75.525,-10.138
84.04,-77.28,-10.585
84.08,-79.07,-11.444
84.11,-81.105,-12.578
84.14,-84.123,-13.747
84.18,-87.878,-14.732
84.21,-91.914,-15.419
84.24,-96.231,-15.671
84.27,-100.092,-15.717
84.31,-103.566,-15.9
84.34,-107.005,-16.152
84.37,-110.094,-16.427
84.4,-112.585,-16.897
84.44,-115.288,-17.516
84.47,-117.99,-18.054
84.5,-120.657,-18.604
84.53,-123.465,-19.222
84.57,-126.624,-19.978
84.6,-130.344,-20.689
84.63,-133.994,-21.147
84.66,-137.573,-21.445
84.7,-140.907,-21.708
84.73,-143.961,-21.846
84.76,-146.663,-22.006
84.79,-149.12,-22.235
84.83,-151.471,-22.751
84.86,-154.068,-23.564
84.89,-156.946,-24.389
84.92,-160.104,-25.019
84.96,-163.368,-25.397
84.99,-166.492,-25.592
85.02,-169.405,-25.741
85.05,-172.072,-25.912
85.09,-174.529,-26.245
85.12,-176.915,-26.68
85.15,-179.337,-27.241
85.18,-182.004,-27.791
85.22,-184.706,-28.307
85.25,-187.408,-28.753
85.28,-190.041,-29.051
85.31,-192.567,-29.189
85.35,-194.814,-29.452
85.38,-197.235,-29.807
85.41,-199.376,-30.14
85.44,-201.411,-30.403
85.48,-203.342,-30.621
85.51,-205.132,-30.815
85.54,-206.781,-31.079
85.57,-208.255,-31.297
85.61,-207.869,-29.739
85.64,-204.465,-27.367
85.67,-200.429,-27.012
85.71,-197.305,-28.1
85.74,-195.656,-29.647
85.77,-195.515,-31.319
85.8,-197.235,-32.499
85.84,-200.92,-33.565
85.87,-206.044,-34.424
85.9,-211.659,-34.664
85.93,-217.485,-34.55
85.97,-223.276,-34.493
86.0,-228.435,-34.493
86.03,-232.225,-34.298
86.06,-234.682,-33.84
86.1,-236.261,-33.336
86.13,-236.647,-33.633
86.16,-236.963,-34.733
86.19,-238.191,-35.787
86.23,-239.981,-36.704
86.26,-242.227,-37.677
86.29,-245.245,-38.25
86.32,-248.088,-38.09
86.36,-250.334,-37.757
86.39,-252.299,-37.563
86.42,-253.879,-37.563
86.45,-255.107,-37.666
86.49,-256.125,-37.769
86.52,-256.897,-37.987
86.55,-257.669,-38.41
86.58,-258.582,-38.72
86.62,-259.494,-38.949
86.65,-260.617,-39.293
86.68,-262.056,-39.648
86.71,-263.565,-39.842
86.75,-265.004,-40.003
86.78,-266.653,-40.209
86.81,-268.233,-40.301
86.84,-269.566,-40.312
86.88,-270.724,-40.346
86.91,-271.742,-40.369
86.94,-272.62,-40.507
86.97,-273.567,-40.77
87.01,-274.515,-40.942
87.04,-275.287,-41.08
87.07,-275.919,-41.206
87.1,-276.62,-41.114
87.14,-276.936,-41.114
87.17,-277.217,-41.137
87.2,-277.463,-41.091
87.23,-277.603,-41.355
87.27,-278.13,-41.698
87.3,-278.726,-41.744
87.33,-279.182,-41.698
87.37,-279.709,-41.767
87.4,-280.165,-41.79
87.43,-280.305,-41.641
87.46,-280.411,-41.561
87.5,-280.551,-41.71
87.53,-280.832,-41.801
87.56,-280.867,-41.801
87.59,-281.042,-41.847
87.63,-281.078,-41.847
87.66,-281.078,-41.733
87.69,-280.867,-41.595
87.72,-280.692,-41.607
87.76,-280.586,-41.778
87.79,-280.551,-41.859
87.82,-280.516,-41.778
87.85,-280.305,-41.675
87.89,-279.849,-41.412
87.92,-279.112,-40.999
87.95,-277.989,-40.633
87.98,-276.691,-40.541
88.02,-275.568,-40.679
88.05,-274.515,-40.747
88.08,-273.497,-40.77
88.11,-272.655,-40.633
88.15,-271.672,-40.232
88.18,-270.303,-39.785
88.21,-268.864,-39.522
88.24,-267.39,-39.407
88.28,-266.022,-39.327
88.31,-264.653,-39.27
88.34,-263.6,-39.247
88.37,-262.477,-39.109
88.41,-261.038,-38.754
88.44,-259.775,-38.33
88.47,-258.231,-38.021
88.5,-256.581,-37.872
88.54,-255.107,-37.677
88.57,-253.387,-37.483
88.6,-251.773,-37.357
88.63,-250.369,-37.059
88.67,-248.615,-36.589
88.7,-246.544,-36.268
88.73,-244.754,-36.085
88.76,-243.034,-35.925
88.8,-241.174,-35.821
88.83,-239.771,-35.707
88.86,-238.472,-35.547
88.89,-236.928,-35.375
88.93,-235.629,-34.905
88.96,-233.98,-34.435
88.99,-232.05,-34.229
89.03,-230.4,-34.057
89.06,-228.645,-33.656
89.09,-226.434,-33.29
89.12,-224.434,-33.095
89.16,-222.714,-32.877
89.19,-220.538,-32.454
89.22,-218.292,-32.144
89.25,-216.257,-31.858
89.29,-213.87,-31.457
89.32,-211.554,-31.113
89.35,-209.448,-30.907
89.38,-207.132,-30.667
89.42,-205.026,-30.46
89.45,-203.377,-30.22
89.48,-201.411,-29.91
89.51,-199.551,-29.601
89.55,-197.867,-29.189
89.58,-195.656,-28.845
89.61,-193.655,-28.605
89.64,-191.936,-28.307
89.68,-189.9,-27.803
89.71,-187.479,-27.31
89.74,-185.197,-26.875
89.77,-182.565,-26.405
89.81,-179.617,-26.119
89.84,-177.266,-26.004
89.87,-174.985,-25.821
89.9,-172.282,-25.259
89.94,-170.001,-24.893
89.97,-167.369,-24.389
90.0,-164.386,-23.999
90.03,-161.859,-23.656
90.07,-159.297,-23.14
90.1,-156.419,-22.911
90.13,-154.068,-22.613
90.16,-151.646,-22.212
90.2,-148.769,-21.857
90.23,-146.242,-21.41
90.26,-143.539,-20.746
90.29,-140.276,-20.173
90.33,-137.328,-19.887
90.36,-134.38,-19.589
90.39,-131.221,-19.314
90.42,-128.624,-19.028
90.46,-126.167,-18.478
90.49,-123.254,-17.905
90.52,-120.341,-17.275
90.56,-117.393,-16.565
90.59,-113.779,-15.992
90.62,-110.41,-15.602
90.65,-107.181,-15.11
90.69,-103.461,-14.617
90.72,-99.846,-14.148
90.75,-96.301,-13.552
90.78,-92.441,-12.968
90.82,-88.651,-12.475
90.85,-85.211,-11.937
90.88,-81.351,-11.444
90.91,-77.701,-10.986
90.95,-74.507,-10.436
90.98,-70.892,-9.875
91.01,-67.207,-9.394
91.04,-63.943,-8.832
91.08,-60.364,-8.259
91.11,-56.924,-7.847
91.14,-53.941,-7.354
91.17,-50.853,-6.77
91.21,-47.519,-6.278
91.24,-44.395,-5.682
91.27,-40.64,-4.96
91.3,-36.674,-4.387
91.34,-33.235,-4.078
91.37,-31.059,-4.926
91.4,-30.884,-6.484
91.43,-30.042,-4.639
91.47,-25.865,-1.26
91.5,-20.355,-0.389
91.53,-15.337,-0.389
91.56,-10.178,0.401
91.6,-3.615,1.306
91.63,1.158,1.386
91.66,1.123,2.291
91.69,3.053,3.402
91.73,5.51,3.666
91.76,7.896,4.513
91.79,12.143,5.613
91.82,17.758,5.785
91.86,23.444,5.292
91.89,28.568,4.811
91.92,32.919,4.651
91.95,36.674,4.594
91.99,39.447,4.33
92.02,40.816,4.09
92.05,41.342,4.433
92.08,42.535,5.487
92.12,44.501,6.942
92.15,47.379,8.477
92.18,51.239,9.737
92.22,55.977,10.642
92.25,61.241,11.032
92.28,66.295,10.997
92.31,70.612,10.837
92.35,74.016,10.722
92.38,76.788,10.78
92.41,79.14,11.192
92.44,81.245,11.845
92.48,83.702,12.635
92.51,86.545,13.518
92.54,89.563,14.365
92.57,93.108,15.098
92.61,96.863,15.591
92.64,100.407,15.889
92.67,103.987,16.141
92.7,107.391,16.473
92.74,110.62,16.943
92.77,113.849,17.401
92.8,116.797,17.584
92.83,119.499,18.065
92.87,122.272,18.501
92.9,125.009,19.085
92.93,127.711,19.669
92.96,130.765,20.242
93.0,134.099,20.918
93.03,137.538,21.433
93.06,140.872,21.777
93.09,143.82,22.109
93.13,146.733,22.556
93.16,149.821,22.991
93.19,152.91,23.358
93.22,155.753,23.805
93.26,158.63,24.263
93.29,161.578,24.664
93.32,164.421,25.007
93.35,167.123,25.328
93.39,169.685,25.672
93.42,172.072,26.027
93.45,174.458,26.508
93.48,176.915,27.15
93.52,179.688,27.745
93.55,182.811,28.158
93.58,185.759,28.387
93.61,188.426,28.547
93.65,190.848,28.685
93.68,192.989,28.902
93.71,195.024,29.223
93.74,197.13,29.578
93.78,198.814,30.002
93.81,200.569,30.483
93.84,202.64,30.793
93.88,204.395,30.896
93.91,206.114,31.056
93.94,207.904,31.331
93.97,209.764,31.743
94.01,211.694,32.156
94.04,213.765,32.476
94.07,215.871,32.843
94.1,218.222,33.255
94.14,220.644,33.427
94.17,222.714,33.542
94.2,224.574,33.737
94.23,226.469,34.057
94.27,228.259,34.367
94.3,229.979,34.493
94.33,231.453,34.596
94.36,232.927,34.802
94.4,234.155,35.02
94.43,235.489,35.226
94.46,236.752,35.547
94.49,238.086,35.879
94.53,239.735,36.268
94.56,241.56,36.578
94.59,243.385,36.921
94.62,245.386,37.276
94.66,247.491,37.471
94.69,249.387,37.505
94.72,251.106,37.54
94.75,252.756,37.7
94.79,254.16,37.975
94.82,255.739,38.193
94.85,257.283,38.433
94.88,258.511,38.617
94.92,259.669,38.777
94.95,260.582,38.697
94.98,261.424,38.926
95.01,262.617,39.396
95.05,263.916,39.613
95.08,265.074,39.774
95.11,266.302,40.14
95.14,267.847,40.381
95.18,269.215,40.404
95.21,270.444,40.358
95.24,271.497,40.392
95.27,272.444,40.518
95.31,273.392,40.736
95.34,274.515,40.931
95.37,275.357,41.022
95.41,275.954,41.034
95.44,276.62,41.011
95.47,277.112,41.057
95.5,277.428,41.229
95.54,277.919,41.32
95.57,278.516,41.607
95.6,279.218,41.881
95.63,279.674,41.549
95.67,279.99,41.561
95.7,280.411,41.744
95.73,281.007,41.87
95.76,281.358,41.813
95.8,281.464,41.744
95.83,281.779,41.927
95.86,282.236,42.03
95.89,282.481,42.065
95.93,282.762,42.065
95.96,282.938,42.019
95.99,283.008,41.881
96.02,282.762,41.687
96.06,282.306,41.515
96.09,281.779,41.618
96.12,281.499,41.767
96.15,281.218,41.755
96.19,280.692,41.549
96.22,279.955,41.263
96.25,278.937,40.999
96.28,277.814,40.759
96.32,276.62,40.69
96.35,275.638,40.793
96.38,274.76,40.816
96.41,273.778,40.702
96.45,272.83,40.438
96.48,271.672,40.026
96.51,270.268,39.556
96.54,268.303,39.167
96.58,266.443,39.018
96.61,264.653,39.029
96.64,262.968,39.121
96.67,261.951,39.086
96.71,260.722,38.846
96.74,259.459,38.617
96.77,258.371,38.33
96.8,257.178,37.895
96.84,255.598,37.574
96.87,254.124,37.379
96.9,252.51,37.173
96.93,250.896,37.024
96.97,249.422,36.841
97.0,247.842,36.589
97.03,246.017,36.348
97.07,244.438,36.177
97.1,242.929,35.879
97.13,241.139,35.604
97.16,239.56,35.432
97.2,238.156,35.249
97.23,236.542,35.123
97.26,235.033,34.802
97.29,233.348,34.206
97.33,231.172,33.737
97.36,228.996,33.542
97.39,227.101,33.359
97.42,225.066,33.233
97.46,223.206,33.152
97.49,221.696,32.889
97.52,219.626,32.419
97.55,217.59,31.995
97.59,215.73,31.72
97.62,213.66,31.514
97.65,211.554,31.274
97.68,209.729,30.941
97.72,207.693,30.655
97.75,205.728,30.449
97.78,203.903,29.956
97.81,201.587,29.475
97.85,199.2,29.212
97.88,197.305,28.937
97.91,195.094,28.696
97.94,192.883,28.547
97.98,191.164,28.284
98.01,189.374,27.952
98.04,187.198,27.528
98.07,185.127,27.024
98.11,182.6,26.279
98.14,179.933,26.153
98.17,177.617,25.878
98.2,175.09,25.489
98.24,172.493,25.305
98.27,170.247,24.916
98.3,167.931,24.446
98.33,165.193,24.091
98.37,162.386,23.323
98.4,159.438,22.819
98.43,156.244,22.51
98.46,153.366,22.361
98.5,150.839,22.075
98.53,147.961,21.662
98.56,145.294,21.307
98.59,142.838,20.757
98.63,139.925,20.46
98.66,137.468,20.242
98.69,135.257,19.715
98.73,132.414,19.177
98.76,129.501,18.661
98.79,126.799,17.985
98.82,123.36,17.309
98.86,119.71,16.748
98.89,116.165,16.255
98.92,112.27,15.946
98.95,108.795,15.82
98.99,106.023,15.442
99.02,102.934,14.915
99.05,99.706,14.331
99.08,96.512,13.518
99.12,92.616,12.658
99.15,88.335,12.028
99.18,84.439,11.433
99.21,80.333,10.917
99.25,76.192,10.711
99.28,72.823,10.516
99.31,69.278,10.15
99.34,65.944,9.737
99.38,63.487,9.05
99.41,60.539,8.214
99.44,57.275,7.664
99.47,54.398,7.446
99.51,51.73,7.148
99.54,48.747,6.69
99.57,45.869,5.991
99.6,42.641,5.281
99.64,39.061,4.685
99.67,35.867,4.422
99.7,33.937,5.04
99.73,33.481,6.369
99.77,32.323,4.754
99.8,27.62,0.882
99.83,20.706,-0.687
99.86,14.003,-0.722
99.9,7.019,-1.375
99.93,-0.246,-1.879
99.96,-1.72,-2.749
99.99,-3.018,-3.815
100.03,-4.984,-3.723
100.06,-6.563,-4.342
100.09,-10.318,-5.247
100.12,-15.337,-5.35
100.16,-20.811,-5.315
100.19,-26.216,-5.178
100.22,-31.2,-4.743
100.26,-34.92,-4.25
100.29,-37.482,-3.883
100.32,-39.096,-3.757
100.35,-39.938,-3.941
100.39,-40.43,-4.8
100.42,-42.009,-6.197
100.45,-44.711,-7.664
100.48,-48.396,-8.958
100.52,-52.783,-9.932
100.55,-57.732,-10.459
100.58,-62.715,-10.562
100.61,-67.383,-10.539
100.65,-71.208,-10.413
100.68,-74.016,-10.379
100.71,-76.472,-10.596
100.74,-78.859,-10.986
100.78,-80.859,-11.696
100.81,-83.105,-12.704
100.84,-86.159,-13.689
100.87,-89.458,-14.526
100.91,-93.318,-15.121
100.94,-97.284,-15.465
100.97,-100.934,-15.728
101.0,-104.514,-15.9
101.04,-107.883,-15.992
101.07,-110.445,-16.244
101.1,-112.831,-16.817
101.13,-115.569,-17.481
101.17,-118.341,-18.134
101.2,-121.324,-18.73
101.23,-124.693,-19.417
101.26,-128.273,-20.07
101.3,-132.098,-20.54
101.33,-135.854,-20.941
101.36,-139.258,-21.113
101.39,-142.346,-21.227
101.43,-145.294,-21.479
101.46,-147.891,-21.892
101.49,-150.383,-22.43
101.52,-153.05,-22.991
101.56,-155.753,-23.564
101.59,-158.49,-24.137
101.62,-161.543,-24.687
101.65,-164.702,-25.076
101.69,-167.825,-25.34
101.72,-170.738,-25.557
101.75,-173.37,-25.764
101.78,-175.687,-26.004
101.82,-178.038,-26.428
101.85,-180.46,-26.898
101.88,-182.846,-27.39
101.92,-185.303,-27.906
101.95,-187.9,-28.387
101.98,-190.602,-28.742
102.01,-193.094,-28.891
102.05,-195.34,-29.074
102.08,-197.516,-29.361
102.11,-199.622,-29.624
102.14,-201.376,-29.681
102.18,-202.394,-29.429
102.21,-202.85,-29.154
102.24,-202.991,-29.28
102.27,-203.377,-29.75
102.31,-204.219,-30.495
102.34,-205.763,-31.388
102.37,-208.15,-32.247
102.4,-211.308,-32.969
102.44,-214.993,-33.359
102.47,-218.678,-33.462
102.5,-222.118,-33.393
102.53,-225.206,-33.347
102.57,-227.838,-33.393
102.6,-230.119,-33.53
102.63,-231.804,-33.771
102.66,-233.383,-34.092
102.7,-234.857,-34.412
102.73,-236.296,-34.768
102.76,-237.454,-35.02
102.79,-238.718,-35.191
102.83,-239.981,-35.466
102.86,-241.315,-35.89
102.89,-243.034,-36.245
102.92,-244.684,-36.486
102.96,-246.298,-36.658
102.99,-247.913,-36.715
103.02,-249.246,-36.738
103.05,-250.439,-36.795
103.09,-251.633,-37.013
103.12,-252.931,-37.322
103.15,-254.265,-37.62
103.18,-255.774,-37.941
103.22,-257.248,-38.239
103.25,-258.722,-38.365
103.28,-260.161,-38.399
103.31,-261.354,-38.502
103.35,-262.617,-38.628
103.38,-263.881,-38.662
103.41,-264.934,-38.949
103.44,-266.232,-39.407
103.48,-267.636,-39.602
103.51,-268.829,-39.693
103.54,-269.987,-39.774
103.58,-271.111,-39.819
103.61,-272.198,-39.9
103.64,-273.146,-40.163
103.67,-274.269,-40.415
103.71,-275.252,-40.472
103.74,-276.024,-40.472
103.77,-276.726,-40.438
103.8,-277.147,-40.415
103.84,-277.428,-40.415
103.87,-277.638,-40.518
103.9,-278.305,-41.057
103.93,-279.077,-41.309
103.97,-279.568,-40.976
104.0,-279.99,-40.999
104.03,-280.727,-41.377
104.06,-281.464,-41.355
104.1,-281.85,-41.091
104.13,-282.025,-41.274
104.16,-282.552,-41.584
104.19,-283.183,-41.572
104.23,-283.499,-41.515
104.26,-283.78,-41.549
104.29,-283.92,-41.435
104.32,-283.85,-41.148
104.36,-283.324,-40.85
104.39,-282.622,-40.77
104.42,-281.92,-40.85
104.45,-281.253,-40.954
104.49,-280.692,-41.068
104.52,-280.305,-41.103
104.55,-279.744,-40.873
104.58,-278.902,-40.541
104.62,-277.954,-40.255
104.65,-276.936,-40.06
104.68,-275.813,-40.083
104.71,-274.831,-40.026
104.75,-273.602,-39.785
104.78,-272.339,-39.567
104.81,-271.04,-39.327
104.84,-269.672,-39.052
104.88,-268.057,-38.811
104.91,-266.548,-38.685
104.94,-265.215,-38.651
104.97,-263.881,-38.628
105.01,-262.863,-38.559
105.04,-261.845,-38.296
105.07,-260.442,-37.849
105.11,-258.932,-37.46
105.14,-257.388,-37.047
105.17,-255.388,-36.795
105.2,-253.563,-36.715
105.24,-251.913,-36.658
105.27,-250.334,-36.646
105.3,-248.965,-36.532
105.33,-247.562,-35.97
105.37,-245.667,-35.547
105.4,-243.842,-35.489
105.43,-242.332,-35.18
105.46,-240.437,-34.756
105.5,-238.612,-34.664
105.53,-237.524,-34.848
105.56,-236.191,-34.642
105.59,-234.471,-34.103
105.63,-232.857,-33.565
105.66,-230.927,-33.267
105.69,-228.645,-33.049
105.72,-226.68,-32.648
105.76,-224.504,-32.305
105.79,-222.083,-32.202
105.82,-220.258,-32.03
105.85,-218.222,-31.72
105.89,-216.046,-31.514
105.92,-214.397,-31.285
105.95,-212.712,-31.045
105.98,-210.922,-30.815
106.02,-209.518,-30.621
106.05,-207.974,-30.369
106.08,-206.044,-29.945
106.11,-204.254,-29.464
106.15,-202.254,-29.04
106.18,-199.902,-28.685
106.21,-197.656,-28.364
106.24,-195.375,-28.078
106.28,-192.883,-27.917
106.31,-190.953,-27.848
106.34,-189.163,-27.574
106.37,-187.057,-27.138
106.41,-184.917,-26.657
106.44,-182.741,-26.13
106.47,-180.109,-25.775
106.5,-177.687,-25.603
106.54,-175.581,-25.259
106.57,-173.055,-24.893
106.6,-170.493,-24.366
106.63,-167.86,-23.828
106.67,-164.667,-23.404
106.7,-161.613,-22.991
106.73,-158.841,-22.613
106.77,-156.033,-22.522
106.8,-153.542,-22.338
106.83,-151.331,-21.995
106.86,-148.558,-21.468
106.9,-145.786,-20.987
106.93,-143.539,-20.574
106.96,-140.942,-20.001
106.99,-137.994,-19.612
107.03,-135.292,-19.028
107.06,-132.028,-18.478
107.09,-128.729,-18.1
107.12,-125.606,-17.642
107.16,-122.237,-17.183
107.19,-118.832,-16.805
107.22,-115.849,-16.381
107.25,-112.585,-15.923
107.29,-109.181,-15.568
107.32,-106.339,-15.064
107.35,-103.18,-14.423
107.38,-99.635,-13.987
107.42,-96.582,-13.414
107.45,-92.932,-12.521
107.48,-88.58,-11.822
107.51,-84.615,-11.284
107.55,-80.789,-10.848
107.58,-76.894,-10.585
107.61,-73.489,-10.207
107.64,-70.155,-9.691
107.68,-66.505,-9.256
107.71,-63.557,-8.695
107.74,-60.434,-8.03
107.77,-56.819,-7.526
107.81,-53.555,-7.137
107.84,-50.467,-6.553
107.87,-46.887,-6.026
107.9,-43.623,-5.487
107.94,-40.114,-4.892
107.97,-36.288,-4.399
108.0,-32.954,-4.273
108.03,-31.375,-5.144
108.07,-31.375,-6.553
108.1,-30.463,-4.628
108.13,-26.357,-1.18
108.16,-20.671,-0.034
108.2,-14.81,0.08
108.23,-9.09,0.756
108.26,-2.071,1.329
108.29,1.369,1.466
108.33,1.158,2.555
108.36,3.194,3.23
108.39,5.299,3.574
108.43,8.177,4.96
108.46,13.266,6.209
108.49,19.618,6.071
108.52,25.479,5.338
108.56,30.743,4.823
108.59,35.095,4.651
108.62,38.605,4.525
108.65,40.991,4.124
108.69,42.009,3.757
108.72,42.079,4.227
108.75,42.606,5.636
108.78,44.571,7.263
108.82,47.519,8.763
108.85,51.52,10.15
108.88,56.749,11.02
108.91,62.364,11.261
108.95,67.523,11.009
108.98,71.91,10.631
109.01,74.893,10.39
109.04,77.174,10.425
109.08,79.28,10.745
109.11,81.0,11.433
109.14,82.93,12.544
109.17,85.843,13.77
109.21,89.247,14.64
109.24,92.932,15.224
109.27,96.933,15.637
109.3,100.758,15.935
109.34,104.514,16.21
109.37,108.269,16.324
109.4,111.252,16.485
109.43,113.919,16.851
109.47,116.481,17.286
109.5,118.903,17.768
109.53,121.429,18.512
109.56,124.342,19.154
109.6,127.641,20.001
109.63,131.081,20.597
109.66,134.766,20.941
109.69,138.17,21.204
109.73,141.258,21.399
109.76,144.206,21.617
109.79,147.014,21.983
109.82,149.997,22.59
109.86,152.91,23.163
109.89,155.858,23.656
109.92,158.771,24.148
109.96,161.789,24.607
109.99,164.526,24.996
110.02,167.229,25.351
110.05,169.861,25.638
110.09,172.458,25.97
110.12,175.16,26.451
110.15,177.968,26.978
110.18,180.775,27.344
110.22,183.478,27.654
110.25,186.005,27.986
110.28,188.496,28.272
110.31,190.742,28.57
110.35,193.024,28.868
110.38,195.164,29.2
110.41,197.411,29.567
110.44,199.586,29.899
110.48,201.587,30.185
110.51,203.587,30.392
110.54,205.237,30.506
110.57,206.816,30.724
110.61,208.501,31.033
110.64,210.22,31.468
110.67,212.045,31.904
110.7,213.976,32.282
110.74,216.011,32.534
110.77,217.906,32.66
110.8,219.766,32.751
110.83,221.381,32.877
110.87,222.749,32.969
110.9,224.048,33.187
110.93,225.487,33.611
110.96,227.101,34.034
111.0,229.066,34.573
111.03,231.172,35.008
111.06,233.348,35.169
111.09,235.278,35.214
111.13,237.138,35.421
111.16,239.139,35.695
111.19,240.999,35.879
111.22,242.859,36.119
111.26,244.579,36.463
111.29,246.263,36.658
111.32,247.807,36.704
111.35,249.071,36.864
111.39,250.439,37.196
111.42,251.949,37.483
111.45,253.387,37.746
111.48,254.861,38.078
111.52,256.616,38.365
111.55,258.231,38.491
111.58,259.705,38.525
111.62,260.898,38.536
111.65,261.916,38.617
111.68,262.898,38.754
111.71,263.951,38.983
111.75,265.039,39.281
111.78,266.022,39.476
111.81,267.11,39.716
111.84,268.373,39.888
111.88,269.461,39.934
111.91,270.409,39.945
111.94,271.391,40.175
111.97,272.585,40.507
112.01,273.813,40.736
112.04,275.006,40.736
112.07,275.919,40.724
112.1,276.726,40.69
112.14,277.322,40.564
112.17,277.568,40.621
112.2,277.919,40.816
112.23,278.445,41.125
112.27,279.112,41.435
112.3,279.744,41.469
112.33,280.411,41.423
112.36,280.727,41.229
112.4,281.078,41.343
112.43,281.429,41.355
112.46,281.639,41.366
112.49,282.341,42.019
112.53,283.183,42.03
112.56,283.429,41.664
112.59,283.64,41.584
112.62,283.745,41.652
112.66,283.534,41.435
112.69,282.903,41.034
112.72,282.306,41.022
112.75,281.779,41.412
112.79,281.534,41.584
112.82,281.253,41.458
112.85,280.832,41.229
112.88,280.165,41.022
112.92,279.393,40.805
112.95,278.375,40.576
112.98,277.393,40.438
113.01,276.41,40.484
113.05,275.427,40.472
113.08,274.48,40.278
113.11,273.216,40.003
113.14,271.918,39.659
113.18,270.514,39.293
113.21,268.724,39.029
113.24,267.11,38.88
113.28,265.53,38.8
113.31,263.916,38.8
113.34,262.653,38.743
113.37,261.565,38.502
113.41,260.266,38.147
113.44,258.722,37.906
113.47,257.494,37.609
113.5,255.844,37.311
113.54,254.124,37.105
113.57,252.615,36.956
113.6,251.071,36.83
113.63,249.597,36.612
113.67,248.088,36.291
113.7,246.439,36.016
113.73,244.824,35.879
113.76,243.385,35.65
113.8,241.631,35.237
113.83,239.665,35.008
113.86,238.086,34.894
113.89,236.226,34.401
113.93,233.875,33.92
113.96,231.839,33.702
113.99,230.014,33.679
114.02,228.084,33.588
114.06,226.54,33.324
114.09,224.96,33.141
114.12,223.416,33.107
114.15,222.258,32.797
114.19,220.679,32.224
114.22,218.608,31.743
114.25,216.713,31.377
114.28,214.713,31.033
114.32,212.466,30.861
114.35,210.466,30.724
114.38,208.536,30.437
114.41,206.219,30.082
114.45,204.079,29.739
114.48,202.043,29.395
114.51,199.727,29.063
114.54,197.551,28.788
114.58,195.656,28.547
114.61,193.48,28.398
114.64,191.62,28.158
114.67,189.83,27.654
114.71,187.514,27.195
114.74,185.303,26.795
114.77,183.127,26.336
114.81,180.53,25.935
114.84,178.038,25.752
114.87,175.862,25.5
114.9,173.405,25.076
114.94,170.668,24.572
114.97,168.001,24.034
115.0,165.018,23.553
115.03,161.929,23.209
115.07,159.122,22.819
115.1,156.244,22.556
115.13,153.577,22.361
115.16,151.225,21.914
115.2,148.383,21.307
115.23,145.259,21.044
115.26,142.627,20.46
115.29,139.714,19.726
115.33,136.696,19.543
115.36,134.064,19.154
115.39,131.221,18.833
115.42,128.203,18.501
115.46,125.571,18.031
115.49,122.763,17.458
115.52,119.464,16.966
115.55,116.551,16.462
115.59,113.393,15.889
115.62,109.813,15.465
115.65,106.549,15.041
115.68,103.32,14.377
115.72,99.565,13.747
115.75,95.915,13.162
115.78,92.3,12.59
115.81,88.159,12.177
115.85,84.579,11.879
115.88,81.281,11.284
115.91,77.385,10.711
115.94,73.84,10.253
115.98,70.647,9.657
116.01,67.102,9.119
116.04,63.698,8.683
116.07,60.609,8.076
116.11,56.854,7.48
116.14,53.345,7.091
116.17,50.256,6.679
116.2,46.887,6.289
116.24,43.799,5.9
116.27,40.921,5.281
116.3,37.587,4.594
116.33,34.358,4.387
116.37,32.814,5.224
116.4,32.779,6.507
116.43,31.621,4.685
116.47,27.48,1.26
116.5,21.794,0.011
116.53,15.652,-0.16
116.56,9.792,-0.813
116.6,2.492,-1.386
116.63,-1.369,-1.604
