Trigger_Date,2023/06/26
Trigger_Time,T 08:19:14.248 PDT
Samples_Per_Cycle,512
Microseconds_Per_Sample,32.553
Time (ms),Voltage (V),Current (A)
-16.67,-5.44,-2.543
-16.63,-9.335,-1.925
-16.6,-12.354,-1.512
-16.57,-14.74,-1.466
-16.54,-16.67,-1.753
-16.5,-19.057,-2.165
-16.47,-21.478,-2.715
-16.44,-25.163,-3.288
-16.41,-28.006,-4.101
-16.37,-31.235,-5.006
-16.34,-34.92,-5.441
-16.31,-39.342,-5.923
-16.28,-44.781,-6.14
-16.24,-48.572,-6.22
-16.21,-52.573,-6.209
-16.18,-55.907,-5.934
-16.15,-57.451,-6.117
-16.11,-59.557,-6.701
-16.08,-62.294,-7.091
-16.05,-63.522,-8.03
-16.02,-66.541,-8.947
-15.98,-70.436,-9.451
-15.95,-72.963,-10.47
-15.92,-76.894,-11.387
-15.89,-81.596,-11.845
-15.85,-84.86,-12.739
-15.82,-88.861,-13.426
-15.79,-93.108,-13.655
-15.76,-96.336,-14.113
-15.72,-99.214,-14.617
-15.69,-102.618,-15.018
-15.66,-106.163,-15.591
-15.63,-108.655,-16.29
-15.59,-111.884,-16.828
-15.56,-116.095,-17.264
-15.53,-119.043,-18.02
-15.5,-122.026,-18.661
-15.46,-126.659,-18.661
-15.43,-129.536,-19.142
-15.4,-132.309,-19.761
-15.36,-136.731,-19.875
-15.33,-140.1,-20.46
-15.3,-141.89,-21.078
-15.27,-145.294,-21.032
-15.23,-147.47,-21.273
-15.2,-147.997,-22.545
-15.17,-150.909,-22.991
-15.14,-152.84,-23.69
-15.1,-155.156,-24.904
-15.07,-157.753,-25.809
-15.04,-160.526,-26.68
-15.01,-163.754,-27.367
-14.97,-166.562,-27.997
-14.94,-169.826,-28.456
-14.91,-173.019,-28.776
-14.88,-175.757,-29.177
-14.84,-178.775,-29.739
-14.81,-182.004,-30.22
-14.78,-184.776,-30.712
-14.75,-187.514,-31.125
-14.71,-190.392,-31.285
-14.68,-192.603,-31.434
-14.65,-194.743,-31.594
-14.62,-197.025,-31.652
-14.58,-199.2,-31.881
-14.55,-201.131,-32.293
-14.52,-203.377,-32.476
-14.49,-205.272,-32.534
-14.45,-206.676,-32.786
-14.42,-208.781,-32.82
-14.39,-210.115,-32.866
-14.36,-211.343,-33.29
-14.32,-213.554,-33.611
-14.29,-215.169,-33.977
-14.26,-216.818,-34.619
-14.23,-219.275,-34.951
-14.19,-221.135,-35.111
-14.16,-222.714,-35.443
-14.13,-224.995,-35.638
-14.1,-226.961,-35.879
-14.06,-228.4,-36.314
-14.03,-230.927,-36.658
-14.0,-232.716,-36.852
-13.97,-233.945,-37.139
-13.93,-236.261,-37.242
-13.9,-237.77,-37.185
-13.87,-239.034,-37.78
-13.83,-241.209,-38.044
-13.8,-242.543,-38.158
-13.77,-243.982,-38.571
-13.74,-246.333,-38.937
-13.7,-247.737,-39.258
-13.67,-249.036,-39.602
-13.64,-251.247,-39.51
-13.61,-252.335,-39.613
-13.57,-253.458,-40.014
-13.54,-255.458,-40.163
-13.51,-256.651,-40.369
-13.48,-257.915,-40.896
-13.44,-259.775,-41.022
-13.41,-260.863,-40.976
-13.38,-261.845,-41.148
-13.35,-263.179,-41.137
-13.31,-264.091,-41.171
-13.28,-265.144,-41.641
-13.25,-266.864,-42.065
-13.22,-268.268,-42.489
-13.18,-269.672,-42.947
-13.15,-271.216,-42.924
-13.12,-272.374,-42.775
-13.09,-273.251,-42.947
-13.05,-274.62,-42.981
-13.02,-275.568,-43.142
-12.99,-276.55,-43.657
-12.96,-277.989,-43.84
-12.92,-278.831,-43.898
-12.89,-279.744,-43.875
-12.86,-280.586,-43.646
-12.83,-281.042,-43.531
-12.79,-281.393,-43.531
-12.76,-281.99,-43.68
-12.73,-282.481,-43.863
-12.7,-283.043,-44.035
-12.66,-283.604,-44.104
-12.63,-284.236,-44.184
-12.6,-284.552,-44.104
-12.57,-284.833,-43.966
-12.53,-285.078,-44.092
-12.5,-285.289,-44.069
-12.47,-285.57,-43.989
-12.44,-285.57,-44.069
-12.4,-285.64,-44.035
-12.37,-285.64,-43.726
-12.34,-285.184,-43.439
-12.3,-284.657,-43.199
-12.27,-284.271,-42.878
-12.24,-283.534,-42.832
-12.21,-283.183,-43.084
-12.17,-283.113,-42.981
-12.14,-282.236,-42.741
-12.11,-281.604,-42.305
-12.08,-280.621,-41.79
-12.04,-279.112,-41.355
-12.01,-277.954,-40.931
-11.98,-276.691,-40.782
-11.95,-275.638,-40.919
-11.91,-274.62,-40.885
-11.88,-273.532,-40.633
-11.85,-272.339,-40.312
-11.82,-271.111,-39.934
-11.78,-269.882,-39.499
-11.75,-268.338,-39.304
-11.72,-267.39,-39.338
-11.69,-266.302,-39.338
-11.65,-265.215,-39.304
-11.62,-264.478,-39.075
-11.59,-263.214,-38.685
-11.56,-261.775,-38.136
-11.52,-260.512,-37.574
-11.49,-258.687,-37.253
-11.46,-257.002,-37.07
-11.43,-255.669,-36.715
-11.39,-253.844,-36.497
-11.36,-252.37,-36.36
-11.33,-250.931,-35.925
-11.3,-248.685,-35.352
-11.26,-247.105,-35.123
-11.23,-245.631,-34.905
-11.2,-243.456,-34.573
-11.17,-241.806,-34.241
-11.13,-240.297,-33.908
-11.1,-238.402,-33.805
-11.07,-236.682,-33.576
-11.04,-235.138,-33.107
-11.0,-233.313,-32.889
-10.97,-231.769,-32.843
-10.94,-230.33,-32.465
-10.91,-228.189,-31.995
-10.87,-226.61,-31.709
-10.84,-225.066,-31.331
-10.81,-222.539,-30.999
-10.77,-220.784,-30.552
-10.74,-218.889,-30.082
-10.71,-216.327,-29.853
-10.68,-214.502,-29.555
-10.64,-212.502,-29.154
-10.61,-210.08,-29.063
-10.58,-208.43,-28.765
-10.55,-206.606,-28.226
-10.51,-203.903,-28.089
-10.48,-201.973,-27.379
-10.45,-199.902,-26.966
-10.42,-197.165,-27.264
-10.38,-195.586,-27.104
-10.35,-193.726,-26.6
-10.32,-191.199,-26.474
-10.29,-189.655,-25.924
-10.25,-187.233,-25.179
-10.22,-184.18,-24.767
-10.19,-182.285,-24.148
-10.16,-179.617,-23.644
-10.12,-176.775,-23.518
-10.09,-174.844,-23.026
-10.06,-171.896,-22.441
-10.03,-168.948,-21.949
-9.99,-166.457,-21.273
-9.96,-163.474,-20.712
-9.93,-160.21,-20.185
-9.9,-157.542,-19.807
-9.86,-155.191,-19.681
-9.83,-152.313,-19.142
-9.8,-149.576,-18.592
-9.77,-147.049,-18.18
-9.73,-144.347,-17.676
-9.7,-141.364,-17.172
-9.67,-139.012,-16.668
-9.64,-136.24,-16.095
-9.6,-132.73,-15.683
-9.57,-130.168,-15.075
-9.54,-127.15,-14.365
-9.51,-122.939,-13.918
-9.47,-119.78,-13.243
-9.44,-115.955,-12.509
-9.41,-111.603,-12.349
-9.38,-108.725,-12.086
-9.34,-105.602,-11.662
-9.31,-102.197,-11.421
-9.28,-99.881,-10.86
-9.24,-96.828,-9.978
-9.21,-93.073,-9.268
-9.18,-89.633,-8.408
-9.15,-85.632,-7.618
-9.11,-81.667,-7.137
-9.08,-77.841,-6.679
-9.05,-74.121,-6.255
-9.02,-70.927,-5.923
-8.98,-67.628,-5.51
-8.95,-64.435,-5.063
-8.92,-61.382,-4.559
-8.89,-58.153,-4.158
-8.85,-55.029,-3.78
-8.82,-51.976,-3.276
-8.79,-48.747,-2.784
-8.76,-45.308,-2.36
-8.72,-41.904,-1.867
-8.69,-38.535,-1.214
-8.66,-34.709,-0.756
-8.63,-31.41,-0.298
-8.59,-28.357,0.344
-8.56,-24.918,0.871
-8.53,-21.864,1.409
-8.5,-18.636,2.154
-8.46,-14.284,2.738
-8.43,-9.055,3.127
-8.4,-3.299,3.253
-8.37,2.246,3.013
-8.33,7.089,2.44
-8.3,10.634,1.776
-8.27,13.301,1.329
-8.24,15.091,1.26
-8.2,16.67,1.512
-8.17,18.565,1.867
-8.14,21.127,2.337
-8.11,23.935,2.956
-8.07,26.637,3.872
-8.04,30.147,4.697
-8.01,33.902,5.407
-7.98,38.535,5.934
-7.94,43.167,6.243
-7.91,47.554,6.541
-7.88,52.538,6.564
-7.85,56.328,6.656
-7.81,59.276,6.988
-7.78,62.61,7.068
-7.75,64.365,7.446
-7.71,66.225,8.225
-7.68,69.243,8.649
-7.65,71.384,9.462
-7.62,73.84,10.264
-7.58,77.42,10.551
-7.55,80.193,11.433
-7.52,83.351,12.372
-7.49,87.457,12.807
-7.45,90.932,13.403
-7.42,94.196,14.079
-7.39,97.775,14.445
-7.36,101.355,14.881
-7.32,104.373,15.58
-7.29,107.567,16.404
-7.26,111.989,16.817
-7.23,115.463,17.447
-7.19,118.341,18.34
-7.16,123.149,18.524
-7.13,126.518,18.73
-7.1,129.01,19.509
-7.06,133.502,19.578
-7.03,136.731,19.749
-7.0,139.258,20.654
-6.97,142.627,20.849
-6.93,145.399,20.964
-6.9,146.593,21.582
-6.87,148.277,22.315
-6.84,150.699,22.945
-6.8,152.383,23.999
-6.77,155.086,24.996
-6.74,158.174,25.947
-6.71,161.087,26.898
-6.67,163.789,27.7
-6.64,167.299,28.089
-6.61,170.457,28.524
-6.58,173.335,29.097
-6.54,176.775,29.452
-6.51,179.547,29.876
-6.48,182.53,30.414
-6.45,185.689,30.701
-6.41,188.04,30.964
-6.38,190.392,31.125
-6.35,192.743,31.125
-6.32,194.498,31.228
-6.28,196.323,31.514
-6.25,198.534,31.732
-6.22,200.534,31.95
-6.18,202.324,32.259
-6.15,204.254,32.58
-6.12,206.149,32.751
-6.09,207.974,32.866
-6.05,209.554,33.107
-6.02,211.519,33.473
-5.99,213.484,33.794
-5.96,215.134,34.241
-5.92,217.274,34.607
-5.89,219.275,34.859
-5.86,220.959,35.123
-5.83,222.89,35.214
-5.79,224.89,35.409
-5.76,226.434,35.821
-5.73,228.54,36.211
-5.7,230.33,36.326
-5.66,232.014,36.784
-5.63,234.401,37.471
-5.6,236.436,37.609
-5.57,237.84,37.689
-5.53,239.911,37.872
-5.5,241.876,38.067
-5.47,242.859,38.33
-5.44,244.473,38.33
-5.4,246.193,38.502
-5.37,247.351,39.109
-5.34,249.071,39.327
-5.31,250.475,39.201
-5.27,251.562,39.625
-5.24,253.493,40.037
-5.21,255.107,40.152
-5.18,255.984,40.621
-5.14,258.301,40.965
-5.11,259.985,41.091
-5.08,260.687,41.32
-5.05,262.442,41.183
-5.01,263.565,40.976
-4.98,264.056,41.412
-4.95,265.671,41.652
-4.92,266.899,41.824
-4.88,267.987,42.512
-4.85,269.742,42.878
-4.82,271.075,42.764
-4.79,271.953,42.821
-4.75,273.216,42.867
-4.72,274.304,42.844
-4.69,275.041,43.165
-4.66,276.34,43.565
-4.62,277.638,43.657
-4.59,278.34,43.875
-4.56,279.568,43.886
-4.52,280.341,43.646
-4.49,280.621,43.737
-4.46,281.464,43.68
-4.43,281.92,43.611
-4.39,282.271,44.024
-4.36,283.078,44.195
-4.33,283.745,44.127
-4.3,283.85,44.138
-4.26,284.306,43.898
-4.23,284.833,43.852
-4.2,284.727,44.058
-4.17,285.114,44.207
-4.13,285.71,44.241
-4.1,285.991,44.379
-4.07,286.342,44.448
-4.04,286.693,44.218
-4.0,286.588,44.081
-3.97,286.447,43.886
-3.94,286.272,43.394
-3.91,285.464,43.245
-3.87,285.289,43.313
-3.84,285.57,43.634
-3.81,285.851,44.562
-3.78,287.044,45.169
-3.74,288.132,45.215
-3.71,288.939,45.318
-3.68,289.781,45.295
-3.65,290.167,44.94
-3.61,289.746,44.333
-3.58,288.693,43.279
-3.55,286.903,41.916
-3.52,284.131,40.518
-3.48,280.656,39.361
-3.45,277.393,38.376
-3.42,273.532,37.906
-3.39,270.619,37.883
-3.35,268.198,37.964
-3.32,265.636,38.158
-3.29,264.021,38.09
-3.26,262.267,37.849
-3.22,260.371,37.769
-3.19,259.354,37.586
-3.16,257.915,37.437
-3.13,256.335,37.345
-3.09,255.318,37.024
-3.06,253.879,36.681
-3.03,252.089,36.28
-2.99,250.334,35.65
-2.96,248.404,35.1
-2.93,246.509,34.894
-2.9,244.824,34.813
-2.86,243.315,34.504
-2.83,241.49,34.298
-2.8,239.771,34.16
-2.77,238.647,33.737
-2.73,236.752,33.496
-2.7,234.822,33.233
-2.67,233.559,32.786
-2.64,231.804,32.614
-2.6,229.979,32.534
-2.57,228.505,32.098
-2.54,226.68,31.64
-2.51,224.574,31.434
-2.47,222.855,30.941
-2.44,220.784,30.357
-2.41,218.362,30.208
-2.38,216.818,29.979
-2.34,214.818,29.658
-2.31,212.502,29.681
-2.28,211.308,29.361
-2.25,209.132,28.753
-2.21,206.325,28.364
-2.18,204.921,27.757
-2.15,202.464,27.241
-2.12,199.2,27.161
-2.08,197.726,26.772
-2.05,195.445,26.588
-2.02,192.462,26.68
-1.99,190.988,25.958
-1.95,188.567,25.214
-1.92,185.303,25.088
-1.89,183.829,24.526
-1.86,181.442,23.862
-1.82,177.933,23.942
-1.79,176.74,23.69
-1.76,174.739,23.106
-1.73,170.984,22.625
-1.69,168.843,21.811
-1.66,166.632,21.181
-1.63,163.123,20.826
-1.6,159.648,20.127
-1.56,157.718,19.612
-1.53,155.542,19.463
-1.5,151.506,19.245
-1.46,149.084,18.226
-1.43,147.224,17.378
-1.4,142.802,17.596
-1.37,138.065,16.095
-1.33,133.362,11.169
-1.3,122.763,8.66
-1.27,112.305,9.336
-1.24,107.918,10.127
-1.2,102.197,11.352
-1.17,99.425,12.681
-1.14,101.004,13.357
-1.11,101.671,14.342
-1.07,103.566,14.949
-1.04,106.198,14.285
-1.01,106.058,13.529
-0.98,105.426,12.842
-0.94,104.514,11.524
-0.91,101.004,10.321
-0.88,97.354,9.176
-0.85,92.827,8.053
-0.81,88.124,7.503
-0.78,84.299,7.068
-0.75,79.631,6.736
-0.72,75.841,6.438
-0.68,72.928,5.923
-0.65,68.822,5.636
-0.62,65.523,5.224
-0.59,62.75,4.468
-0.55,58.855,4.135
-0.52,55.556,3.941
-0.49,52.713,3.414
-0.46,49.625,3.013
-0.42,46.185,2.784
-0.39,43.167,2.383
-0.36,40.465,1.661
-0.33,36.815,1.157
-0.29,33.34,0.882
-0.26,30.849,0.183
-0.23,27.304,-0.515
-0.2,23.865,-1.054
-0.16,20.847,-1.902
-0.13,16.986,-2.555
-0.1,12.108,-2.795
-0.07,7.019,-2.898
-0.03,1.86,-2.795
0.0,-2.808,-2.451
0.03,-6.773,-2.028
0.07,-9.967,-1.684
0.1,-12.775,-1.478
0.13,-15.161,-1.741
0.16,-17.618,-2.325
0.2,-20.636,-2.807
0.23,-24.11,-3.265
0.26,-27.269,-3.975
0.29,-30.568,-4.857
0.33,-34.183,-5.361
0.36,-38.184,-5.556
0.39,-42.746,-5.762
0.42,-46.922,-6.14
0.46,-50.958,-6.278
0.49,-54.573,-6.232
0.52,-57.556,-6.507
0.55,-60.083,-7.057
0.59,-63.101,-7.492
0.62,-65.382,-8.042
0.65,-67.874,-8.935
0.68,-71.384,-9.542
0.72,-74.297,-10.23
0.75,-77.209,-11.169
0.78,-81.316,-11.696
0.81,-84.685,-12.361
0.85,-88.019,-13.197
0.88,-92.195,-13.54
0.91,-95.529,-13.999
0.94,-98.618,-14.64
0.98,-102.022,-15.007
1.01,-105.145,-15.454
1.04,-108.409,-16.038
1.07,-111.392,-16.691
1.11,-114.726,-17.298
1.14,-118.832,-17.527
1.17,-120.973,-18.077
1.2,-124.202,-18.604
1.24,-128.659,-18.524
1.27,-130.344,-19.291
1.3,-133.537,-19.921
1.33,-138.731,-19.761
1.37,-139.89,-20.952
1.4,-143.855,-21.422
1.43,-147.54,-21.009
1.46,-147.575,-22.613
1.5,-151.295,-23.049
1.53,-152.699,-23.438
1.56,-154.84,-24.79
1.6,-157.297,-25.649
1.63,-159.473,-26.646
1.66,-163.649,-27.138
1.69,-166.106,-27.768
1.73,-168.843,-28.616
1.76,-173.23,-28.685
1.79,-175.301,-29.005
1.82,-178.073,-29.899
1.86,-182.355,-30.14
1.89,-184.355,-30.529
1.92,-186.847,-31.125
1.95,-190.778,-31.056
1.99,-192.252,-31.251
2.02,-194.112,-31.789
2.05,-197.621,-31.537
2.08,-198.604,-31.766
2.12,-200.569,-32.442
2.15,-203.903,-32.247
2.18,-204.675,-32.328
2.21,-206.114,-32.843
2.25,-209.062,-32.671
2.28,-209.729,-32.832
2.31,-211.028,-33.519
2.34,-214.011,-33.576
2.38,-214.958,-33.931
2.41,-216.678,-34.733
2.44,-219.801,-34.848
2.47,-221.1,-35.134
2.51,-222.855,-35.707
2.54,-225.873,-35.673
2.57,-227.136,-35.89
2.6,-228.68,-36.417
2.64,-231.348,-36.406
2.67,-232.506,-36.646
2.7,-234.05,-37.127
2.73,-236.542,-37.047
2.77,-237.454,-37.185
2.8,-238.788,-37.803
2.83,-241.455,-38.021
2.86,-242.754,-38.491
2.9,-244.649,-39.155
2.93,-247.386,-39.361
2.96,-248.65,-39.602
2.99,-250.369,-39.819
3.03,-252.686,-39.705
3.06,-253.212,-39.636
3.09,-254.3,-39.728
3.13,-256.125,-39.751
3.16,-256.757,-40.175
3.19,-257.985,-40.587
3.22,-259.634,-40.576
3.26,-260.161,-40.736
3.29,-261.389,-40.965
3.32,-262.793,-40.999
3.35,-263.565,-41.206
3.39,-264.899,-41.71
3.42,-266.478,-41.95
3.45,-267.987,-42.431
3.48,-269.637,-43.084
3.52,-271.286,-43.142
3.55,-272.444,-42.878
3.58,-273.708,-42.947
3.61,-274.76,-42.981
3.65,-275.533,-43.142
3.68,-276.691,-43.428
3.71,-277.954,-43.634
3.74,-278.937,-43.829
3.78,-279.779,-43.852
3.81,-280.586,-43.783
3.84,-280.902,-43.439
3.87,-281.218,-43.302
3.91,-281.674,-43.462
3.94,-282.236,-43.737
3.97,-282.657,-43.932
4.0,-283.253,-44.115
4.04,-283.955,-44.127
4.07,-284.306,-44.104
4.1,-284.517,-43.966
4.13,-284.692,-43.726
4.17,-284.727,-43.657
4.2,-284.727,-43.726
4.23,-284.763,-43.634
4.26,-284.552,-43.623
4.3,-284.552,-43.565
4.33,-284.271,-43.325
4.36,-283.745,-43.05
4.39,-283.253,-42.832
4.43,-282.973,-42.867
4.46,-282.727,-43.061
4.49,-282.411,-43.084
4.52,-282.166,-42.821
4.56,-281.323,-42.408
4.59,-280.411,-41.904
4.62,-279.428,-41.332
4.66,-277.954,-40.976
4.69,-276.726,-40.954
4.72,-276.094,-40.954
4.75,-274.831,-40.931
4.79,-273.813,-40.839
4.82,-273.111,-40.381
4.85,-271.497,-39.968
4.88,-270.163,-39.636
4.92,-269.286,-39.224
4.95,-267.706,-39.212
4.98,-266.373,-39.361
5.01,-265.916,-39.132
5.05,-264.548,-38.96
5.08,-263.319,-38.8
5.11,-262.442,-38.101
5.14,-260.547,-37.62
5.18,-258.968,-37.471
5.21,-257.845,-37.093
5.24,-255.844,-36.852
5.27,-254.44,-36.749
5.31,-253.528,-36.337
5.34,-251.106,-36.005
5.37,-249.387,-35.547
5.4,-248.228,-34.905
5.44,-245.456,-34.653
5.47,-243.631,-34.458
5.5,-242.543,-33.863
5.53,-239.841,-34.012
5.57,-238.823,-34.286
5.6,-238.121,-33.874
5.63,-235.594,-33.588
5.66,-234.682,-33.53
5.7,-233.91,-32.981
5.73,-231.102,-32.522
5.76,-229.453,-32.076
5.79,-228.084,-31.228
5.83,-224.925,-30.919
5.86,-222.644,-30.621
5.89,-220.854,-29.796
5.92,-217.45,-29.59
5.96,-215.52,-29.635
5.99,-214.046,-29.189
6.02,-210.992,-29.177
6.05,-209.589,-29.292
6.09,-208.571,-28.811
6.12,-205.693,-28.65
6.15,-204.079,-28.261
6.18,-202.675,-27.333
6.22,-199.622,-27.539
6.25,-198.112,-27.482
6.28,-196.568,-26.84
6.32,-193.55,-26.76
6.35,-191.901,-26.52
6.38,-190.286,-25.649
6.41,-186.777,-25.214
6.45,-184.531,-24.733
6.48,-182.776,-23.85
6.51,-179.056,-23.633
6.54,-176.775,-23.495
6.58,-174.985,-22.819
6.61,-171.581,-22.602
6.64,-169.124,-22.166
6.67,-167.053,-21.502
6.71,-164.0,-21.055
6.74,-160.526,-20.162
6.77,-157.858,-19.692
6.8,-155.717,-19.6
6.84,-152.91,-19.165
6.87,-149.716,-18.844
6.9,-147.786,-18.398
6.93,-145.224,-17.653
6.97,-141.504,-17.16
7.0,-138.872,-16.542
7.03,-136.24,-15.751
7.06,-132.169,-15.328
7.1,-129.01,-14.801
7.13,-126.027,-14.193
7.16,-122.272,-13.884
7.19,-118.973,-13.495
7.23,-115.849,-12.899
7.26,-112.375,-12.578
7.29,-109.251,-12.418
7.32,-106.339,-12.051
7.36,-103.847,-11.433
7.39,-100.899,-10.757
7.42,-97.144,-10.104
7.45,-94.09,-9.084
7.49,-90.019,-8.111
7.52,-85.492,-7.618
7.55,-81.596,-7.08
7.58,-77.841,-6.541
7.62,-73.946,-6.266
7.65,-70.857,-6.049
7.68,-67.839,-5.579
7.71,-64.68,-5.086
7.75,-61.522,-4.674
7.78,-58.609,-4.216
7.81,-55.38,-3.769
7.85,-52.222,-3.311
7.88,-48.923,-2.795
7.91,-45.589,-2.371
7.94,-42.184,-1.833
7.98,-38.359,-1.317
8.01,-35.13,-0.813
8.04,-31.796,-0.206
8.07,-28.111,0.206
8.11,-25.304,0.813
8.14,-22.145,1.558
8.17,-18.671,2.119
8.2,-14.6,2.566
8.24,-9.546,3.013
8.27,-4.001,3.23
8.3,1.579,3.013
8.33,6.458,2.52
8.37,10.283,1.959
8.4,13.055,1.363
8.43,14.81,1.123
8.46,16.354,1.455
8.5,18.285,1.925
8.53,20.811,2.44
8.56,23.479,3.208
8.59,27.094,3.941
8.63,30.357,4.639
8.66,33.972,5.43
8.69,38.043,6.037
8.72,42.851,6.392
8.76,48.326,6.404
8.79,52.467,6.472
8.82,56.117,6.541
8.85,59.592,6.461
8.89,61.241,6.793
8.92,63.101,7.423
8.95,65.733,7.584
8.98,66.856,8.259
9.02,69.383,9.313
9.05,72.998,9.955
9.08,75.735,10.883
9.11,79.526,11.902
9.15,84.229,12.521
9.18,87.843,13.357
9.21,91.985,13.976
9.24,96.161,14.216
9.28,99.6,14.675
9.31,102.618,15.19
9.34,105.637,15.694
9.38,109.567,16.21
9.41,112.41,16.828
9.44,115.393,17.504
9.47,119.78,17.733
9.51,122.588,18.317
9.54,125.36,19.085
9.57,129.922,18.913
9.6,132.59,19.406
9.64,135.152,20.104
9.67,139.784,19.933
9.7,141.89,20.597
9.73,144.206,21.261
9.77,146.663,21.239
9.8,148.418,22.075
9.83,149.927,23.106
9.86,152.138,23.885
9.9,155.086,24.755
9.93,157.823,25.901
9.96,160.701,26.909
9.99,164.175,27.585
10.03,167.264,28.112
10.06,170.212,28.65
10.09,173.686,28.902
10.12,176.459,29.212
10.16,179.231,29.739
10.19,182.46,30.082
10.22,184.987,30.426
10.25,187.444,30.93
10.29,190.216,31.056
10.32,192.181,31.182
10.35,194.252,31.411
10.38,196.603,31.571
10.42,198.569,31.858
10.45,200.745,32.156
10.48,202.78,32.339
10.51,204.71,32.602
10.55,206.57,32.763
10.58,208.22,32.82
10.61,209.729,33.038
10.64,211.659,33.359
10.68,213.379,33.691
10.71,214.888,34.218
10.74,217.345,34.573
10.77,219.45,34.951
10.81,221.135,35.26
10.84,223.135,35.226
10.87,224.925,35.34
10.91,226.54,35.776
10.94,228.575,36.062
10.97,230.084,36.257
11.0,231.839,36.509
11.04,234.085,37.024
11.07,235.735,37.425
11.1,237.244,37.448
11.13,239.595,37.849
11.17,241.42,38.422
11.2,242.999,38.674
11.23,244.754,38.41
11.26,246.298,38.685
11.3,248.018,39.35
11.33,249.773,39.361
11.36,250.685,39.224
11.39,252.229,39.51
11.43,253.914,39.808
11.46,254.932,40.083
11.49,256.441,40.427
11.52,258.231,40.759
11.56,259.599,41.125
11.59,261.038,41.229
11.62,262.407,41.068
11.65,263.284,41.091
11.69,264.337,41.297
11.72,265.671,41.469
11.75,266.794,41.939
11.78,268.268,42.466
11.82,269.812,42.66
11.85,270.865,42.798
11.88,272.198,42.764
11.91,273.181,42.649
11.95,274.094,42.89
11.98,275.287,43.073
12.01,276.199,43.428
12.04,277.428,43.76
12.08,278.586,43.829
12.11,279.428,43.852
12.14,280.305,43.795
12.17,281.078,43.634
12.21,281.534,43.634
12.24,281.99,43.783
12.27,282.762,43.921
12.3,283.253,44.081
12.34,283.815,44.23
12.37,284.271,44.127
12.4,284.517,43.886
12.44,285.008,44.069
12.47,285.289,44.138
12.5,285.64,44.173
12.53,286.026,44.344
12.57,286.517,44.425
12.6,286.658,44.356
12.63,286.798,44.173
12.66,286.798,43.806
12.7,286.272,43.497
12.73,285.921,43.313
12.76,286.131,43.783
12.79,286.447,44.493
12.83,287.044,44.711
12.86,287.36,44.367
12.89,287.009,43.806
12.92,286.096,42.901
12.96,284.517,41.801
12.99,282.411,40.793
13.02,280.025,40.129
13.05,277.568,39.648
13.09,275.006,39.224
13.12,272.514,38.949
13.15,270.409,38.685
13.18,268.163,38.559
13.22,266.408,38.456
13.25,264.864,38.388
13.28,263.354,38.548
13.31,262.512,38.685
13.35,261.775,38.754
13.38,260.933,38.846
13.41,260.477,38.628
13.44,259.599,38.181
13.48,258.371,37.918
13.51,257.704,37.654
13.54,256.335,37.299
13.57,254.861,37.001
13.61,253.914,36.646
13.64,252.545,36.394
13.67,250.79,36.211
13.7,249.738,35.902
13.74,248.228,35.535
13.77,246.474,35.249
13.8,245.035,34.745
13.83,243.069,34.172
13.87,241.139,34.16
13.9,240.016,33.828
13.93,237.489,33.244
13.97,235.208,32.923
14.0,234.12,32.442
14.03,231.558,32.064
14.06,228.961,31.835
14.1,227.557,31.216
14.13,224.855,30.907
14.16,222.679,30.999
14.19,221.31,30.54
14.23,218.643,29.979
14.26,216.748,30.231
14.29,215.871,30.174
14.32,213.589,29.933
14.36,211.8,29.819
14.39,211.308,29.532
14.42,209.273,29.418
14.45,207.378,29.177
14.49,206.465,28.352
14.52,203.938,27.848
14.55,201.341,27.516
14.58,199.762,26.714
14.62,196.498,26.359
14.65,193.761,26.336
14.68,192.287,25.786
14.71,189.058,25.5
14.75,186.566,25.271
14.78,185.092,24.607
14.81,181.793,24.183
14.84,179.161,23.839
14.88,177.441,23.22
14.91,174.423,22.934
14.94,171.545,22.59
14.97,169.405,21.903
15.01,166.597,21.479
15.04,163.649,21.124
15.07,161.017,20.334
15.1,158.244,19.795
15.14,155.121,19.326
15.17,152.278,19.154
15.2,150.067,18.867
15.23,147.751,18.168
15.27,144.452,17.974
15.3,141.644,17.172
15.33,139.258,16.198
15.36,135.538,15.935
15.4,132.379,15.454
15.43,129.431,14.468
15.46,125.114,14.033
15.5,121.921,13.804
15.53,118.973,13.357
15.56,115.218,13.185
15.59,112.55,13.002
15.63,110.164,12.75
15.66,107.497,12.635
15.69,105.777,12.097
15.72,102.969,11.295
15.76,99.811,10.608
15.79,96.898,9.588
15.82,92.406,8.672
15.85,88.264,7.859
15.89,84.158,7.08
15.92,79.491,6.553
15.95,75.349,6.071
15.98,71.559,5.499
16.02,67.628,5.144
16.05,64.119,4.914
16.08,61.066,4.582
16.11,57.872,4.204
16.15,54.784,3.883
16.18,52.081,3.471
16.21,49.028,3.024
16.24,45.869,2.566
16.28,42.641,2.062
16.31,39.342,1.569
16.34,36.148,0.962
16.37,32.358,0.412
16.41,29.164,-0.149
16.44,26.076,-0.825
16.47,22.566,-1.409
16.5,19.232,-2.073
16.54,14.915,-2.726
16.57,9.686,-3.047
16.6,4.141,-3.104
16.63,-1.299,-2.933
16.67,-6.142,-2.532
16.7,-10.248,-2.073
16.73,-13.582,-1.776
16.76,-15.898,-1.684
16.8,-18.039,-1.81
16.83,-20.32,-2.028
16.86,-22.356,-2.52
16.89,-25.128,-3.196
16.93,-28.146,-3.78
16.96,-30.638,-4.559
16.99,-33.902,-5.052
17.03,-37.447,-5.464
17.06,-42.395,-5.751
17.09,-46.571,-5.842
17.12,-49.87,-6.106
17.16,-53.941,-6.186
17.19,-56.96,-6.392
17.22,-59.1,-7.08
17.25,-62.961,-7.492
17.29,-65.347,-8.111
17.32,-67.488,-9.199
17.35,-72.05,-9.634
17.38,-74.893,-10.356
17.42,-77.596,-11.513
17.45,-82.439,-11.845
17.48,-85.773,-12.372
17.51,-88.826,-13.334
17.55,-93.002,-13.666
17.58,-96.371,-14.022
17.61,-99.319,-14.652
17.64,-102.373,-15.156
17.68,-106.128,-15.602
17.71,-109.392,-16.141
17.74,-111.462,-17.0
17.77,-116.095,-17.447
17.81,-119.955,-17.699
17.84,-121.359,-18.638
17.87,-126.097,-18.673
17.9,-130.063,-18.604
17.94,-130.94,-19.898
17.97,-135.994,-19.91
18.0,-140.346,-20.104
18.03,-141.75,-21.514
18.07,-145.54,-21.193
18.1,-147.997,-20.78
18.13,-148.207,-22.006
18.16,-150.488,-23.094
18.2,-152.875,-23.85
18.23,-154.84,-25.03
18.26,-157.297,-26.107
18.29,-160.806,-27.161
18.33,-164.877,-27.757
18.36,-167.018,-28.49
18.39,-170.914,-28.868
18.42,-174.669,-28.822
18.46,-176.459,-29.292
18.49,-179.933,-29.796
18.52,-183.302,-29.991
18.55,-185.022,-30.632
18.59,-188.145,-31.022
18.62,-191.129,-30.964
18.65,-192.462,-31.377
18.69,-195.235,-31.64
18.72,-197.481,-31.468
18.75,-198.779,-31.858
18.78,-201.411,-32.213
18.82,-203.622,-32.213
18.85,-204.781,-32.511
18.88,-206.816,-32.774
18.91,-208.852,-32.751
18.95,-209.94,-32.981
18.98,-211.589,-33.324
19.01,-213.765,-33.542
19.04,-215.169,-34.034
19.08,-217.029,-34.619
19.11,-219.415,-34.802
19.14,-220.995,-34.985
19.17,-222.749,-35.329
19.21,-224.925,-35.466
19.24,-226.505,-35.764
19.27,-228.259,-36.131
19.3,-230.47,-36.406
19.34,-232.225,-36.795
19.37,-233.98,-37.07
19.4,-235.98,-37.219
19.43,-237.454,-37.253
19.47,-238.998,-37.643
19.5,-240.999,-37.906
19.53,-242.403,-38.09
19.56,-243.736,-38.376
19.6,-245.737,-38.662
19.63,-247.246,-38.949
19.66,-248.579,-39.247
19.69,-250.369,-39.361
19.73,-251.808,-39.522
19.76,-252.966,-39.865
19.79,-254.826,-40.106
19.82,-256.371,-40.312
19.86,-257.634,-40.816
19.89,-259.459,-41.045
19.92,-260.828,-41.068
19.95,-261.916,-41.263
19.99,-263.46,-41.217
20.02,-264.372,-41.229
20.05,-265.53,-41.744
20.08,-267.25,-42.111
20.12,-268.654,-42.431
20.15,-269.987,-42.878
20.18,-271.461,-42.901
20.22,-272.76,-42.741
20.25,-273.602,-42.855
20.28,-274.831,-43.038
20.31,-276.024,-43.107
20.35,-276.796,-43.543
20.38,-278.2,-43.84
20.41,-279.323,-43.749
20.44,-279.919,-43.817
20.48,-280.727,-43.772
20.51,-281.358,-43.508
20.54,-281.464,-43.52
20.57,-282.095,-43.646
20.61,-282.762,-43.726
20.64,-282.973,-43.978
20.67,-283.64,-44.012
20.7,-284.236,-43.817
20.74,-284.166,-43.955
20.77,-284.587,-43.921
20.8,-284.622,-43.485
20.83,-284.517,-43.6
20.87,-285.254,-44.173
20.9,-285.815,-44.367
20.93,-285.605,-44.23
20.96,-285.71,-43.806
21.0,-285.886,-43.474
21.03,-285.114,-43.268
21.06,-284.377,-42.901
21.09,-284.271,-42.683
21.13,-283.359,-42.935
21.16,-283.043,-42.958
21.19,-282.622,-42.5
21.22,-281.288,-42.237
21.26,-280.656,-41.859
21.29,-279.604,-41.274
21.32,-277.849,-41.034
21.35,-277.077,-40.965
21.39,-276.234,-40.885
21.42,-274.69,-40.896
21.45,-274.059,-40.702
21.48,-273.076,-40.22
21.52,-271.216,-39.911
21.55,-270.198,-39.487
21.58,-269.005,-39.041
21.61,-267.039,-39.178
21.65,-266.373,-39.212
21.68,-265.601,-38.892
21.71,-263.951,-38.903
21.75,-263.144,-38.72
21.78,-262.091,-38.032
21.81,-259.985,-37.666
21.84,-258.897,-37.379
21.88,-257.564,-36.944
21.91,-255.318,-36.818
21.94,-254.265,-36.555
21.97,-252.686,-36.131
22.01,-250.369,-35.867
22.04,-248.93,-35.123
22.07,-247.211,-34.63
22.1,-244.93,-34.756
22.14,-243.42,-34.435
22.17,-241.631,-33.943
22.2,-239.349,-33.851
22.23,-238.332,-33.748
22.27,-236.752,-33.29
22.3,-234.225,-33.072
22.33,-233.208,-32.809
22.36,-231.734,-32.488
22.4,-229.417,-32.373
22.43,-228.049,-31.972
22.46,-226.61,-31.514
22.49,-224.329,-31.434
22.53,-222.784,-31.148
22.56,-221.1,-30.54
22.59,-218.643,-30.3
22.62,-217.064,-30.071
22.66,-215.204,-29.59
22.69,-212.642,-29.189
22.72,-210.992,-29.154
22.75,-209.554,-29.063
22.79,-207.132,-28.708
22.82,-205.096,-28.215
22.85,-203.517,-27.642
22.88,-200.85,-27.287
22.92,-198.288,-26.909
22.95,-196.252,-26.428
22.98,-193.515,-26.176
23.01,-190.813,-25.912
23.05,-188.918,-25.271
23.08,-186.075,-24.824
23.11,-183.302,-24.492
23.14,-181.197,-23.816
23.18,-178.459,-23.45
23.21,-175.687,-23.45
23.24,-173.862,-23.026
23.28,-171.475,-22.396
23.31,-168.246,-22.04
23.34,-166.035,-21.468
23.37,-163.719,-20.803
23.41,-160.315,-20.368
23.44,-157.367,-19.967
23.47,-156.033,-19.749
23.5,-153.156,-19.108
23.54,-149.12,-18.329
23.57,-146.873,-17.79
23.6,-145.049,-17.08
23.63,-140.837,-17.16
23.67,-138.065,-16.92
23.7,-137.398,-15.832
23.73,-132.906,-15.637
23.76,-129.466,-15.511
23.8,-128.484,-14.354
23.83,-123.746,-13.827
23.86,-119.429,-13.815
23.89,-117.885,-12.647
23.93,-112.691,-12.166
23.96,-108.444,-12.498
23.99,-107.04,-11.776
24.02,-103.285,-11.135
24.06,-99.741,-10.986
24.09,-97.354,-10.092
24.12,-93.634,-9.05
24.15,-89.738,-8.351
24.19,-85.703,-7.687
24.22,-81.702,-7.022
24.25,-78.122,-6.427
24.28,-73.805,-6.175
24.32,-70.576,-5.911
24.35,-67.734,-5.315
24.38,-63.908,-4.983
24.41,-60.96,-4.628
24.45,-58.188,-4.009
24.48,-54.573,-3.677
24.51,-51.379,-3.334
24.54,-48.291,-2.761
24.58,-45.132,-2.245
24.61,-41.342,-1.867
24.64,-37.798,-1.386
24.67,-35.165,-0.699
24.71,-31.27,-0.252
24.74,-27.936,0.092
24.77,-25.409,0.939
24.81,-21.829,1.592
24.84,-18.425,2.131
24.87,-14.143,2.738
24.9,-9.019,3.059
24.94,-3.545,3.024
24.97,1.614,2.761
25.0,6.212,2.451
25.03,10.143,2.131
25.07,13.477,1.73
25.1,15.688,1.592
25.13,17.758,1.81
25.16,20.074,2.073
25.2,22.04,2.28
25.23,24.356,2.921
25.26,27.409,3.608
25.29,29.936,4.353
25.33,33.2,4.949
25.36,36.639,5.522
25.39,41.588,5.968
25.42,46.291,6.152
25.46,50.397,6.358
25.49,54.573,6.301
25.52,57.626,6.392
25.55,59.908,6.896
25.59,62.82,7.4
25.62,65.488,7.985
25.65,67.734,9.004
25.68,71.313,9.737
25.72,74.893,10.413
25.75,78.017,11.352
25.78,82.088,12.051
25.81,86.124,12.59
25.85,89.458,13.323
25.88,93.283,13.838
25.91,96.933,14.136
25.94,99.881,14.64
25.98,102.794,15.224
26.01,106.444,15.637
26.04,109.532,16.233
26.07,112.41,16.84
26.11,115.884,17.206
26.14,119.254,17.756
26.17,122.272,18.329
26.2,125.465,18.524
26.24,128.835,18.879
26.27,132.169,19.589
26.3,135.327,19.887
26.34,139.012,20.357
26.37,142.346,20.861
26.4,144.031,21.353
26.43,147.014,21.456
26.47,148.734,22.098
26.5,150.067,23.163
26.53,152.945,23.598
26.56,154.945,24.538
26.6,157.718,25.672
26.63,160.526,26.52
26.66,163.368,27.413
26.69,166.808,27.997
26.73,169.826,28.49
26.76,172.774,28.914
26.79,176.213,29.189
26.82,178.951,29.658
26.86,181.828,30.311
26.89,185.268,30.655
26.92,187.83,31.01
26.95,190.181,31.342
26.99,192.953,31.308
27.02,194.814,31.331
27.05,196.638,31.663
27.08,199.516,31.789
27.12,201.201,32.041
27.15,202.85,32.476
27.18,205.518,32.591
27.21,206.956,32.694
27.25,208.15,32.912
27.28,210.571,32.855
27.31,211.8,33.095
27.34,213.133,33.794
27.38,215.871,34.034
27.41,217.134,34.367
27.44,218.994,34.985
27.47,221.486,35.054
27.51,222.574,34.939
27.54,224.469,35.512
27.57,227.171,36.028
27.6,228.294,36.154
27.64,230.26,36.52
27.67,232.681,36.658
27.7,233.875,36.921
27.73,235.629,37.253
27.77,237.875,37.276
27.8,238.928,37.574
27.83,240.543,37.975
27.87,242.789,38.124
27.9,244.087,38.502
27.93,245.702,39.018
27.96,248.018,39.258
28.0,249.387,39.384
28.03,250.615,39.464
28.06,252.545,39.487
28.09,253.809,39.819
28.13,255.107,40.255
28.16,256.897,40.45
28.19,258.231,40.713
28.22,259.775,41.125
28.26,261.284,41.206
28.29,262.231,41.16
28.32,263.495,41.183
28.35,264.583,41.229
28.39,265.636,41.584
28.42,267.039,42.019
28.45,268.549,42.328
28.48,269.882,42.706
28.52,271.111,42.855
28.55,272.444,42.729
28.58,273.392,42.66
28.61,274.339,42.844
28.65,275.392,43.061
28.68,276.445,43.394
28.71,277.638,43.68
28.74,278.761,43.783
28.78,279.533,43.783
28.81,280.376,43.669
28.84,280.902,43.531
28.87,281.253,43.497
28.91,281.709,43.543
28.94,282.376,43.669
28.97,282.692,43.932
29.0,283.324,44.138
29.04,283.885,44.035
29.07,284.377,44.207
29.1,285.219,44.402
29.13,285.605,44.39
29.17,286.061,44.574
29.2,287.114,44.677
29.23,287.325,44.585
29.26,287.325,44.218
29.3,287.289,43.783
29.33,286.342,43.199
29.36,285.851,42.832
29.4,284.798,42.489
29.43,283.92,42.649
29.46,283.955,43.119
29.49,283.745,43.405
29.53,283.253,43.348
29.56,282.903,42.924
29.59,282.341,42.237
29.62,280.832,41.607
29.66,279.218,40.976
29.69,277.884,40.472
29.72,276.059,40.369
29.75,274.515,40.209
29.79,273.076,39.842
29.82,271.391,39.59
29.85,269.917,39.384
29.88,268.513,39.075
29.92,266.899,38.937
29.95,265.952,39.018
29.98,264.969,39.041
30.01,263.846,39.109
30.05,263.46,39.052
30.08,262.547,38.834
30.11,261.354,38.502
30.14,260.477,38.021
30.18,259.248,37.689
30.21,257.774,37.448
30.24,256.406,37.082
30.27,255.002,36.692
30.31,253.317,36.452
30.34,251.843,36.074
30.37,250.229,35.581
30.4,248.088,35.169
30.44,246.474,34.745
30.47,244.438,34.229
30.5,242.122,33.931
30.53,240.613,33.668
30.57,238.577,33.336
30.6,236.226,33.084
30.63,234.612,32.683
30.66,232.646,32.385
30.7,230.505,32.339
30.73,229.137,32.11
30.76,227.277,31.846
30.79,225.171,31.583
30.83,224.188,31.331
30.86,222.469,31.216
30.89,220.468,31.067
30.92,219.275,30.518
30.96,217.345,30.22
30.99,215.414,30.231
31.02,214.221,29.796
31.06,212.115,29.383
31.09,210.115,29.177
31.12,208.466,28.478
31.15,205.728,27.826
31.19,203.271,27.413
31.22,201.166,26.829
31.25,197.937,26.588
31.28,195.551,26.462
31.32,193.585,26.21
31.35,191.023,26.119
31.38,188.953,25.786
31.41,187.093,25.214
31.45,184.46,24.847
31.48,182.074,24.366
31.51,179.968,23.679
31.54,177.055,23.381
31.58,174.704,23.083
31.61,172.353,22.361
31.64,169.019,21.834
31.67,166.386,21.365
31.71,163.895,20.689
31.74,160.42,20.185
31.77,157.437,19.784
31.8,154.805,19.051
31.84,152.103,18.787
31.87,149.225,18.821
31.9,147.084,18.249
31.93,144.803,17.859
31.97,141.539,17.378
32.0,139.258,16.737
32.03,136.977,16.095
32.06,133.257,15.717
32.1,130.379,15.179
32.13,127.606,14.274
32.16,123.219,13.861
32.19,119.991,13.54
32.23,117.043,12.83
32.26,112.585,12.59
32.29,109.778,12.452
32.32,107.251,11.902
32.36,103.531,11.524
32.39,100.969,10.883
32.42,97.81,9.898
32.45,93.81,9.233
32.49,90.23,8.534
32.52,86.194,7.71
32.55,82.298,7.16
32.59,78.438,6.69
32.62,74.542,6.301
32.65,71.419,5.808
32.68,67.944,5.407
32.72,64.575,5.144
32.75,61.803,4.662
32.78,58.644,4.147
32.81,55.24,3.803
32.85,52.222,3.334
32.88,49.028,2.795
32.91,45.624,2.325
32.94,42.009,1.993
32.98,38.991,1.489
33.01,35.657,0.939
33.04,31.937,0.584
33.07,29.375,-0.023
33.11,26.251,-0.653
33.14,22.882,-1.168
33.17,19.794,-1.982
33.2,15.617,-2.715
33.24,10.423,-3.082
33.27,4.457,-3.391
33.3,-1.685,-3.414
33.33,-7.23,-2.887
33.37,-11.792,-2.131
33.4,-14.845,-1.65
33.43,-16.67,-1.42
33.46,-18.144,-1.237
33.5,-19.583,-1.42
33.53,-21.268,-2.051
33.56,-23.759,-2.555
33.59,-25.935,-3.196
33.63,-28.708,-4.158
33.66,-32.077,-4.995
33.69,-36.288,-5.693
33.72,-41.377,-6.117
33.76,-45.975,-6.518
33.79,-50.993,-6.644
33.82,-55.415,-6.621
33.85,-58.644,-6.839
33.89,-61.768,-7.102
33.92,-64.575,-7.366
33.95,-66.19,-8.088
33.98,-68.927,-8.798
34.02,-71.875,-9.325
34.05,-74.191,-10.253
34.08,-77.631,-11.112
34.12,-81.526,-11.696
34.15,-84.79,-12.544
34.18,-88.651,-13.266
34.21,-92.792,-13.666
34.25,-96.056,-14.113
34.28,-99.074,-14.617
34.31,-102.408,-15.018
34.34,-105.777,-15.522
34.38,-108.514,-16.221
34.41,-111.989,-16.782
34.44,-115.814,-17.241
34.47,-118.867,-17.997
34.51,-122.166,-18.466
34.54,-126.132,-18.627
34.57,-129.185,-19.073
34.6,-132.379,-19.555
34.64,-135.994,-19.83
34.67,-139.819,-20.54
34.7,-142.381,-21.158
34.73,-144.978,-21.216
34.77,-147.365,-21.124
34.8,-147.751,-22.075
34.83,-150.734,-23.232
34.86,-153.261,-23.896
34.9,-155.121,-24.893
34.93,-158.069,-25.695
34.96,-160.912,-26.691
34.99,-163.965,-27.505
35.03,-167.053,-27.963
35.06,-170.071,-28.375
35.09,-173.16,-28.753
35.12,-176.038,-29.005
35.16,-178.635,-29.475
35.19,-181.863,-30.036
35.22,-184.741,-30.495
35.25,-187.093,-30.953
35.29,-190.216,-31.171
35.32,-192.462,-31.319
35.35,-194.392,-31.652
35.38,-197.06,-31.617
35.42,-199.13,-31.778
35.45,-200.99,-32.282
35.48,-203.587,-32.385
35.51,-205.132,-32.442
35.55,-206.57,-32.728
35.58,-208.817,-32.706
35.61,-210.045,-32.751
35.65,-211.203,-33.255
35.68,-213.765,-33.576
35.71,-215.309,-33.966
35.74,-216.818,-34.699
35.78,-219.696,-34.985
35.81,-221.486,-35.088
35.84,-222.749,-35.489
35.87,-225.522,-35.535
35.91,-227.136,-35.707
35.94,-228.365,-36.245
35.97,-230.856,-36.314
36.0,-232.681,-36.704
36.04,-234.05,-37.368
36.07,-236.507,-37.322
36.1,-237.665,-36.979
36.13,-238.893,-37.551
36.17,-241.35,-37.895
36.2,-242.368,-38.032
36.23,-243.631,-38.422
36.26,-246.193,-38.72
36.3,-247.491,-39.132
36.33,-248.825,-39.476
36.36,-251.036,-39.35
36.39,-252.054,-39.499
36.43,-253.212,-39.945
36.46,-255.283,-40.014
36.49,-256.441,-40.243
36.52,-257.739,-40.759
36.56,-259.564,-40.919
36.59,-260.652,-40.919
36.62,-261.74,-41.103
36.65,-263.249,-41.068
36.69,-264.091,-41.137
36.72,-265.074,-41.698
36.75,-266.969,-41.985
36.78,-268.233,-42.351
36.82,-269.601,-42.89
36.85,-271.286,-42.855
36.88,-272.339,-42.683
36.91,-273.322,-42.867
36.95,-274.69,-42.89
36.98,-275.638,-43.073
37.01,-276.62,-43.611
37.04,-278.13,-43.772
37.08,-279.007,-43.749
37.11,-279.779,-43.863
37.14,-280.832,-43.68
37.18,-281.288,-43.474
37.21,-281.569,-43.485
37.24,-282.13,-43.6
37.27,-282.762,-43.737
37.31,-283.043,-43.943
37.34,-283.675,-44.001
37.37,-284.236,-43.921
37.4,-284.236,-43.955
37.44,-284.657,-43.795
37.47,-284.973,-43.795
37.5,-285.008,-43.921
37.53,-285.429,-43.943
37.57,-285.57,-43.955
37.6,-285.675,-44.058
37.63,-285.815,-43.817
37.66,-285.57,-43.508
37.7,-285.149,-43.245
37.73,-284.622,-42.912
37.76,-284.026,-42.764
37.79,-283.569,-42.855
37.83,-283.078,-42.821
37.86,-282.481,-42.523
37.89,-281.499,-42.145
37.92,-280.551,-41.744
37.96,-279.323,-41.263
37.99,-277.919,-40.885
38.02,-276.761,-40.77
38.05,-275.778,-40.873
38.09,-274.585,-40.873
38.12,-273.637,-40.633
38.15,-272.62,-40.243
38.18,-271.286,-39.865
38.22,-269.952,-39.453
38.25,-268.654,-39.109
38.28,-267.32,-39.155
38.31,-266.373,-39.224
38.35,-265.46,-39.098
38.38,-264.267,-38.972
38.41,-263.214,-38.674
38.44,-262.126,-38.021
38.48,-260.371,-37.528
38.51,-258.687,-37.288
38.54,-257.388,-36.921
38.57,-255.493,-36.612
38.61,-253.738,-36.532
38.64,-252.791,-36.245
38.67,-250.72,-35.913
38.71,-248.79,-35.34
38.74,-247.456,-34.882
38.77,-245.526,-34.836
38.8,-243.596,-34.607
38.84,-242.297,-34.115
38.87,-240.297,-33.828
38.9,-238.612,-33.874
38.93,-237.349,-33.427
38.97,-235.068,-32.992
39.0,-233.313,-32.82
39.03,-232.295,-32.499
39.06,-229.979,-32.247
39.1,-227.979,-32.018
39.13,-227.101,-31.503
39.16,-224.68,-31.251
39.19,-222.328,-31.159
39.23,-221.521,-30.426
39.26,-218.784,-30.082
39.29,-216.467,-30.208
39.32,-215.59,-29.578
39.36,-212.607,-29.074
39.39,-210.571,-29.28
39.42,-210.01,-28.834
39.45,-206.921,-28.307
39.49,-204.254,-28.009
39.52,-203.412,-27.241
39.55,-200.148,-26.909
39.58,-197.025,-26.932
39.62,-196.288,-26.336
39.65,-193.234,-26.187
39.68,-190.427,-26.268
39.71,-189.514,-25.397
39.75,-186.18,-24.973
39.78,-183.583,-24.813
39.81,-182.32,-23.885
39.84,-178.88,-23.587
39.88,-176.318,-23.621
39.91,-174.95,-22.945
39.94,-171.861,-22.51
39.97,-168.948,-22.178
40.01,-166.948,-21.376
40.04,-164.105,-20.769
40.07,-160.631,-20.322
40.1,-157.823,-19.795
40.14,-156.454,-19.543
40.17,-153.015,-18.947
40.2,-148.804,-18.272
40.24,-147.26,-17.596
40.27,-144.873,-16.977
40.3,-139.995,-17.286
40.33,-138.451,-16.748
40.37,-137.222,-15.683
40.4,-131.888,-15.854
40.43,-129.852,-15.385
40.46,-128.448,-14.136
40.5,-122.552,-14.102
40.53,-119.92,-13.724
40.56,-117.639,-12.418
40.59,-111.638,-12.429
40.63,-108.936,-12.383
40.66,-106.619,-11.49
40.69,-102.267,-11.307
40.72,-100.232,-10.883
40.76,-96.828,-9.943
40.79,-93.178,-9.256
40.82,-90.125,-8.317
40.85,-85.457,-7.664
40.89,-81.877,-7.102
40.92,-78.262,-6.495
40.95,-73.805,-6.278
40.98,-71.033,-5.945
41.02,-67.979,-5.35
41.05,-64.154,-5.063
41.08,-61.311,-4.617
41.11,-58.293,-4.032
41.15,-54.713,-3.735
41.18,-51.695,-3.311
41.21,-48.642,-2.692
41.24,-45.168,-2.28
41.28,-41.447,-1.902
41.31,-38.148,-1.317
41.34,-35.025,-0.722
41.37,-31.375,-0.344
41.41,-28.217,0.172
41.44,-25.304,0.916
41.47,-22.04,1.501
41.5,-18.53,2.062
41.54,-14.424,2.715
41.57,-9.16,3.116
41.6,-3.58,3.173
41.63,1.86,2.933
41.67,6.633,2.486
41.7,10.493,1.959
41.73,13.406,1.466
41.77,15.372,1.398
41.8,17.091,1.638
41.83,19.267,1.947
41.86,21.654,2.383
41.9,24.11,3.059
41.93,27.304,3.861
41.96,30.533,4.628
41.99,34.007,5.338
42.03,37.798,5.716
42.06,42.184,5.911
42.09,46.922,6.049
42.12,51.099,6.163
42.16,54.327,6.209
42.19,57.591,6.335
42.22,59.908,6.759
42.25,62.048,7.492
42.29,65.382,7.985
42.32,67.734,8.821
42.35,70.647,9.852
42.38,74.963,10.333
42.42,77.911,11.135
42.45,81.386,12.074
42.48,85.878,12.487
42.51,89.107,13.151
42.55,92.651,13.838
42.58,96.371,14.079
42.61,99.39,14.514
42.64,102.618,15.064
42.68,105.496,15.625
42.71,109.111,16.255
42.74,112.585,16.656
42.77,114.691,17.401
42.81,119.113,17.894
42.84,123.009,18.1
42.87,124.342,18.856
42.9,129.15,19.005
42.94,133.186,19.268
42.97,134.169,20.368
43.0,139.714,20.322
43.03,143.294,20.425
43.07,144.417,21.617
43.1,148.207,21.101
43.13,148.453,21.88
43.16,150.348,23.175
43.2,152.594,23.53
43.23,154.489,24.733
43.26,157.613,25.798
43.29,159.859,26.783
43.33,163.579,27.619
43.36,167.509,27.974
43.39,169.405,28.673
43.43,173.3,28.971
43.46,176.88,28.948
43.49,178.459,29.796
43.52,182.355,30.334
43.56,185.724,30.357
43.59,187.022,31.056
43.62,190.532,31.319
43.65,193.199,30.999
43.69,193.971,31.423
43.72,197.025,31.629
43.75,199.341,31.537
43.78,200.218,32.156
43.82,203.131,32.396
43.85,205.377,32.328
43.88,206.079,32.786
43.91,208.43,32.855
43.95,210.326,32.683
43.98,211.098,33.255
44.01,213.449,33.771
44.04,215.625,33.92
44.08,216.713,34.561
44.11,219.45,34.974
44.14,221.451,34.928
44.17,222.574,35.146
44.21,224.96,35.398
44.24,226.891,35.604
44.27,228.154,36.211
44.3,230.505,36.486
44.34,232.611,36.669
44.37,234.225,37.391
44.4,236.612,37.666
44.43,238.402,37.505
44.47,239.384,37.505
44.5,241.595,37.826
44.53,243.21,38.136
44.56,244.228,38.571
44.6,246.193,38.754
44.63,247.913,39.018
44.66,249.176,39.304
44.69,250.615,39.224
44.73,251.984,39.327
44.76,253.528,39.762
44.79,255.037,40.186
44.82,256.511,40.484
44.86,258.301,40.759
44.89,259.81,41.068
44.92,261.108,41.194
44.96,262.372,41.068
44.99,263.425,41.011
45.02,264.302,41.206
45.05,265.46,41.526
45.09,266.829,41.881
45.12,268.198,42.328
45.15,269.707,42.752
45.18,271.005,42.786
45.22,272.163,42.741
45.25,273.286,42.683
45.28,274.164,42.844
45.31,275.392,43.05
45.35,276.445,43.417
45.38,277.673,43.737
45.41,278.726,43.863
45.44,279.744,43.806
45.48,280.481,43.657
45.51,281.113,43.543
45.54,281.639,43.428
45.57,281.955,43.531
45.61,282.481,43.829
45.64,283.148,43.932
45.67,283.499,44.115
45.7,284.096,44.161
45.74,284.868,44.207
45.77,285.254,44.356
45.8,285.57,44.069
45.83,285.851,44.081
45.87,286.623,44.516
45.9,287.149,44.654
45.93,287.009,44.241
45.96,286.903,43.772
46.0,286.342,43.176
46.03,285.745,42.935
46.06,284.657,42.569
46.09,283.85,42.5
46.13,283.604,42.683
46.16,282.973,42.912
46.19,282.411,42.786
46.22,281.815,42.282
46.26,280.762,41.859
46.29,279.639,41.481
46.32,278.445,40.976
46.35,276.936,40.839
46.39,276.094,40.885
46.42,275.006,40.667
46.45,273.532,40.484
46.49,272.725,40.163
46.52,271.426,39.705
46.55,269.672,39.464
46.58,268.654,39.201
46.62,267.566,39.063
46.65,265.987,39.212
46.68,265.425,39.132
46.71,264.513,38.869
46.75,263.039,38.743
46.78,262.161,38.273
46.81,260.933,37.643
46.84,258.792,37.517
46.88,257.88,37.219
46.91,256.3,36.715
46.94,254.16,36.6
46.97,253.423,36.314
47.01,251.422,35.856
47.04,249.387,35.73
47.07,248.264,35.191
47.1,246.123,34.596
47.14,243.877,34.412
47.17,242.403,33.92
47.2,240.367,33.588
47.23,238.156,33.576
47.27,236.787,33.129
47.3,234.541,32.602
47.33,232.401,32.557
47.36,231.207,32.362
47.4,229.207,32.087
47.43,227.136,32.007
47.46,226.013,31.503
47.49,224.223,31.274
47.53,222.118,31.377
47.56,221.065,30.93
47.59,219.135,30.392
47.62,216.959,30.357
47.66,215.941,30.014
47.69,213.73,29.578
47.72,211.589,29.418
47.75,210.291,28.937
47.79,207.729,28.352
47.82,205.272,27.837
47.85,203.271,27.264
47.88,200.604,26.852
47.92,197.726,26.703
47.95,195.726,26.485
47.98,193.375,26.371
48.02,191.164,26.268
48.05,189.374,25.729
48.08,186.812,25.271
48.11,184.601,24.893
48.15,182.46,24.217
48.18,179.652,23.793
48.21,177.301,23.518
48.24,175.16,23.037
48.28,172.107,22.533
48.31,169.51,21.96
48.34,166.948,21.319
48.37,163.86,20.861
48.41,160.841,20.242
48.44,157.999,19.738
48.47,154.91,19.154
48.5,152.243,18.81
48.54,149.681,18.673
48.57,147.084,18.226
48.6,144.487,17.779
48.63,141.82,17.034
48.67,138.942,16.588
48.7,136.029,16.255
48.73,133.467,15.66
48.76,130.554,15.03
48.8,126.799,14.537
48.83,123.851,13.93
48.86,120.412,13.266
48.89,116.165,12.979
48.93,113.077,12.509
48.96,109.883,12.063
48.99,106.093,12.063
49.02,103.812,11.604
49.06,101.18,10.585
49.09,97.144,10.024
49.12,93.95,9.348
49.15,90.335,8.351
49.19,86.053,7.618
49.22,82.123,7.16
49.25,78.192,6.679
49.28,75.104,6.61
49.32,72.998,7.343
49.35,71.91,7.87
49.38,71.278,7.332
49.41,69.594,6.53
49.45,67.242,5.751
49.48,64.33,4.754
49.51,60.399,3.723
49.55,55.836,2.807
49.58,50.888,1.856
49.61,45.589,0.905
49.64,39.833,0.092
49.68,34.042,-0.493
49.71,29.41,-1.168
49.74,24.812,-1.684
49.77,20.741,-2.062
49.81,16.495,-2.681
49.84,11.195,-3.139
49.87,5.475,-3.196
49.9,0.211,-2.772
49.94,-4.106,-2.165
49.97,-7.335,-1.524
50.0,-9.441,-1.042
50.03,-10.739,-0.687
50.07,-11.757,-0.676
50.1,-13.231,-1.111
50.13,-15.091,-1.753
50.16,-17.513,-2.371
50.2,-20.882,-2.875
50.23,-24.426,-3.735
50.26,-28.252,-4.766
50.29,-32.393,-5.418
50.33,-36.359,-5.923
50.36,-41.167,-6.472
50.39,-45.94,-6.931
50.42,-51.169,-6.908
50.46,-55.556,-6.759
50.49,-58.679,-6.988
50.52,-61.873,-7.137
50.55,-63.979,-7.251
50.59,-65.593,-7.813
50.62,-68.155,-8.477
50.65,-70.296,-9.199
50.68,-72.787,-9.875
50.72,-76.122,-10.493
50.75,-79.175,-11.444
50.78,-82.79,-12.361
50.81,-86.966,-12.807
50.85,-90.546,-13.403
50.88,-94.231,-14.067
50.91,-97.705,-14.457
50.94,-100.934,-14.64
50.98,-103.812,-15.053
51.01,-106.725,-15.843
51.04,-110.374,-16.439
51.08,-113.568,-16.92
51.11,-116.551,-17.687
51.14,-120.938,-18.157
51.17,-124.062,-18.535
51.21,-126.799,-18.936
51.24,-131.046,-19.005
51.27,-133.923,-19.692
51.3,-136.942,-20.448
51.34,-141.153,-20.334
51.37,-143.539,-20.998
51.4,-145.996,-21.731
51.43,-148.172,-21.869
51.47,-149.857,-22.579
51.5,-152.032,-23.438
51.53,-154.068,-24.481
51.56,-157.156,-25.42
51.6,-159.824,-26.233
51.63,-162.561,-27.104
51.66,-166.176,-27.7
51.69,-168.773,-28.158
51.73,-171.721,-28.696
51.76,-173.686,-27.722
51.79,-171.826,-24.641
51.82,-170.107,-22.762
51.86,-169.72,-23.106
51.89,-168.282,-23.553
51.92,-167.159,-24.137
51.95,-168.738,-25.523
51.99,-170.352,-27.402
52.02,-173.405,-29.544
52.05,-178.986,-31.331
52.08,-183.794,-33.393
52.12,-189.935,-35.214
52.15,-196.638,-35.982
52.18,-201.797,-36.36
52.21,-207.237,-36.452
52.25,-211.835,-35.867
52.28,-214.572,-35.272
52.31,-217.134,-34.871
52.34,-219.556,-34.309
52.38,-220.398,-34.16
52.41,-221.591,-34.309
52.44,-223.1,-34.183
52.47,-223.662,-34.424
52.51,-224.785,-34.836
52.54,-226.54,-34.974
52.57,-227.382,-35.489
52.61,-229.031,-35.993
52.64,-230.927,-36.039
52.67,-232.05,-36.417
52.7,-233.804,-36.807
52.74,-235.489,-36.761
52.77,-236.577,-36.933
52.8,-238.402,-37.402
52.83,-240.437,-37.941
52.87,-242.192,-38.536
52.9,-244.403,-39.075
52.93,-246.825,-39.441
52.96,-248.509,-39.819
53.0,-250.72,-39.911
53.03,-252.686,-39.854
53.06,-253.633,-39.945
53.09,-255.318,-39.957
53.13,-256.686,-40.037
53.16,-257.529,-40.404
53.19,-259.073,-40.53
53.22,-260.126,-40.576
53.26,-260.828,-40.77
53.29,-262.056,-40.759
53.32,-262.863,-40.816
53.35,-263.811,-41.137
53.39,-265.039,-41.549
53.42,-266.443,-42.042
53.45,-268.092,-42.523
53.48,-269.777,-42.912
53.52,-271.216,-43.016
53.55,-272.514,-42.935
53.58,-273.743,-42.901
53.61,-274.831,-43.119
53.65,-276.059,-43.394
53.68,-277.287,-43.634
53.71,-278.516,-43.886
53.74,-279.674,-43.932
53.78,-280.341,-43.886
53.81,-281.148,-43.669
53.84,-281.534,-43.417
53.87,-281.639,-43.291
53.91,-281.92,-43.256
53.94,-282.306,-43.417
53.97,-282.622,-43.611
54.0,-282.903,-43.726
54.04,-283.359,-43.714
54.07,-283.569,-43.703
54.1,-283.675,-43.669
54.14,-283.85,-43.451
54.17,-283.745,-43.462
54.2,-283.78,-43.657
54.23,-284.201,-43.611
54.27,-284.236,-43.611
54.3,-284.271,-43.646
54.33,-284.271,-43.394
54.36,-283.85,-43.084
54.4,-283.499,-42.878
54.43,-283.253,-42.89
54.46,-283.008,-43.038
54.49,-282.867,-43.027
54.53,-282.446,-42.752
54.56,-281.534,-42.328
54.59,-280.586,-41.79
54.62,-279.604,-41.217
54.66,-278.094,-40.908
54.69,-276.866,-40.908
54.72,-276.129,-40.908
54.75,-274.901,-40.908
54.79,-273.953,-40.85
54.82,-273.392,-40.427
54.85,-271.742,-39.98
54.88,-270.338,-39.682
54.92,-269.637,-39.315
54.95,-267.882,-39.384
54.98,-267.039,-39.487
55.01,-266.583,-39.201
55.05,-265.074,-39.144
55.08,-264.162,-38.869
55.11,-263.004,-38.078
55.14,-260.898,-37.654
55.18,-259.599,-37.448
55.21,-258.406,-37.047
55.24,-256.195,-36.875
55.27,-254.932,-36.795
55.31,-253.984,-36.429
55.34,-251.492,-36.119
55.37,-249.983,-35.592
55.4,-248.685,-34.894
55.44,-245.947,-34.813
55.47,-244.508,-34.699
55.5,-243.21,-34.172
55.53,-240.718,-34.195
55.57,-239.735,-34.229
55.6,-238.612,-33.714
55.63,-236.121,-33.427
55.66,-234.927,-33.118
55.7,-233.664,-32.557
55.73,-230.891,-32.373
55.76,-229.417,-32.03
55.8,-227.979,-31.377
55.83,-225.171,-31.262
55.86,-223.241,-31.045
55.89,-221.661,-30.208
55.93,-218.748,-30.014
55.96,-216.888,-29.968
55.99,-215.59,-29.418
56.02,-212.221,-29.131
56.06,-210.606,-28.983
56.09,-209.448,-28.559
56.12,-205.974,-28.364
56.15,-204.149,-27.654
56.19,-202.254,-26.795
56.22,-199.165,-27.195
56.25,-197.305,-27.127
56.28,-195.586,-26.6
56.32,-192.673,-26.646
56.35,-191.374,-26.52
56.38,-189.69,-25.729
56.41,-186.601,-25.466
56.45,-184.636,-24.801
56.48,-182.635,-23.965
56.51,-179.477,-24.022
56.54,-177.582,-23.782
56.58,-175.406,-22.957
56.61,-172.072,-22.361
56.64,-169.58,-22.006
56.67,-167.123,-21.284
56.71,-164.14,-21.032
56.74,-161.227,-20.471
56.77,-158.42,-19.956
56.8,-156.349,-19.749
56.84,-153.612,-19.371
56.87,-150.313,-18.925
56.9,-148.172,-18.168
56.93,-145.435,-17.344
56.97,-141.118,-16.84
57.0,-138.24,-16.164
57.03,-135.783,-15.419
57.06,-131.572,-15.167
57.1,-128.343,-14.846
57.13,-125.922,-14.182
57.16,-121.991,-13.873
57.19,-118.657,-13.644
57.23,-116.2,-12.91
57.26,-112.375,-12.544
57.29,-109.076,-12.475
57.33,-106.584,-11.96
57.36,-103.917,-11.284
57.39,-100.864,-10.757
57.42,-97.319,-10.069
57.46,-94.196,-9.038
57.49,-90.125,-8.145
57.52,-85.773,-7.687
57.55,-81.982,-7.148
57.59,-78.262,-6.553
57.62,-74.297,-6.278
57.65,-71.173,-6.037
57.68,-68.225,-5.476
57.72,-64.716,-5.04
57.75,-61.417,-4.617
57.78,-58.574,-4.044
57.81,-55.17,-3.735
57.85,-51.976,-3.345
57.88,-48.642,-2.761
57.91,-45.448,-2.337
57.94,-42.079,-1.959
57.98,-38.464,-1.604
58.01,-35.902,-1.111
58.04,-32.744,-0.596
58.07,-29.164,-0.286
58.11,-26.813,0.504
58.14,-23.479,1.363
58.17,-19.724,2.039
58.2,-15.582,2.841
58.24,-9.967,3.334
58.27,-3.966,3.368
58.3,1.86,3.116
58.33,6.844,2.566
58.37,10.774,1.947
58.4,13.582,1.386
58.43,15.372,1.237
58.46,16.846,1.489
58.5,18.951,1.902
58.53,21.373,2.417
58.56,23.584,3.104
58.59,27.129,3.643
58.63,29.866,4.239
58.66,32.99,5.029
58.69,36.639,5.682
58.72,41.272,6.152
58.76,47.063,6.381
58.79,51.555,6.713
58.82,55.836,6.942
58.86,59.872,6.541
58.89,61.522,6.839
58.92,63.943,7.618
58.95,67.453,7.893
58.99,68.33,8.97
59.02,71.419,9.875
59.05,75.665,10.081
59.08,77.596,11.249
59.12,81.105,11.948
59.15,85.457,11.891
59.18,87.914,12.865
59.21,91.248,13.609
59.25,95.248,13.666
59.28,98.232,14.216
59.31,100.829,14.904
59.34,104.092,15.305
59.38,108.023,15.854
59.41,110.55,16.691
59.44,113.744,17.504
59.47,118.903,17.642
59.51,121.745,18.375
59.54,124.132,19.337
59.57,129.642,18.684
59.6,132.204,19.337
59.64,134.45,20.54
59.67,139.89,20.104
59.7,142.838,20.471
59.73,143.996,21.548
59.77,147.681,21.204
59.8,149.4,21.788
59.83,150.523,23.22
59.86,152.98,23.656
59.9,154.98,24.675
59.93,157.718,25.901
59.96,160.069,26.886
59.99,163.93,27.482
60.03,167.088,27.963
60.06,169.685,28.662
60.09,173.476,28.845
60.12,176.424,29.086
60.16,178.88,29.83
60.19,182.425,30.197
60.22,185.092,30.392
60.25,187.338,30.953
60.29,190.427,31.125
60.32,192.567,31.113
60.35,194.147,31.468
60.39,196.884,31.652
60.42,199.13,31.72
60.45,200.604,32.087
60.48,202.885,32.282
60.52,204.956,32.328
60.55,206.079,32.557
60.58,207.834,32.694
60.61,209.764,32.728
60.65,210.957,33.164
60.68,212.747,33.691
60.71,214.993,34.012
60.74,216.818,34.596
60.78,219.17,35.283
60.81,221.486,35.386
60.84,223.206,35.409
60.87,225.276,35.753
60.91,227.557,36.005
60.94,229.137,36.222
60.97,230.821,36.452
61.0,232.857,36.532
61.04,234.331,36.681
61.07,235.384,36.967
61.1,237.314,36.921
61.13,238.612,37.196
61.17,239.946,37.883
61.2,242.122,38.136
61.23,243.456,38.41
61.26,245.07,38.892
61.3,247.702,39.304
61.33,249.141,39.567
61.36,250.545,39.819
61.39,252.896,39.762
61.43,254.23,40.037
61.46,255.528,40.472
61.49,257.458,40.404
61.52,258.792,40.656
61.56,260.091,41.24
61.59,261.775,41.103
61.62,262.582,40.77
61.65,263.319,40.999
61.69,264.723,41.125
61.72,265.565,41.366
61.75,266.653,42.053
61.78,268.443,42.397
61.82,269.742,42.557
61.85,270.724,42.786
61.88,272.269,42.615
61.92,273.111,42.477
61.95,273.813,42.855
61.98,275.287,42.993
62.01,276.199,43.313
62.05,277.287,43.829
62.08,278.831,43.795
62.11,279.498,43.726
62.14,280.2,43.806
62.18,281.113,43.543
62.21,281.323,43.371
62.24,281.674,43.657
62.27,282.832,44.001
62.31,283.078,43.932
62.34,283.464,44.115
62.37,284.377,44.287
62.4,285.043,44.218
62.44,285.289,44.367
62.47,285.815,44.138
62.5,286.131,44.058
62.53,286.342,44.344
62.57,286.763,44.333
62.6,286.728,43.966
62.63,286.237,43.588
62.66,285.815,43.165
62.7,284.973,42.741
62.73,283.92,42.489
62.76,283.569,42.546
62.79,283.113,42.821
62.83,282.516,43.016
62.86,282.376,42.764
62.89,281.604,42.34
62.92,280.621,41.985
62.96,279.744,41.412
62.99,278.235,40.896
63.02,276.866,40.828
63.05,275.954,40.816
63.09,274.866,40.644
63.12,273.497,40.495
63.15,272.585,40.22
63.18,271.356,39.842
63.22,269.742,39.613
63.25,268.829,39.373
63.28,267.671,39.35
63.31,266.478,39.487
63.35,266.057,39.258
63.38,264.828,38.96
63.41,263.425,38.708
63.45,262.582,38.113
63.48,260.863,37.631
63.51,259.143,37.483
63.54,257.985,37.139
63.58,256.265,36.784
63.61,254.51,36.669
63.64,253.352,36.268
63.67,251.141,35.695
63.71,249.071,35.272
63.74,247.527,34.79
63.77,245.456,34.424
63.8,243.105,34.206
63.84,241.771,34.103
63.87,240.508,34.206
63.9,238.507,34.046
63.93,236.858,33.393
63.97,235.243,32.774
64.0,233.173,32.637
64.03,231.277,32.305
64.06,229.347,31.72
64.1,227.206,31.491
64.13,225.346,31.445
64.16,223.767,31.193
64.19,221.591,30.838
64.23,219.766,30.667
64.26,218.468,30.311
64.29,216.151,30.117
64.32,214.467,29.956
64.36,213.133,29.578
64.39,210.992,29.315
64.42,209.062,29.063
64.45,207.588,28.33
64.49,204.921,27.757
64.52,202.359,27.436
64.55,200.639,26.886
64.58,197.656,26.657
64.62,195.059,26.669
64.65,193.726,26.325
64.68,191.234,26.187
64.71,188.707,25.993
64.75,187.479,25.191
64.78,184.601,24.721
64.81,181.828,24.481
64.84,180.319,23.69
64.88,177.406,23.392
64.91,174.529,23.278
64.94,172.774,22.51
64.98,169.615,21.88
65.01,166.667,21.697
65.04,164.351,20.987
65.07,161.508,20.208
65.11,158.35,20.173
65.14,155.788,19.841
65.17,154.033,19.257
65.2,150.98,18.776
65.24,147.575,18.489
65.27,145.996,17.687
65.3,143.434,16.885
65.33,138.766,16.748
65.37,136.801,16.084
65.4,134.59,15.121
65.43,129.291,15.087
65.46,126.869,14.617
65.5,124.588,13.506
65.53,118.973,13.495
65.56,116.27,13.277
65.59,113.884,12.212
65.63,108.725,12.303
65.66,106.479,12.28
65.69,104.338,11.352
65.72,100.372,10.86
65.76,97.635,10.241
65.79,94.16,9.107
65.82,90.019,8.271
65.85,86.194,7.515
65.89,81.772,7.183
65.92,78.648,7.091
65.95,75.876,6.908
65.98,72.682,6.724
66.02,70.612,6.175
66.05,67.769,5.499
66.08,64.119,4.972
66.11,60.96,4.193
66.15,57.1,3.322
66.18,52.643,2.681
66.21,48.08,2.073
66.24,43.939,1.501
66.28,39.798,1.031
66.31,35.376,0.768
66.34,32.112,0.309
66.37,28.954,-0.263
66.41,25.584,-0.573
66.44,22.952,-1.02
66.47,20.355,-1.604
66.51,17.197,-1.993
66.54,13.406,-2.245
66.57,9.3,-2.417
66.6,5.054,-2.417
66.64,0.877,-2.268
66.67,-3.053,-2.165
66.7,-6.703,-2.062
66.73,-10.107,-1.844
66.77,-13.196,-1.741
66.8,-15.723,-2.051
66.83,-18.706,-2.6
66.86,-21.97,-3.013
66.9,-25.058,-3.563
66.93,-28.462,-4.216
66.96,-31.761,-4.926
66.99,-35.411,-5.499
67.03,-39.693,-5.934
67.06,-44.36,-6.232
67.09,-48.958,-6.323
67.12,-52.748,-6.358
67.16,-56.223,-6.289
67.19,-58.784,-6.427
67.22,-60.75,-6.85
67.25,-62.926,-7.286
67.29,-65.102,-7.904
67.32,-67.558,-8.798
67.35,-70.506,-9.577
67.38,-73.665,-10.253
67.42,-77.069,-11.055
67.45,-80.824,-11.845
67.48,-84.685,-12.544
67.51,-88.475,-13.151
67.55,-92.23,-13.724
67.58,-95.81,-14.148
67.61,-99.109,-14.537
67.64,-102.057,-15.053
67.68,-105.391,-15.465
67.71,-108.409,-15.969
67.74,-111.322,-16.691
67.77,-115.218,-17.149
67.81,-118.236,-17.676
67.84,-121.465,-18.34
67.87,-125.536,-18.592
67.9,-128.448,-19.073
67.94,-131.818,-19.715
67.97,-136.24,-19.944
68.0,-138.977,-20.494
68.03,-142.767,-20.849
68.07,-145.049,-21.055
68.1,-146.628,-21.846
68.13,-149.049,-22.315
68.17,-150.418,-23.22
68.2,-153.366,-24.091
68.23,-155.717,-24.87
68.26,-158.069,-25.867
68.3,-161.368,-26.474
68.33,-163.614,-26.966
68.36,-165.93,-27.31
68.39,-168.913,-27.241
68.43,-170.528,-27.321
68.46,-172.353,-27.642
68.49,-175.23,-28.078
68.52,-177.406,-28.983
68.56,-180.249,-30.002
68.59,-183.794,-30.506
68.62,-186.356,-31.136
68.65,-189.69,-31.835
68.69,-193.41,-32.19
68.72,-195.866,-32.74
68.75,-199.411,-33.381
68.78,-203.271,-33.53
68.82,-205.412,-33.748
68.85,-208.22,-33.759
68.88,-210.606,-33.416
68.91,-211.729,-33.267
68.95,-213.344,-33.164
68.98,-214.818,-33.107
69.01,-215.485,-33.301
69.04,-216.783,-33.496
69.08,-218.152,-33.611
69.11,-219.029,-34.138
69.14,-220.819,-34.493
69.17,-222.293,-34.722
69.21,-223.557,-35.157
69.24,-225.662,-35.535
69.27,-227.277,-35.753
69.3,-228.996,-36.326
69.34,-231.032,-36.566
69.37,-233.032,-36.761
69.4,-234.892,-37.379
69.43,-237.314,-38.021
69.47,-239.244,-38.09
69.5,-240.718,-37.872
69.53,-242.543,-37.998
69.56,-244.122,-38.227
69.6,-245.702,-38.846
69.63,-247.632,-39.304
69.66,-249.246,-39.441
69.7,-250.65,-39.499
69.73,-252.44,-39.671
69.76,-253.844,-39.934
69.79,-255.142,-40.163
69.83,-256.721,-40.346
69.86,-258.125,-40.576
69.89,-259.283,-40.873
69.92,-260.757,-40.919
69.96,-261.88,-40.919
69.99,-262.793,-41.057
70.02,-264.021,-41.148
70.05,-265.109,-41.481
70.09,-266.618,-42.007
70.12,-268.268,-42.431
70.15,-269.637,-42.844
70.18,-271.146,-42.935
70.22,-272.479,-42.729
70.25,-273.357,-42.786
70.28,-274.515,-42.993
70.31,-275.743,-43.142
70.35,-276.761,-43.485
70.38,-277.954,-43.806
70.41,-279.077,-43.749
70.44,-279.639,-43.669
70.48,-280.341,-43.623
70.51,-280.902,-43.382
70.54,-281.007,-43.394
70.57,-281.569,-43.577
70.61,-282.411,-43.714
70.64,-282.762,-43.966
70.67,-283.534,-44.104
70.7,-283.99,-43.943
70.74,-284.061,-43.898
70.77,-285.008,-44.15
70.8,-285.429,-44.264
70.83,-285.605,-44.31
70.87,-286.307,-44.333
70.9,-286.833,-44.356
70.93,-286.763,-44.482
70.96,-287.009,-44.195
71.0,-286.903,-43.691
71.03,-286.166,-43.359
71.06,-285.535,-42.958
71.09,-284.903,-42.775
71.13,-284.166,-42.867
71.16,-283.534,-42.764
71.19,-282.692,-42.328
71.23,-281.499,-41.962
71.26,-280.551,-41.572
71.29,-279.112,-41.137
71.32,-277.533,-40.942
71.36,-276.796,-40.896
71.39,-275.813,-40.942
71.42,-274.55,-40.976
71.45,-273.953,-40.679
71.49,-272.76,-40.232
71.52,-271.251,-39.934
71.55,-270.268,-39.453
71.58,-268.759,-39.132
71.62,-267.18,-39.235
71.65,-266.408,-39.132
71.68,-265.355,-38.892
71.71,-263.811,-38.914
71.75,-262.933,-38.548
71.78,-261.635,-37.861
71.81,-259.74,-37.54
71.84,-258.441,-37.231
71.88,-256.757,-36.864
71.91,-254.967,-36.646
71.94,-253.633,-36.326
71.97,-251.913,-35.936
72.01,-249.667,-35.489
72.04,-247.983,-34.813
72.07,-246.123,-34.619
72.1,-243.982,-34.619
72.14,-242.508,-34.183
72.17,-240.613,-33.863
72.2,-239.279,-34.241
72.23,-238.612,-34.401
72.27,-236.787,-33.954
72.3,-235.349,-33.45
72.33,-234.296,-33.038
72.36,-232.506,-32.751
72.4,-230.47,-32.27
72.43,-228.645,-31.652
72.46,-226.645,-31.205
72.49,-224.153,-30.93
72.53,-222.118,-30.506
72.56,-219.942,-30.105
72.59,-217.871,-29.899
72.62,-215.8,-29.647
72.66,-213.66,-29.475
72.69,-211.87,-29.383
72.72,-210.22,-29.223
72.76,-208.395,-28.925
72.79,-206.5,-28.513
72.82,-204.289,-28.055
72.85,-202.429,-27.574
72.89,-200.148,-27.138
72.92,-197.726,-26.966
72.95,-195.691,-26.749
72.98,-193.55,-26.439
73.02,-190.988,-26.153
73.05,-189.093,-25.626
73.08,-186.742,-25.099
73.11,-184.004,-24.629
73.15,-181.793,-24.034
73.18,-179.477,-23.713
73.21,-176.88,-23.667
73.24,-174.669,-23.209
73.28,-172.282,-22.579
73.31,-169.299,-22.098
73.34,-166.913,-21.605
73.37,-164.456,-20.975
73.41,-161.263,-20.609
73.44,-158.63,-20.276
73.47,-156.841,-20.047
73.5,-154.138,-19.543
73.54,-150.664,-18.661
73.57,-147.926,-17.894
73.6,-145.75,-17.115
73.63,-141.574,-17.115
73.67,-138.626,-16.714
73.7,-137.152,-15.614
73.73,-132.52,-15.362
73.76,-129.01,-15.316
73.8,-127.887,-14.285
73.83,-123.149,-13.861
73.86,-119.183,-13.827
73.89,-117.569,-12.716
73.93,-112.48,-12.292
73.96,-108.69,-12.532
73.99,-107.181,-11.719
74.02,-103.075,-11.204
74.06,-99.916,-10.997
74.09,-97.565,-9.943
74.12,-93.318,-9.027
74.15,-89.668,-8.328
74.19,-85.632,-7.618
74.22,-81.526,-7.034
74.25,-78.122,-6.449
74.29,-73.77,-6.163
74.32,-70.647,-5.945
74.35,-67.944,-5.43
74.38,-64.224,-5.166
74.42,-61.452,-4.8
74.45,-58.749,-4.181
74.48,-55.24,-3.826
74.51,-52.327,-3.551
74.55,-49.344,-2.99
74.58,-46.185,-2.417
74.61,-42.465,-1.982
74.64,-39.131,-1.535
74.68,-36.183,-0.825
74.71,-32.007,-0.252
74.74,-28.532,0.286
74.77,-25.514,1.18
74.81,-21.548,1.856
74.84,-17.793,2.429
74.87,-12.95,2.967
74.9,-7.51,3.127
74.94,-2.106,2.956
74.97,2.773,2.543
75.0,6.808,2.073
75.03,9.932,1.638
75.07,12.494,1.34
75.1,14.565,1.363
75.13,16.284,1.661
75.16,18.6,2.085
75.2,21.162,2.715
75.23,24.321,3.402
75.26,27.795,3.895
75.29,30.603,4.571
75.33,34.148,5.304
75.36,37.903,5.888
75.39,43.062,6.152
75.42,47.589,6.129
75.46,51.555,6.22
75.49,55.345,6.415
75.52,58.504,6.667
75.55,60.785,7.194
75.59,63.803,7.721
75.62,66.47,8.122
75.65,68.401,8.821
75.68,71.489,9.497
75.72,74.753,10.173
75.75,77.42,11.112
75.78,81.245,11.925
75.82,85.387,12.544
75.85,88.756,13.346
75.88,92.616,13.815
75.91,96.371,14.022
75.95,99.214,14.537
75.98,102.057,14.984
76.01,105.251,15.224
76.04,108.128,15.866
76.08,111.076,16.588
76.11,114.27,17.046
76.14,117.815,17.516
76.17,121.078,18.042
76.21,123.816,18.592
76.24,127.887,19.073
76.27,131.607,19.314
76.3,134.099,19.99
76.34,138.275,20.253
76.37,142.065,20.368
76.4,142.978,21.559
76.43,147.119,21.64
76.47,149.155,21.949
76.5,150.488,23.301
76.53,153.542,23.724
76.56,155.191,24.664
76.6,158.069,25.798
76.63,160.49,26.588
76.66,163.438,27.379
76.69,167.159,27.837
76.73,169.65,28.433
76.76,172.704,28.948
76.79,176.564,29.166
76.82,178.775,29.83
76.86,181.934,30.472
76.89,185.583,30.54
76.92,187.514,30.953
76.95,190.216,31.285
76.99,193.199,31.067
77.02,194.182,31.251
77.05,196.533,31.663
77.08,199.481,31.594
77.12,200.359,32.018
77.15,202.71,32.442
77.18,205.342,32.293
77.21,205.869,32.58
77.25,207.834,32.889
77.28,210.466,32.786
77.31,211.168,33.301
77.35,213.168,34.0
77.38,215.906,34.034
77.41,216.924,34.47
77.44,219.099,35.065
77.48,221.837,34.951
77.51,222.679,35.191
77.54,224.715,35.695
77.57,227.382,35.718
77.61,228.329,36.131
77.64,230.225,36.486
77.67,232.751,36.474
77.7,233.664,37.036
77.74,235.594,37.368
77.77,237.875,37.093
77.8,238.612,37.471
77.83,240.683,38.136
77.87,242.999,38.17
77.9,243.842,38.594
77.93,245.807,38.972
77.96,248.053,38.869
78.0,248.72,39.167
78.03,250.404,39.545
78.06,252.37,39.487
78.09,253.247,39.854
78.13,255.002,40.346
78.16,257.037,40.472
78.19,258.09,40.805
78.22,259.634,41.125
78.26,261.354,40.954
78.29,262.021,40.919
78.32,262.968,41.137
78.35,264.407,41.068
78.39,265.144,41.435
78.42,266.548,42.122
78.45,268.373,42.328
78.48,269.391,42.66
78.52,270.76,42.947
78.55,272.269,42.638
78.58,272.865,42.638
78.61,273.988,42.981
78.65,275.357,43.061
78.68,276.34,43.462
78.71,277.638,43.863
78.74,278.867,43.886
78.78,279.744,43.783
78.81,280.411,43.714
78.84,281.113,43.543
78.88,281.358,43.52
78.91,281.955,43.703
78.94,282.727,43.921
78.97,283.078,44.092
79.01,283.71,44.218
79.04,284.306,44.001
79.07,284.798,44.195
79.1,285.184,44.264
79.14,285.464,44.035
79.17,286.237,44.379
79.2,286.833,44.894
79.23,287.149,44.814
79.27,287.57,44.379
79.3,287.465,44.069
79.33,286.868,43.474
79.36,286.131,42.97
79.4,285.078,42.489
79.43,284.131,42.454
79.46,283.534,42.546
79.49,282.657,42.569
79.53,281.779,42.34
79.56,281.007,41.916
79.59,279.884,41.572
79.62,278.621,41.423
79.66,277.779,41.125
79.69,276.656,41.171
79.72,276.024,41.332
79.75,275.252,41.194
79.79,274.234,40.965
79.82,273.427,40.61
79.85,272.304,40.117
79.88,270.689,39.751
79.92,269.637,39.441
79.95,268.408,39.247
79.98,266.934,39.247
80.01,265.952,39.121
80.05,264.934,38.8
80.08,263.249,38.582
80.11,262.231,38.147
80.14,260.793,37.586
80.18,258.757,37.391
80.21,257.458,37.139
80.24,256.125,36.761
80.27,254.124,36.692
80.31,252.931,36.452
80.34,251.422,35.799
80.37,249.316,35.604
80.4,247.878,35.249
80.44,246.193,34.584
80.47,243.456,34.229
80.5,241.911,33.943
80.54,240.613,33.622
80.57,237.875,33.553
80.6,236.05,33.095
80.63,234.576,32.247
80.67,232.014,32.442
80.7,230.576,32.74
80.73,229.698,32.202
80.76,227.101,32.087
80.8,226.329,32.316
80.83,225.627,31.858
80.86,222.925,31.606
80.89,221.872,31.251
80.93,220.854,30.46
80.96,217.52,30.277
80.99,216.116,29.945
81.02,214.818,29.166
81.06,211.378,29.143
81.09,209.799,28.891
81.12,208.325,27.986
81.15,204.5,27.757
81.19,202.78,27.493
81.22,201.025,26.817
81.25,197.34,27.024
81.28,195.937,26.989
81.32,194.638,26.485
81.35,191.234,26.52
81.38,189.725,26.016
81.41,188.251,24.973
81.45,184.32,24.801
81.48,182.39,24.297
81.51,180.53,23.495
81.54,176.915,23.507
81.58,174.915,23.14
81.61,172.739,22.281
81.64,169.229,21.96
81.67,166.597,21.559
81.71,164.386,20.689
81.74,161.087,20.139
81.77,157.472,19.807
81.8,154.489,19.016
81.84,152.629,18.512
81.87,149.084,18.409
81.9,145.68,18.237
81.93,144.452,17.561
81.97,141.539,16.897
82.0,137.363,16.92
82.03,136.275,16.244
82.07,133.643,15.568
82.1,129.15,15.534
82.13,127.782,14.606
82.16,124.237,13.621
82.2,119.183,13.609
82.23,116.937,12.956
82.26,113.112,12.154
82.29,108.69,12.326
82.33,106.619,12.005
82.36,103.285,11.375
82.39,100.443,10.883
82.42,97.67,10.001
82.46,93.353,9.176
82.49,89.949,8.363
82.52,86.124,7.572
82.55,81.667,7.286
82.59,78.473,6.862
82.62,74.928,6.335
82.65,71.278,6.049
82.68,68.611,5.67
82.72,65.558,5.258
82.75,62.399,4.949
82.78,59.662,4.456
82.81,56.644,3.849
82.85,53.029,3.334
82.88,49.73,2.784
82.91,46.08,2.177
82.94,42.184,1.592
82.98,38.008,0.985
83.01,34.113,0.401
83.04,30.638,-0.137
83.07,27.129,-0.55
83.11,24.005,-0.916
83.14,21.373,-1.409
83.17,18.355,-1.902
83.2,14.705,-2.257
83.24,10.564,-2.474
83.27,6.001,-2.543
83.3,1.509,-2.532
83.33,-2.983,-2.429
83.37,-7.019,-2.257
83.4,-10.985,-2.085
83.43,-14.284,-1.982
83.46,-16.811,-2.108
83.5,-19.618,-2.394
83.53,-22.496,-2.681
83.56,-25.163,-3.127
83.6,-27.55,-3.849
83.63,-30.814,-4.433
83.66,-34.007,-5.029
83.69,-38.078,-5.499
83.73,-41.904,-5.934
83.76,-46.255,-6.255
83.79,-50.888,-6.22
83.82,-54.362,-6.323
83.86,-57.31,-6.656
83.89,-60.609,-6.805
83.92,-62.329,-7.309
83.95,-64.821,-8.088
83.99,-68.26,-8.592
84.02,-70.331,-9.634
84.05,-73.805,-10.528
84.08,-78.157,-10.974
84.12,-80.965,-11.914
84.15,-84.86,-12.67
84.18,-89.142,-12.991
84.21,-92.371,-13.701
84.25,-95.915,-14.285
84.28,-99.495,-14.571
84.31,-102.759,-15.075
84.34,-105.847,-15.74
84.38,-108.83,-16.427
84.41,-113.182,-16.805
84.44,-116.13,-17.412
84.47,-118.692,-18.272
84.51,-123.746,-18.203
84.54,-126.308,-18.604
84.57,-128.308,-19.406
84.6,-133.572,-19.062
84.64,-135.678,-19.635
84.67,-138.065,-20.849
84.7,-143.013,-20.139
84.73,-144.276,-20.872
84.77,-146.031,-21.582
84.8,-148.277,-21.479
84.83,-149.541,-22.945
84.86,-151.787,-24.057
84.9,-153.998,-24.698
84.93,-157.156,-25.695
84.96,-160.28,-26.806
84.99,-162.631,-27.642
85.03,-166.562,-27.734
85.06,-169.44,-27.837
85.09,-171.44,-28.536
85.13,-175.195,-28.719
85.16,-177.827,-29.223
85.19,-180.389,-30.334
85.22,-184.566,-30.873
85.26,-187.303,-31.262
85.29,-190.005,-31.927
85.32,-193.796,-32.098
85.35,-196.077,-32.19
85.39,-198.323,-32.545
85.42,-201.692,-32.476
85.45,-203.622,-32.602
85.48,-205.202,-32.889
85.52,-207.378,-32.545
85.55,-208.36,-32.305
85.58,-209.589,-32.706
85.61,-211.414,-32.935
85.65,-212.396,-32.981
85.68,-213.695,-33.37
85.71,-215.59,-33.771
85.74,-217.274,-34.412
85.78,-219.135,-34.917
85.81,-221.205,-35.1
85.84,-222.749,-35.031
85.87,-224.715,-35.547
85.91,-226.785,-36.051
85.94,-228.54,-36.177
85.97,-230.26,-36.348
86.0,-232.225,-36.612
86.04,-233.945,-37.059
86.07,-235.699,-37.299
86.1,-237.419,-37.357
86.13,-239.209,-37.654
86.17,-240.929,-38.078
86.2,-242.683,-38.41
86.23,-244.579,-38.674
86.26,-246.333,-39.018
86.3,-247.913,-39.27
86.33,-249.457,-39.27
86.36,-250.79,-39.212
86.39,-251.843,-39.315
86.43,-253.177,-39.499
86.46,-254.37,-39.739
86.49,-255.563,-40.094
86.52,-257.002,-40.461
86.56,-258.371,-40.713
86.59,-259.74,-40.896
86.62,-261.179,-41.011
86.66,-262.337,-41.251
86.69,-263.6,-41.458
86.72,-265.109,-41.607
86.75,-266.548,-42.042
86.79,-268.127,-42.603
86.82,-269.777,-42.855
86.85,-271.005,-42.867
86.88,-272.304,-42.809
86.92,-273.392,-42.764
86.95,-274.409,-42.855
86.98,-275.427,-43.165
87.01,-276.62,-43.565
87.05,-277.954,-43.749
87.08,-278.796,-43.852
87.11,-279.779,-43.817
87.14,-280.586,-43.577
87.18,-280.902,-43.485
87.21,-281.393,-43.485
87.24,-282.025,-43.623
87.27,-282.587,-43.966
87.31,-283.218,-44.115
87.34,-283.745,-44.092
87.37,-284.166,-44.069
87.4,-284.447,-43.875
87.44,-284.587,-43.646
87.47,-284.622,-43.772
87.5,-285.184,-43.989
87.53,-285.149,-43.921
87.57,-285.57,-44.23
87.6,-286.026,-44.276
87.63,-285.956,-43.966
87.66,-285.71,-43.657
87.7,-285.008,-42.958
87.73,-284.271,-42.569
87.76,-283.604,-42.592
87.79,-283.008,-42.775
87.83,-282.411,-42.58
87.86,-281.429,-42.317
87.89,-280.832,-41.973
87.92,-279.709,-41.584
87.96,-278.235,-41.251
87.99,-277.428,-40.919
88.02,-276.199,-40.942
88.05,-275.287,-41.16
88.09,-274.585,-40.999
88.12,-273.497,-40.782
88.15,-272.585,-40.495
88.19,-271.602,-39.98
88.22,-270.058,-39.567
88.25,-268.829,-39.396
88.28,-267.987,-39.384
88.32,-266.899,-39.407
88.35,-265.811,-39.373
88.38,-265.074,-39.167
88.41,-263.881,-38.777
88.45,-262.617,-38.33
88.48,-261.354,-37.78
88.51,-259.494,-37.471
88.54,-257.985,-37.219
88.58,-256.616,-36.852
88.61,-254.686,-36.658
88.64,-253.282,-36.417
88.67,-251.668,-35.741
88.71,-249.001,-35.077
88.74,-247.562,-34.951
88.77,-246.088,-34.825
88.8,-243.736,-34.676
88.84,-242.157,-34.355
88.87,-240.648,-33.805
88.9,-238.542,-33.645
88.93,-236.823,-33.404
88.97,-235.138,-32.866
89.0,-232.997,-32.557
89.03,-231.348,-32.454
89.06,-229.839,-32.167
89.1,-227.698,-31.927
89.13,-226.505,-31.938
89.16,-225.171,-31.846
89.19,-222.995,-31.583
89.23,-221.767,-30.964
89.26,-220.082,-30.495
89.29,-217.801,-30.3
89.32,-216.151,-29.819
89.36,-213.976,-29.338
89.39,-211.729,-29.143
89.42,-210.045,-28.811
89.45,-207.623,-28.272
89.49,-204.991,-27.814
89.52,-203.026,-27.264
89.55,-200.323,-26.829
89.58,-197.411,-26.772
89.62,-195.586,-26.554
89.65,-193.234,-26.348
89.68,-190.778,-26.21
89.72,-188.882,-25.672
89.75,-186.496,-25.111
89.78,-183.899,-24.664
89.81,-181.758,-24.114
89.85,-179.196,-23.736
89.88,-176.775,-23.587
89.91,-174.844,-23.094
89.94,-171.861,-22.59
89.98,-169.264,-22.029
90.01,-166.737,-21.296
90.04,-163.544,-20.712
90.07,-160.42,-20.059
90.11,-157.578,-19.623
90.14,-155.051,-19.463
90.17,-152.138,-19.096
90.2,-149.365,-18.581
90.24,-146.838,-17.997
90.27,-143.925,-17.458
90.3,-140.942,-17.172
90.33,-138.661,-16.496
90.37,-135.854,-16.072
90.4,-132.484,-15.866
90.43,-130.414,-15.144
90.46,-127.22,-14.457
90.5,-123.219,-14.182
90.53,-120.728,-13.54
90.56,-116.972,-12.807
90.59,-112.726,-12.635
90.63,-110.234,-12.212
90.66,-106.76,-11.696
90.69,-103.075,-11.41
90.72,-100.688,-10.654
90.76,-97.108,-9.806
90.79,-93.248,-9.222
90.82,-89.844,-8.363
90.85,-85.667,-7.641
90.89,-81.772,-7.194
90.92,-77.982,-6.747
90.95,-74.297,-6.312
90.98,-71.173,-5.9
91.02,-67.734,-5.43
91.05,-64.33,-4.914
91.08,-61.101,-4.33
91.11,-57.661,-3.952
91.15,-54.362,-3.677
91.18,-51.239,-3.265
91.21,-48.186,-2.761
91.25,-44.817,-2.371
91.28,-41.693,-1.982
91.31,-38.605,-1.501
91.34,-35.376,-1.146
91.38,-32.393,-0.699
91.41,-29.48,-0.023
91.44,-26.111,0.664
91.47,-22.882,1.432
91.51,-19.408,2.222
91.54,-14.915,2.83
91.57,-9.546,3.185
91.6,-3.755,3.219
91.64,1.79,3.013
91.67,6.773,2.6
91.7,10.915,2.154
91.73,14.108,1.615
91.77,15.968,1.409
91.8,17.828,1.661
91.83,19.864,2.028
91.86,22.356,2.406
91.9,24.637,2.933
91.93,27.164,3.597
91.96,29.936,4.204
91.99,33.06,4.857
92.03,36.674,5.499
92.06,40.851,6.003
92.09,45.729,6.197
92.12,50.327,6.197
92.16,53.871,6.335
92.19,57.346,6.541
92.22,60.329,6.747
92.25,62.224,7.389
92.29,65.277,8.007
92.32,68.155,8.752
92.35,70.717,9.76
92.38,74.577,10.379
92.42,78.087,10.986
92.45,81.175,11.948
92.48,85.281,12.544
92.51,88.931,13.094
92.55,92.406,13.758
92.58,95.95,14.159
92.61,99.284,14.48
92.64,102.408,14.972
92.68,105.18,15.637
92.71,108.795,16.278
92.74,112.515,16.725
92.77,114.972,17.493
92.81,119.078,17.974
92.84,122.974,18.065
92.87,124.799,18.821
92.91,129.01,19.131
92.94,133.151,19.268
92.97,134.871,20.379
93.0,139.503,20.379
93.04,143.399,20.769
93.07,144.978,21.685
93.1,147.47,21.445
93.13,149.12,21.892
93.17,150.769,23.049
93.2,152.699,23.839
93.23,154.98,24.618
93.26,158.034,25.718
93.3,160.385,26.76
93.33,163.649,27.436
93.36,167.159,27.791
93.39,169.405,28.524
93.43,173.019,28.799
93.46,176.003,28.891
93.49,178.143,29.601
93.52,181.688,30.151
93.56,184.741,30.38
93.59,186.636,30.999
93.62,189.935,31.262
93.65,192.462,31.171
93.69,193.831,31.549
93.72,196.674,31.812
93.75,199.165,31.904
93.78,200.71,32.362
93.82,203.377,32.625
93.85,205.553,32.625
93.88,206.606,32.832
93.91,208.676,32.763
93.95,210.396,32.648
93.98,211.168,33.164
94.01,213.379,33.656
94.04,215.344,33.817
94.08,216.643,34.538
94.11,219.556,35.295
94.14,221.872,35.524
94.17,223.557,35.948
94.21,226.013,35.902
94.24,227.873,35.81
94.27,229.488,36.2
94.3,231.418,36.44
94.34,233.102,36.669
94.37,234.436,36.944
94.4,236.191,37.024
94.44,237.595,37.013
94.47,238.823,37.357
94.5,240.613,37.7
94.53,242.052,38.01
94.57,243.561,38.502
94.6,245.561,38.914
94.63,247.421,39.281
94.66,248.93,39.464
94.7,250.475,39.453
94.73,252.124,39.51
94.76,253.458,39.854
94.79,254.932,40.163
94.83,256.581,40.381
94.86,257.985,40.702
94.89,259.424,41.034
94.92,260.863,41.068
94.96,262.126,41.011
94.99,263.004,41.148
95.02,264.162,41.332
95.05,265.495,41.549
95.09,266.724,42.03
95.12,268.127,42.615
95.15,269.882,42.821
95.18,270.935,42.844
95.22,272.234,42.855
95.25,273.392,42.672
95.28,274.059,42.878
95.31,275.357,43.13
95.35,276.445,43.417
95.38,277.498,43.829
95.41,278.796,43.909
95.44,279.744,43.772
95.48,280.341,43.76
95.51,281.042,43.623
95.54,281.534,43.52
95.57,281.885,43.669
95.61,282.552,43.989
95.64,283.253,44.092
95.67,283.745,44.195
95.7,284.306,44.195
95.74,285.114,44.264
95.77,285.219,44.344
95.8,285.464,44.035
95.83,286.201,44.218
95.87,286.798,44.734
95.9,286.974,44.631
95.93,287.149,44.069
95.97,286.798,43.714
96.0,286.728,43.669
96.03,286.096,43.245
96.06,284.412,42.374
96.1,284.026,42.26
96.13,283.64,42.615
96.16,282.341,42.832
96.19,281.815,42.408
96.23,281.253,41.95
96.26,280.025,41.836
96.29,278.937,41.538
96.32,278.094,40.988
96.36,276.62,41.125
96.39,276.199,41.343
96.42,275.427,41.103
96.45,273.988,40.954
96.49,273.392,40.621
96.52,272.479,39.98
96.55,270.444,39.671
96.58,269.566,39.407
96.62,268.408,39.098
96.65,266.408,39.178
96.68,265.881,39.041
96.71,264.758,38.674
96.75,262.758,38.582
96.78,262.091,38.101
96.81,260.652,37.483
96.84,258.301,37.379
96.88,257.458,37.093
96.91,255.879,36.6
96.94,253.668,36.692
96.97,252.791,36.463
97.01,251.282,35.81
97.04,248.965,35.627
97.07,247.842,35.26
97.1,246.298,34.79
97.14,243.666,34.619
97.17,242.473,34.195
97.2,240.858,33.611
97.23,238.156,33.633
97.27,236.858,33.233
97.3,234.787,32.305
97.33,232.225,32.454
97.36,231.172,32.568
97.4,229.488,32.213
97.43,227.312,32.156
97.46,226.54,32.121
97.5,225.136,31.743
97.53,222.644,31.411
97.56,221.591,30.85
97.59,219.731,30.243
97.63,216.853,30.094
97.66,215.45,29.67
97.69,213.66,29.154
97.72,210.922,29.166
97.76,209.238,28.879
97.79,207.448,28.146
97.82,204.43,27.871
97.85,202.64,27.551
97.89,200.499,27.047
97.92,197.586,27.047
97.95,195.866,26.943
97.98,194.077,26.68
98.02,191.655,26.508
98.05,189.655,26.016
98.08,187.724,25.317
98.11,185.127,24.813
98.15,182.425,24.274
98.18,180.144,23.724
98.21,177.617,23.427
98.24,174.879,23.129
98.28,172.282,22.464
98.31,169.615,21.8
98.34,166.597,21.456
98.37,163.684,20.941
98.41,161.017,20.299
98.44,158.244,20.093
98.47,155.261,19.99
98.5,153.506,19.394
98.54,150.699,18.684
98.57,146.979,18.466
98.6,144.978,17.859
98.63,143.048,16.656
98.67,138.416,16.393
98.7,135.081,16.106
98.73,133.923,15.202
98.76,129.642,14.949
98.8,125.992,14.984
98.83,124.728,14.033
98.86,120.447,13.472
98.89,116.235,13.575
98.93,114.902,12.681
98.96,110.515,12.109
98.99,106.444,12.223
99.03,104.549,11.341
99.06,101.109,10.367
99.09,97.003,9.932
99.12,93.599,9.119
99.16,89.528,8.191
99.19,85.492,7.618
99.22,81.561,7.343
99.25,78.052,7.022
99.29,75.349,6.438
99.32,71.454,6.037
99.35,68.26,5.67
99.38,65.593,4.96
99.42,61.697,4.502
99.45,58.293,4.193
99.48,55.38,3.62
99.51,51.801,3.15
99.55,48.291,2.795
99.58,44.781,2.325
99.61,41.763,1.695
99.64,37.903,1.191
99.68,34.007,0.871
99.71,31.691,0.172
99.74,28.041,-0.321
99.77,24.777,-0.527
99.81,22.672,-1.203
99.84,19.653,-1.879
99.87,16.003,-2.28
99.9,11.546,-2.692
99.94,6.458,-2.933
99.97,1.263,-2.887
100.0,-3.72,-2.635
100.03,-8.037,-2.325
100.07,-12.003,-1.97
100.1,-14.81,-1.776
100.13,-17.056,-1.993
100.16,-19.794,-2.394
100.2,-22.952,-2.635
100.23,-25.058,-3.001
100.26,-27.409,-3.735
100.29,-30.568,-4.273
100.33,-33.691,-4.88
100.36,-37.692,-5.35
100.39,-41.096,-5.9
100.42,-45.94,-6.197
100.46,-50.537,-6.197
100.49,-53.941,-6.472
100.52,-57.626,-6.679
100.56,-60.855,-6.782
100.59,-62.364,-7.435
100.62,-65.242,-8.122
100.65,-68.471,-8.592
100.69,-70.331,-9.588
100.72,-73.77,-10.276
100.75,-77.596,-10.757
100.78,-80.263,-11.742
100.82,-84.158,-12.498
100.85,-88.44,-12.887
100.88,-91.634,-13.678
100.91,-95.178,-14.297
100.95,-99.074,-14.571
100.98,-102.408,-15.064
101.01,-105.215,-15.774
101.04,-108.725,-16.313
101.08,-112.656,-16.702
101.11,-115.533,-17.435
101.14,-118.657,-18.031
101.17,-122.939,-18.157
101.21,-125.676,-18.627
101.24,-128.554,-19.165
101.27,-132.625,-19.326
101.3,-135.854,-19.898
101.34,-138.696,-20.769
101.37,-143.013,-20.941
101.4,-145.75,-21.101
101.43,-146.242,-21.937
101.47,-149.084,-22.086
101.5,-150.734,-22.945
101.53,-152.699,-24.022
101.56,-155.156,-24.549
101.6,-157.262,-25.5
101.63,-160.315,-26.6
101.66,-163.263,-27.367
101.69,-166.246,-27.952
101.73,-169.615,-28.341
101.76,-172.668,-28.765
101.79,-175.441,-29.235
101.82,-178.951,-29.83
101.86,-182.109,-30.449
101.89,-185.057,-31.067
101.92,-188.426,-31.342
101.95,-191.058,-31.549
101.99,-193.445,-31.812
102.02,-196.147,-31.835
102.05,-198.288,-31.801
102.09,-200.078,-31.995
102.12,-202.605,-32.179
102.15,-204.324,-32.328
102.18,-205.377,-32.465
102.22,-207.764,-32.637
102.25,-209.483,-33.049
102.28,-210.887,-33.622
102.31,-213.484,-34.012
102.35,-215.555,-34.447
102.38,-217.555,-35.111
102.41,-220.468,-35.432
102.44,-222.539,-35.764
102.48,-224.89,-36.314
102.51,-227.803,-36.6
102.54,-229.944,-36.944
102.57,-232.19,-37.357
102.61,-234.857,-37.505
102.64,-236.647,-37.654
102.67,-238.402,-37.964
102.7,-240.894,-38.078
102.74,-242.438,-38.307
102.77,-243.701,-38.456
102.8,-245.456,-38.273
102.83,-246.439,-38.262
102.87,-247.421,-38.594
102.9,-248.895,-38.594
102.93,-249.281,-38.502
102.96,-250.089,-38.674
103.0,-251.352,-38.708
103.03,-251.668,-38.869
103.06,-252.51,-39.201
103.09,-254.3,-39.522
103.13,-255.177,-40.037
103.16,-256.581,-40.713
103.19,-258.757,-40.908
103.22,-260.02,-41.217
103.26,-261.81,-41.744
103.29,-263.6,-41.71
103.32,-264.653,-41.767
103.35,-266.478,-42.156
103.39,-268.408,-42.557
103.42,-269.917,-43.073
103.45,-271.602,-43.268
103.48,-273.006,-43.107
103.52,-274.164,-42.958
103.55,-274.971,-42.912
103.58,-275.954,-42.89
103.62,-276.656,-43.142
103.65,-277.673,-43.554
103.68,-278.902,-43.703
103.71,-279.604,-43.955
103.75,-280.586,-44.081
103.78,-281.429,-43.737
103.81,-281.709,-43.588
103.84,-281.955,-43.634
103.88,-282.622,-43.531
103.91,-282.867,-43.657
103.94,-283.359,-44.115
103.97,-284.131,-44.218
104.01,-284.517,-44.092
104.04,-284.798,-44.081
104.07,-285.254,-43.943
104.1,-285.254,-43.829
104.14,-285.5,-43.898
104.17,-285.851,-44.092
104.2,-286.166,-44.39
104.23,-286.517,-44.448
104.27,-287.009,-44.161
104.3,-286.798,-43.921
104.33,-286.412,-43.714
104.36,-286.096,-43.187
104.4,-285.254,-42.947
104.43,-284.692,-43.004
104.46,-284.587,-42.947
104.49,-283.359,-42.798
104.53,-282.657,-42.397
104.56,-281.744,-41.733
104.59,-280.095,-41.412
104.62,-278.972,-41.137
104.66,-277.919,-40.919
104.69,-276.761,-41.091
104.72,-276.199,-41.366
104.75,-275.357,-41.229
104.79,-274.304,-40.782
104.82,-273.111,-40.209
104.85,-271.953,-39.831
104.88,-267.531,-37.379
104.92,-259.003,-31.205
104.95,-250.475,-26.669
104.98,-243.069,-26.817
105.01,-236.191,-28.135
105.05,-229.768,-28.593
105.08,-226.645,-29.899
105.11,-226.505,-32.797
105.14,-227.873,-36.085
105.18,-231.348,-38.788
105.21,-236.893,-40.999
105.24,-242.473,-42.672
105.28,-248.053,-43.336
105.31,-252.861,-42.935
105.34,-255.809,-41.721
105.37,-257.143,-39.762
105.41,-256.792,-37.78
105.44,-255.177,-36.303
105.47,-252.931,-35.1
105.5,-249.808,-33.92
105.54,-246.368,-33.255
105.57,-243.736,-32.981
105.6,-240.683,-32.671
105.63,-237.63,-32.328
105.67,-235.243,-32.144
105.7,-233.173,-32.179
105.73,-230.821,-32.247
105.76,-229.066,-32.087
105.8,-227.522,-31.778
105.83,-225.311,-31.583
105.86,-223.732,-31.045
105.89,-221.521,-30.369
105.93,-219.099,-30.162
105.96,-217.52,-29.991
105.99,-215.485,-29.762
106.02,-213.203,-29.75
106.06,-212.08,-29.578
106.09,-210.185,-29.235
106.12,-207.834,-28.96
106.15,-206.57,-28.272
106.19,-204.114,-27.711
106.22,-201.447,-27.516
106.25,-200.008,-27.001
106.28,-197.235,-26.691
106.32,-194.357,-26.6
106.35,-192.743,-26.107
106.38,-190.005,-25.603
106.41,-187.198,-25.271
106.45,-185.478,-24.629
106.48,-182.565,-24.194
106.51,-179.933,-24.091
106.54,-178.249,-23.656
106.58,-175.371,-23.301
106.61,-172.774,-22.991
106.64,-170.808,-22.201
106.67,-167.72,-21.582
106.71,-164.561,-21.021
106.74,-161.754,-20.265
106.77,-158.841,-19.818
106.81,-155.753,-19.612
106.84,-153.015,-19.073
106.87,-150.488,-18.478
106.9,-147.26,-18.077
106.94,-144.031,-17.435
106.97,-141.469,-16.553
107.0,-138.135,-15.98
107.03,-134.344,-15.717
107.07,-131.958,-15.167
107.1,-128.799,-14.72
107.13,-125.114,-14.663
107.16,-123.044,-14.136
107.2,-119.78,-13.506
107.23,-115.99,-13.3
107.26,-113.673,-12.865
107.29,-110.374,-12.464
107.33,-107.076,-12.28
107.36,-104.9,-11.593
107.39,-101.776,-10.883
107.42,-98.337,-10.264
107.46,-95.108,-9.21
107.49,-90.756,-8.259
107.52,-86.545,-7.71
107.55,-82.509,-7.194
107.59,-78.578,-6.724
107.62,-75.209,-6.289
107.65,-71.7,-6.094
107.68,-68.611,-5.739
107.72,-65.663,-5.166
107.75,-62.294,-4.743
107.78,-59.381,-4.399
107.81,-56.363,-3.906
107.85,-53.029,-3.391
107.88,-49.695,-2.921
107.91,-46.466,-2.474
107.94,-42.992,-1.833
107.98,-38.921,-1.18
108.01,-35.271,-0.699
108.04,-31.972,-0.16
108.07,-28.181,0.252
108.11,-25.233,0.768
108.14,-22.285,1.478
108.17,-18.987,1.993
108.2,-15.161,2.417
108.24,-10.529,2.738
108.27,-5.475,2.887
108.3,-0.562,2.738
108.34,4.071,2.429
108.37,8.072,2.211
108.4,11.827,2.005
108.43,14.775,1.799
108.47,16.916,1.867
108.5,19.408,2.085
108.53,22.04,2.497
108.56,24.216,3.013
108.6,27.164,3.586
108.63,29.971,4.204
108.66,32.954,5.029
108.69,36.745,5.636
108.73,41.026,6.232
108.76,46.571,6.461
108.79,50.993,6.495
108.82,54.924,6.53
108.86,58.574,6.541
108.89,60.82,6.862
108.92,62.926,7.423
108.95,65.839,7.79
108.99,67.699,8.626
109.02,70.366,9.668
109.05,74.156,10.161
109.08,76.964,10.871
109.12,80.333,11.788
109.15,84.615,12.406
109.18,88.229,13.082
109.21,91.599,13.689
109.25,95.424,14.045
109.28,98.898,14.434
109.31,101.741,14.972
109.34,104.584,15.431
109.38,108.304,15.854
109.41,111.147,16.553
109.44,113.989,17.275
109.47,118.06,17.538
109.51,121.149,17.962
109.54,123.921,18.592
109.57,127.887,18.776
109.6,130.94,19.199
109.64,133.853,19.887
109.67,137.819,20.185
109.7,141.609,20.643
109.73,144.101,21.216
109.77,145.891,21.559
109.8,148.663,21.903
109.83,149.716,22.9
109.87,151.892,23.816
109.9,154.77,24.412
109.93,157.156,25.512
109.96,159.929,26.531
110.0,163.087,27.218
110.03,166.141,27.791
110.06,169.124,28.41
110.09,172.388,28.788
110.13,175.476,29.12
110.16,178.389,29.647
110.19,181.442,30.197
110.22,184.425,30.586
110.26,187.338,30.964
110.29,189.795,31.285
110.32,192.357,31.457
110.35,194.708,31.503
110.39,196.603,31.812
110.42,199.236,32.053
110.45,201.447,32.133
110.48,203.026,32.385
110.52,205.237,32.637
110.55,207.237,32.648
110.58,208.255,32.82
110.61,210.185,33.061
110.65,212.256,33.244
110.68,213.379,33.84
110.71,215.625,34.309
110.74,218.047,34.447
110.78,219.24,35.065
110.81,221.696,35.409
110.84,223.872,35.18
110.87,224.75,35.558
110.91,227.136,35.936
110.94,229.382,36.039
110.97,230.26,36.474
111.0,232.646,36.91
111.04,234.962,37.242
111.07,236.191,37.597
111.1,238.297,37.586
111.13,239.946,37.505
111.17,241.139,38.021
111.2,243.14,38.33
111.23,244.824,38.456
111.26,245.947,38.914
111.3,247.948,39.063
111.33,249.422,39.006
111.36,250.159,39.293
111.4,252.019,39.522
111.43,253.598,39.648
111.46,254.405,40.163
111.49,256.335,40.518
111.53,258.055,40.598
111.56,258.968,41.011
111.59,260.722,41.171
111.62,262.196,41.011
111.66,262.793,41.32
111.69,264.478,41.446
111.72,265.741,41.412
111.75,266.618,42.099
111.79,268.584,42.58
111.82,270.023,42.649
111.85,270.97,42.935
111.88,272.479,42.867
111.92,273.567,42.706
111.95,274.339,43.016
111.98,275.708,43.325
112.01,277.007,43.462
112.05,277.779,43.863
112.08,279.042,44.047
112.11,280.2,43.772
112.14,280.446,43.783
112.18,281.183,43.726
112.21,281.744,43.291
112.24,281.779,43.543
112.27,282.622,44.092
112.31,283.289,43.932
112.34,283.499,44.058
112.37,284.341,44.23
112.4,284.973,44.081
112.44,284.798,44.092
112.47,285.359,44.001
112.5,285.78,43.909
112.53,285.605,44.299
112.57,286.131,44.207
112.6,286.166,43.84
112.63,285.675,43.646
112.66,285.359,43.256
112.7,284.657,42.786
112.73,283.78,42.557
112.76,283.253,42.718
112.79,283.078,42.924
112.83,282.587,43.073
112.86,282.271,43.073
112.89,282.13,42.66
112.93,281.078,42.328
112.96,280.305,41.939
112.99,279.463,41.423
113.02,278.235,41.263
113.06,277.357,41.297
113.09,276.375,41.034
113.12,274.936,40.724
113.15,273.883,40.312
113.19,272.479,39.831
113.22,270.654,39.396
113.25,269.075,39.144
113.28,267.987,39.052
113.32,266.443,39.121
113.35,265.215,39.121
113.38,264.548,38.846
113.41,263.074,38.514
113.45,261.53,38.124
113.48,260.477,37.528
113.51,258.617,37.231
113.54,256.897,37.162
113.58,255.914,36.738
113.61,253.844,36.509
113.64,252.405,36.463
113.67,251.282,35.982
113.71,249.106,35.466
113.74,247.351,35.1
113.77,245.947,34.802
113.8,244.052,34.55
113.84,242.157,34.412
113.87,240.964,34.218
113.9,239.384,33.886
113.93,237.279,33.714
113.97,236.121,33.313
114.0,234.506,32.843
114.03,232.155,32.728
114.06,231.032,32.328
114.1,229.102,31.812
114.13,226.505,31.537
114.16,225.206,31.251
114.19,223.346,30.85
114.23,220.503,30.632
114.26,219.17,30.185
114.29,217.345,29.784
114.32,214.537,29.933
114.36,213.484,29.681
114.39,211.87,29.2
114.42,208.957,29.257
114.46,207.904,28.708
114.49,206.079,27.791
114.52,202.429,27.7
114.55,201.131,27.241
114.59,199.13,26.646
114.62,195.41,26.898
114.65,194.427,26.623
114.68,192.357,26.107
114.72,189.023,26.038
114.75,187.83,25.282
114.78,185.513,24.526
114.81,181.828,24.343
114.85,180.249,23.759
114.88,178.038,23.163
114.91,174.283,23.175
114.94,172.318,22.59
114.98,170.001,21.743
115.01,166.562,21.571
115.04,163.719,21.021
115.07,161.473,20.093
115.11,158.385,19.726
115.14,154.419,19.383
115.17,152.208,18.821
115.2,150.664,18.134
115.24,146.172,18.02
115.27,143.118,17.63
115.3,142.592,16.702
115.33,138.416,16.611
115.37,134.555,16.485
115.4,134.204,15.293
115.43,129.922,14.846
115.46,125.536,15.007
115.5,124.693,13.827
115.53,119.885,13.105
115.56,115.147,13.334
115.59,113.814,12.395
115.63,109.251,11.925
115.66,105.391,12.269
115.69,103.952,11.524
115.72,100.092,10.814
115.76,97.249,10.333
115.79,94.16,9.313
115.82,89.844,8.523
115.85,86.475,7.71
115.89,82.228,7.194
115.92,78.333,6.954
115.95,75.49,6.427
115.99,71.594,6.003
116.02,68.401,5.648
116.05,65.593,4.937
116.08,61.732,4.422
116.12,58.118,4.032
116.15,55.064,3.471
116.18,51.485,3.024
116.21,47.87,2.795
116.25,44.536,2.325
116.28,41.412,1.741
116.31,37.903,1.352
116.34,34.464,1.042
116.38,31.796,0.481
116.41,28.743,-0.057
116.44,25.655,-0.458
116.47,23.128,-1.042
116.51,20.285,-1.707
116.54,16.986,-2.073
116.57,13.126,-2.291
116.6,8.669,-2.658
116.64,3.615,-2.887
