Trigger_Date,2023/06/26
Trigger_Time,T 12:10:50.475 PDT
Samples_Per_Cycle,512
Microseconds_Per_Sample,32.566
Time (ms),Voltage (V),Current (A)
-16.67,-2.983,-2.761
-16.64,-7.475,-2.371
-16.61,-11.301,-1.902
-16.58,-14.143,-1.524
-16.54,-16.144,-1.627
-16.51,-18.355,-1.982
-16.48,-20.671,-2.303
-16.45,-23.373,-2.681
-16.41,-26.076,-3.311
-16.38,-28.778,-4.158
-16.35,-31.972,-4.869
-16.32,-35.481,-5.499
-16.28,-40.114,-5.934
-16.25,-44.641,-6.301
-16.22,-49.203,-6.564
-16.19,-53.45,-6.644
-16.15,-57.275,-6.782
-16.12,-60.118,-7.16
-16.09,-63.101,-7.4
-16.06,-65.312,-7.79
-16.02,-67.383,-8.626
-15.99,-70.541,-9.268
-15.96,-73.209,-10.047
-15.92,-76.157,-10.952
-15.89,-80.122,-11.547
-15.86,-83.246,-12.166
-15.83,-86.685,-12.865
-15.79,-90.616,-13.323
-15.76,-93.774,-13.93
-15.73,-97.108,-14.514
-15.7,-100.548,-14.972
-15.66,-104.057,-15.614
-15.63,-107.602,-16.301
-15.6,-110.69,-17.092
-15.57,-115.323,-17.619
-15.53,-119.078,-18.123
-15.5,-121.745,-18.867
-15.47,-126.764,-18.787
-15.44,-129.642,-19.005
-15.4,-131.537,-19.726
-15.37,-136.485,-19.314
-15.34,-138.17,-19.99
-15.31,-140.591,-21.307
-15.27,-145.224,-20.471
-15.24,-144.627,-21.261
-15.21,-147.014,-21.903
-15.18,-148.698,-22.235
-15.14,-149.857,-23.747
-15.11,-152.699,-24.458
-15.08,-154.594,-25.374
-15.05,-158.35,-26.405
-15.01,-161.122,-27.218
-14.98,-164.0,-28.032
-14.95,-168.492,-28.307
-14.92,-170.949,-28.788
-14.88,-173.651,-29.315
-14.85,-177.933,-29.2
-14.82,-179.898,-29.796
-14.79,-182.706,-30.655
-14.75,-186.566,-30.644
-14.72,-188.075,-30.976
-14.69,-190.813,-31.594
-14.65,-194.182,-31.491
-14.62,-194.849,-31.675
-14.59,-197.411,-32.041
-14.56,-200.534,-31.984
-14.52,-201.341,-32.454
-14.49,-203.833,-32.717
-14.46,-206.325,-32.431
-14.43,-206.606,-32.774
-14.39,-208.887,-32.992
-14.36,-210.782,-32.786
-14.33,-211.098,-33.393
-14.3,-213.695,-33.897
-14.26,-215.871,-34.229
-14.23,-216.818,-34.985
-14.2,-219.977,-35.237
-14.17,-222.047,-35.306
-14.13,-223.276,-35.913
-14.1,-226.294,-36.051
-14.07,-227.908,-36.062
-14.04,-229.172,-36.669
-14.0,-232.12,-36.761
-13.97,-233.524,-36.99
-13.94,-234.892,-37.574
-13.91,-237.56,-37.483
-13.87,-238.612,-37.517
-13.84,-240.121,-38.101
-13.81,-242.648,-38.342
-13.78,-243.631,-38.456
-13.74,-245.21,-38.811
-13.71,-247.491,-38.937
-13.68,-248.404,-39.201
-13.65,-249.843,-39.43
-13.61,-251.738,-39.338
-13.58,-252.51,-39.613
-13.55,-254.019,-40.06
-13.52,-256.02,-40.22
-13.48,-256.827,-40.69
-13.45,-258.652,-41.194
-13.42,-260.547,-41.229
-13.38,-261.424,-41.446
-13.35,-263.074,-41.549
-13.32,-264.337,-41.343
-13.29,-265.039,-41.698
-13.25,-266.583,-42.099
-13.22,-267.987,-42.317
-13.19,-269.215,-42.752
-13.16,-270.549,-42.821
-13.12,-271.532,-42.489
-13.09,-272.023,-42.294
-13.06,-272.9,-42.317
-13.03,-273.567,-42.557
-12.99,-274.374,-43.096
-12.96,-275.673,-43.543
-12.93,-277.042,-43.932
-12.9,-278.165,-44.299
-12.86,-279.744,-44.367
-12.83,-280.902,-44.344
-12.8,-281.885,-44.539
-12.77,-283.043,-44.574
-12.73,-284.061,-44.722
-12.7,-284.903,-44.883
-12.67,-285.78,-44.871
-12.64,-286.377,-44.665
-12.6,-286.552,-44.562
-12.57,-286.833,-44.23
-12.54,-286.588,-43.772
-12.51,-285.991,-43.52
-12.47,-285.71,-43.623
-12.44,-285.535,-43.783
-12.41,-285.324,-43.863
-12.38,-285.394,-43.783
-12.34,-285.324,-43.829
-12.31,-284.692,-43.565
-12.28,-284.622,-43.325
-12.24,-284.377,-43.371
-12.21,-283.885,-43.508
-12.18,-283.815,-43.313
-12.15,-283.289,-43.004
-12.11,-282.446,-42.764
-12.08,-281.744,-42.225
-12.05,-280.516,-41.664
-12.02,-279.007,-41.297
-11.98,-277.744,-41.091
-11.95,-276.761,-41.068
-11.92,-275.533,-41.171
-11.89,-274.655,-41.057
-11.85,-273.602,-40.69
-11.82,-272.269,-40.392
-11.79,-271.251,-40.026
-11.76,-269.882,-39.636
-11.72,-268.303,-39.533
-11.69,-267.496,-39.499
-11.66,-266.443,-39.35
-11.63,-265.004,-39.293
-11.59,-264.407,-39.041
-11.56,-263.109,-38.525
-11.53,-261.214,-38.239
-11.5,-260.512,-37.7
-11.46,-258.511,-37.334
-11.43,-256.581,-37.345
-11.4,-255.914,-37.001
-11.37,-254.089,-36.761
-11.33,-252.299,-36.726
-11.3,-251.247,-35.821
-11.27,-248.825,-35.157
-11.24,-247.07,-35.455
-11.2,-246.123,-35.088
-11.17,-243.491,-34.584
-11.14,-241.525,-34.367
-11.11,-240.613,-33.931
-11.07,-238.086,-33.702
-11.04,-236.121,-33.656
-11.01,-235.243,-32.969
-10.97,-232.436,-32.648
-10.94,-230.997,-32.981
-10.91,-230.435,-32.671
-10.88,-227.592,-32.545
-10.84,-226.68,-32.431
-10.81,-226.048,-31.824
-10.78,-222.749,-31.445
-10.75,-221.24,-30.861
-10.71,-219.907,-29.91
-10.68,-215.906,-29.865
-10.65,-214.432,-29.555
-10.62,-212.712,-28.822
-10.58,-209.027,-29.051
-10.55,-207.869,-28.719
-10.52,-205.728,-27.929
-10.49,-202.219,-27.894
-10.45,-201.096,-27.356
-10.42,-198.639,-26.852
-10.39,-195.2,-27.127
-10.36,-194.427,-26.76
-10.32,-192.252,-26.474
-10.29,-189.268,-26.52
-10.26,-188.356,-25.626
-10.23,-185.829,-25.065
-10.19,-182.53,-24.881
-10.16,-181.091,-23.931
-10.13,-178.284,-23.518
-10.1,-175.09,-23.553
-10.06,-173.546,-22.716
-10.03,-170.387,-22.132
-10.0,-167.088,-21.926
-9.97,-164.912,-21.17
-9.93,-161.929,-20.609
-9.9,-158.56,-20.242
-9.87,-155.928,-19.91
-9.84,-154.243,-19.555
-9.8,-151.155,-19.051
-9.77,-147.505,-18.638
-9.74,-145.715,-17.768
-9.7,-142.978,-17.183
-9.67,-138.451,-17.206
-9.64,-137.047,-16.496
-9.61,-135.152,-16.152
-9.57,-130.94,-16.29
-9.54,-129.712,-15.408
-9.51,-127.01,-14.537
-9.48,-122.482,-14.571
-9.44,-120.763,-13.747
-9.41,-117.078,-12.853
-9.38,-112.375,-12.887
-9.35,-110.339,-12.349
-9.31,-106.444,-11.662
-9.28,-102.583,-11.478
-9.25,-99.986,-10.757
-9.22,-95.845,-10.035
-9.18,-92.686,-9.336
-9.15,-88.896,-8.489
-9.12,-84.474,-7.973
-9.09,-81.316,-7.251
-9.05,-77.034,-6.724
-9.02,-73.314,-6.415
-8.99,-70.331,-5.797
-8.96,-66.435,-5.304
-8.92,-62.996,-4.869
-8.89,-59.908,-4.261
-8.86,-56.223,-3.861
-8.83,-52.818,-3.528
-8.79,-49.765,-3.059
-8.76,-46.431,-2.635
-8.73,-43.062,-2.291
-8.7,-39.868,-1.879
-8.66,-37.096,-1.443
-8.63,-34.007,-1.054
-8.6,-31.129,-0.596
-8.56,-28.392,0.103
-8.53,-25.233,0.859
-8.5,-21.829,1.638
-8.47,-18.109,2.497
-8.43,-13.055,3.104
-8.4,-7.23,3.356
-8.37,-1.088,3.379
-8.34,4.773,3.07
-8.3,9.756,2.6
-8.27,13.933,2.131
-8.24,16.495,1.764
-8.21,18.46,1.569
-8.17,20.32,1.65
-8.14,22.075,2.005
-8.11,23.9,2.532
-8.08,26.286,3.047
-8.04,28.497,3.723
-8.01,31.165,4.513
-7.98,34.393,5.166
-7.95,38.64,5.659
-7.91,43.307,5.991
-7.88,47.414,6.358
-7.85,51.765,6.518
-7.82,55.872,6.553
-7.78,58.679,7.011
-7.75,62.048,7.458
-7.72,64.856,7.79
-7.69,66.786,8.626
-7.65,70.331,9.187
-7.62,72.963,9.794
-7.59,75.42,10.814
-7.56,79.736,11.375
-7.52,83.07,12.097
-7.49,86.299,13.082
-7.46,90.686,13.495
-7.43,94.231,13.953
-7.39,97.389,14.549
-7.36,100.548,14.938
-7.33,104.057,15.385
-7.29,107.426,16.003
-7.26,109.883,16.84
-7.23,114.375,17.229
-7.2,117.955,17.63
-7.16,119.885,18.718
-7.13,125.255,18.592
-7.1,128.413,18.73
-7.07,129.782,19.91
-7.03,135.573,19.578
-7.0,137.819,19.795
-6.97,139.854,21.273
-6.94,145.259,20.918
-6.9,145.75,21.284
-6.87,148.242,22.499
-6.84,149.857,22.98
-6.81,151.085,24.102
-6.77,154.138,24.698
-6.74,155.858,25.855
-6.71,159.859,26.817
-6.68,162.666,27.173
-6.64,164.807,27.894
-6.61,169.159,28.066
-6.58,171.23,28.238
-6.55,173.3,28.811
-6.51,177.336,28.868
-6.48,179.126,29.475
-6.45,181.688,30.426
-6.42,185.689,30.609
-6.38,187.373,31.136
-6.35,190.321,31.709
-6.32,193.726,31.549
-6.29,194.849,31.846
-6.25,197.691,32.35
-6.22,200.639,32.328
-6.19,201.797,32.66
-6.16,204.535,32.912
-6.12,206.992,32.751
-6.09,207.343,32.946
-6.06,209.518,33.003
-6.02,211.378,32.843
-5.99,211.729,33.496
-5.96,214.116,33.977
-5.93,215.906,34.0
-5.89,216.959,34.802
-5.86,219.977,35.352
-5.83,221.907,35.466
-5.8,223.416,36.085
-5.76,226.294,36.222
-5.73,228.224,36.268
-5.7,229.628,36.715
-5.67,232.295,37.001
-5.63,234.085,37.242
-5.6,235.313,37.402
-5.57,237.279,37.253
-5.54,238.612,37.288
-5.5,239.7,37.712
-5.47,241.56,37.883
-5.44,242.929,38.227
-5.41,244.543,38.892
-5.37,246.86,39.338
-5.34,248.544,39.671
-5.31,250.264,39.865
-5.28,252.264,39.865
-5.24,253.528,40.037
-5.21,255.107,40.358
-5.18,256.757,40.564
-5.15,258.055,40.885
-5.11,259.705,41.206
-5.08,261.249,41.355
-5.05,262.337,41.32
-5.02,263.284,41.32
-4.98,264.583,41.263
-4.95,265.425,41.503
-4.92,266.548,42.065
-4.88,268.092,42.397
-4.85,269.356,42.764
-4.82,270.724,43.05
-4.79,272.093,42.901
-4.75,272.83,42.924
-4.72,274.059,43.107
-4.69,275.146,43.199
-4.66,276.129,43.554
-4.62,277.357,43.955
-4.59,278.691,44.081
-4.56,279.568,44.104
-4.53,280.411,44.001
-4.49,280.972,43.806
-4.46,281.113,43.691
-4.43,281.569,43.6
-4.4,282.13,43.691
-4.36,282.411,44.092
-4.33,282.903,44.241
-4.3,283.675,44.15
-4.27,283.745,44.058
-4.23,284.096,44.104
-4.2,284.517,44.058
-4.17,284.517,44.092
-4.14,284.833,44.253
-4.1,285.78,44.459
-4.07,285.675,44.47
-4.04,285.71,44.31
-4.01,285.78,43.726
-3.97,285.219,43.543
-3.94,284.798,43.451
-3.91,284.377,43.05
-3.88,283.71,43.107
-3.84,283.534,43.382
-3.81,283.499,43.313
-3.78,282.657,43.073
-3.75,282.166,42.729
-3.71,281.499,42.271
-3.68,280.235,41.939
-3.65,279.182,41.687
-3.61,278.551,41.515
-3.58,277.077,41.492
-3.55,276.234,41.297
-3.52,275.287,40.736
-3.48,273.392,40.369
-3.45,272.058,39.923
-3.42,270.514,39.281
-3.39,268.408,39.132
-3.35,267.461,39.178
-3.32,266.127,39.086
-3.29,264.548,39.132
-3.26,264.021,38.937
-3.22,262.547,38.594
-3.19,261.038,38.319
-3.16,260.301,37.952
-3.13,258.792,37.712
-3.09,257.037,37.689
-3.06,256.406,37.265
-3.03,254.791,36.979
-3.0,253.001,36.875
-2.96,252.335,36.245
-2.93,249.843,35.661
-2.9,247.772,35.375
-2.87,246.754,34.836
-2.83,244.052,34.538
-2.8,242.052,34.447
-2.77,240.999,33.908
-2.74,238.191,33.611
-2.7,236.191,33.336
-2.67,234.998,32.637
-2.64,231.944,32.568
-2.61,230.365,32.591
-2.57,229.382,32.087
-2.54,226.294,32.03
-2.51,225.241,32.03
-2.48,224.434,31.571
-2.44,221.31,31.514
-2.41,220.363,31.113
-2.38,218.994,30.357
-2.34,215.765,30.449
-2.31,214.958,30.162
-2.28,213.449,29.464
-2.25,210.15,29.59
-2.21,209.238,29.051
-2.18,207.167,28.055
-2.15,203.482,27.963
-2.12,202.324,27.367
-2.08,199.622,26.772
-2.05,195.972,27.001
-2.02,194.849,26.588
-1.99,192.427,26.325
-1.95,189.479,26.405
-1.92,188.461,25.615
-1.89,185.864,25.099
-1.86,182.776,25.007
-1.82,181.442,24.137
-1.79,178.6,23.77
-1.76,175.722,23.77
-1.73,174.107,22.991
-1.69,170.949,22.407
-1.66,167.86,22.063
-1.63,165.755,21.284
-1.6,162.631,20.643
-1.56,159.297,20.242
-1.53,156.349,19.692
-1.5,153.612,18.982
-1.47,150.804,18.753
-1.43,147.295,18.627
-1.4,145.575,18.168
-1.37,143.188,17.481
-1.34,139.082,17.069
-1.3,136.977,16.565
-1.27,135.011,15.946
-1.24,131.01,15.912
-1.2,128.87,15.247
-1.17,126.308,14.365
-1.14,122.026,14.182
-1.11,119.324,13.666
-1.07,116.165,12.83
-1.04,111.919,12.658
-1.01,109.181,12.544
-0.98,106.409,12.04
-0.94,102.934,11.65
-0.91,100.056,11.123
-0.88,96.758,10.31
-0.85,93.704,9.325
-0.81,89.352,8.523
-0.78,85.036,7.939
-0.75,81.702,7.228
-0.72,77.49,6.793
-0.68,73.7,6.495
-0.65,70.576,5.854
-0.62,66.997,5.35
-0.59,63.593,5.086
-0.55,60.715,4.651
-0.52,57.416,4.193
-0.49,54.327,3.861
-0.46,51.414,3.391
-0.42,48.256,2.921
-0.39,44.992,2.429
-0.36,41.518,2.016
-0.33,38.429,1.558
-0.29,35.376,0.916
-0.26,31.621,0.412
-0.23,28.743,-0.263
-0.2,25.409,-1.054
-0.16,21.724,-1.65
-0.13,18.214,-2.337
-0.1,13.441,-2.887
-0.07,7.967,-3.082
-0.03,2.386,-3.07
0.0,-3.088,-2.898
0.03,-7.896,-2.577
0.07,-12.213,-2.131
0.1,-15.196,-1.787
0.13,-17.372,-1.844
0.16,-19.899,-2.028
0.2,-22.075,-2.314
0.23,-23.97,-2.772
0.26,-26.743,-3.059
0.29,-28.743,-3.677
0.33,-31.375,-4.628
0.36,-34.779,-5.292
0.39,-39.166,-5.831
0.42,-44.325,-6.186
0.46,-48.116,-6.701
0.49,-53.099,-6.782
0.52,-57.24,-6.679
0.55,-59.521,-7.183
0.59,-63.101,-7.366
0.62,-65.417,-7.606
0.65,-66.576,-8.729
0.68,-70.471,-9.268
0.72,-73.209,-9.955
0.75,-75.56,-11.169
0.78,-80.228,-11.616
0.81,-83.597,-12.143
0.85,-86.615,-13.059
0.88,-90.862,-13.437
0.91,-94.336,-13.953
0.94,-97.495,-14.629
0.98,-100.688,-15.018
1.01,-104.549,-15.408
1.04,-107.672,-16.095
1.07,-109.848,-16.989
1.11,-114.867,-17.286
1.14,-118.236,-17.813
1.17,-120.201,-18.844
1.2,-125.816,-18.535
1.24,-128.554,-18.81
1.27,-130.133,-19.898
1.3,-135.713,-19.303
1.34,-137.749,-19.83
1.37,-139.89,-21.296
1.4,-144.522,-20.666
1.43,-145.435,-21.181
1.47,-146.733,-22.006
1.5,-149.049,-22.373
1.53,-150.594,-23.793
1.56,-152.769,-24.698
1.6,-154.805,-25.466
1.63,-158.56,-26.405
1.66,-161.438,-27.31
1.69,-164.14,-28.078
1.73,-168.492,-28.169
1.76,-170.879,-28.65
1.79,-173.616,-29.28
1.82,-177.512,-29.212
1.86,-179.547,-29.796
1.89,-182.53,-30.644
1.92,-186.215,-30.747
1.95,-187.97,-31.067
1.99,-190.778,-31.571
2.02,-193.761,-31.583
2.05,-195.129,-31.766
2.08,-197.446,-32.03
2.12,-200.183,-32.087
2.15,-201.482,-32.442
2.18,-203.693,-32.671
2.21,-205.763,-32.568
2.25,-206.851,-32.809
2.28,-208.817,-33.038
2.31,-210.536,-33.084
2.34,-211.554,-33.565
2.38,-213.835,-34.034
2.41,-216.116,-34.561
2.44,-217.485,-35.146
2.48,-219.907,-35.226
2.51,-222.047,-35.237
2.54,-223.381,-35.684
2.57,-225.662,-35.913
2.61,-227.417,-35.97
2.64,-228.926,-36.452
2.67,-231.383,-36.91
2.7,-233.102,-37.208
2.74,-234.962,-37.609
2.77,-237.033,-37.62
2.8,-238.788,-37.826
2.83,-240.578,-38.33
2.87,-242.508,-38.468
2.9,-243.912,-38.559
2.93,-245.526,-38.892
2.96,-247.527,-39.315
3.0,-249.176,-39.556
3.03,-250.439,-39.671
3.06,-251.984,-39.671
3.09,-253.458,-39.728
3.13,-254.475,-40.003
3.16,-255.879,-40.301
3.19,-257.388,-40.553
3.22,-258.582,-40.988
3.26,-260.126,-41.32
3.29,-261.705,-41.366
3.32,-262.828,-41.515
3.35,-264.021,-41.629
3.39,-265.32,-41.698
3.42,-266.478,-42.122
3.45,-268.057,-42.649
3.48,-269.742,-42.878
3.52,-270.83,-43.119
3.55,-272.198,-43.096
3.58,-273.357,-42.867
3.61,-274.094,-43.084
3.65,-275.287,-43.348
3.68,-276.515,-43.634
3.71,-277.673,-44.104
3.75,-279.042,-44.425
3.78,-280.2,-44.448
3.81,-281.253,-44.379
3.84,-282.095,-44.299
3.88,-282.727,-44.138
3.91,-283.113,-44.047
3.94,-283.745,-44.207
3.97,-284.201,-44.276
4.01,-284.482,-44.322
4.04,-284.903,-44.241
4.07,-285.149,-44.241
4.1,-285.289,-44.207
4.14,-285.429,-43.909
4.17,-285.149,-43.68
4.2,-285.078,-43.955
4.23,-285.359,-43.966
4.27,-285.149,-44.058
4.3,-285.254,-43.978
4.33,-285.5,-43.989
4.36,-285.008,-44.035
4.4,-284.552,-43.451
4.43,-284.552,-43.107
4.46,-284.026,-43.394
4.49,-283.499,-43.439
4.53,-284.306,-43.806
4.56,-285.008,-44.974
4.59,-286.307,-45.616
4.62,-287.43,-45.479
4.66,-288.202,-45.616
4.69,-289.5,-45.456
4.72,-289.781,-44.906
4.75,-289.044,-44.333
4.79,-288.237,-43.222
4.82,-286.342,-41.836
4.85,-283.113,-40.507
4.88,-280.13,-39.361
4.92,-276.831,-38.41
4.95,-272.9,-38.273
4.98,-270.619,-38.319
5.02,-268.338,-38.319
5.05,-265.636,-38.514
5.08,-264.232,-38.319
5.11,-262.407,-37.883
5.15,-260.301,-37.883
5.18,-259.459,-37.746
5.21,-257.95,-37.528
5.24,-256.23,-37.563
5.28,-255.669,-37.139
5.31,-253.738,-36.681
5.34,-251.633,-36.36
5.37,-250.545,-35.489
5.41,-247.842,-34.917
5.44,-245.526,-34.905
5.47,-244.649,-34.619
5.5,-242.297,-34.538
5.54,-240.578,-34.768
5.57,-240.157,-34.493
5.6,-238.121,-34.344
5.63,-236.752,-34.183
5.67,-236.121,-33.633
5.7,-233.734,-33.233
5.73,-232.085,-32.877
5.76,-230.821,-32.293
5.8,-227.873,-31.961
5.83,-226.224,-31.594
5.86,-224.469,-30.884
5.89,-221.205,-30.689
5.93,-219.415,-30.38
5.96,-217.661,-29.842
5.99,-214.607,-29.968
6.02,-213.379,-29.91
6.06,-211.8,-29.487
6.09,-209.062,-29.567
6.12,-208.08,-29.005
6.16,-205.939,-28.215
6.19,-202.885,-28.043
6.22,-201.657,-27.505
6.25,-199.13,-27.081
6.29,-196.217,-27.241
6.32,-194.814,-26.898
6.35,-192.497,-26.497
6.38,-189.655,-26.061
6.42,-187.794,-25.248
6.45,-185.233,-24.767
6.48,-182.144,-24.446
6.51,-179.898,-23.793
6.55,-177.477,-23.621
6.58,-174.844,-23.633
6.61,-172.598,-22.888
6.64,-169.65,-22.098
6.68,-166.808,-21.651
6.71,-164.07,-21.204
6.74,-161.052,-20.597
6.77,-158.034,-19.967
6.81,-155.051,-19.841
6.84,-152.945,-19.635
6.87,-150.488,-18.89
6.9,-146.698,-18.329
6.94,-144.347,-18.008
6.97,-142.171,-17.149
7.0,-136.134,-14.801
7.03,-128.589,-11.444
7.07,-120.482,-9.164
7.1,-112.34,-9.749
7.13,-106.619,-11.742
7.16,-104.057,-12.349
7.2,-102.583,-12.899
7.23,-102.197,-14.056
7.26,-103.636,-14.571
7.29,-105.321,-14.457
7.33,-105.952,-14.182
7.36,-106.303,-13.518
7.39,-105.461,-12.429
7.43,-103.075,-11.513
7.46,-100.232,-10.321
7.49,-96.301,-8.947
7.52,-91.528,-8.007
7.56,-86.79,-7.469
7.59,-82.263,-6.942
7.62,-77.841,-6.392
7.65,-73.63,-6.049
7.69,-70.12,-5.797
7.72,-66.716,-5.327
7.75,-63.101,-4.88
7.78,-60.013,-4.468
7.82,-56.924,-4.17
7.85,-53.801,-3.861
7.88,-50.713,-3.345
7.91,-47.765,-2.898
7.95,-44.746,-2.52
7.98,-41.026,-1.947
8.01,-37.938,-1.26
8.04,-34.744,-0.63
8.08,-30.743,-0.344
8.11,-28.041,0.241
8.14,-25.023,1.008
8.17,-21.584,1.42
8.21,-18.706,1.89
8.24,-14.775,2.451
8.27,-10.283,2.681
8.3,-5.51,2.669
8.34,-0.877,2.543
8.37,3.545,2.406
8.4,7.51,2.142
8.43,11.23,2.016
8.47,14.6,2.073
8.5,17.442,2.417
8.53,20.741,2.887
8.56,23.9,3.528
8.6,27.831,3.941
8.63,30.638,4.548
8.66,33.902,5.247
8.7,37.376,5.648
8.73,41.904,5.865
8.76,46.642,5.991
8.79,49.66,6.301
8.83,53.59,6.106
8.86,56.293,5.877
8.89,57.416,6.553
8.92,60.364,7.045
8.96,62.715,7.446
8.99,64.084,8.523
9.02,68.225,9.176
9.05,71.243,9.886
9.09,74.016,10.952
9.12,78.754,11.307
9.15,82.333,12.086
9.18,85.773,13.162
9.22,90.37,13.403
9.25,93.88,13.77
9.28,96.898,14.457
9.31,100.127,14.892
9.35,103.812,15.179
9.38,106.514,15.797
9.41,109.111,16.748
9.44,113.814,17.172
9.48,117.078,17.699
9.51,119.499,18.592
9.54,124.693,18.501
9.57,127.536,18.844
9.61,129.677,19.726
9.64,134.66,19.314
9.67,136.977,19.738
9.7,139.082,20.769
9.74,143.294,20.666
9.77,145.154,21.17
9.8,146.382,22.212
9.84,149.435,22.567
9.87,150.98,23.53
9.9,152.98,24.629
9.93,155.577,25.282
9.97,158.63,26.245
10.0,161.403,27.092
10.03,164.07,27.768
10.06,167.755,28.089
10.1,170.528,28.559
10.13,173.405,29.017
10.16,176.669,29.269
10.19,179.266,29.796
10.23,182.32,30.392
10.26,185.303,30.678
10.29,187.619,31.102
10.32,190.462,31.388
10.36,192.918,31.514
10.39,194.849,31.743
10.42,197.13,32.087
10.45,199.762,32.282
10.49,201.622,32.499
10.52,203.728,32.751
10.55,206.009,32.866
10.58,207.378,32.889
10.62,208.852,33.038
10.65,210.782,33.175
10.68,212.186,33.565
10.71,213.8,34.092
10.75,216.011,34.447
10.78,217.836,34.951
10.81,220.082,35.512
10.84,222.188,35.581
10.88,224.048,35.661
10.91,225.978,36.051
10.94,228.294,36.463
10.97,230.154,36.761
11.01,231.979,37.127
11.04,234.436,37.391
11.07,236.366,37.654
11.11,237.56,37.631
11.14,239.349,37.54
11.17,241.209,37.964
11.2,242.543,38.456
11.24,244.228,38.64
11.27,246.053,38.903
11.3,247.807,39.51
11.33,249.773,39.751
11.37,251.071,39.625
11.4,252.37,39.671
11.43,254.089,39.865
11.46,255.212,40.186
11.5,256.371,40.381
11.53,258.055,40.415
11.56,258.968,40.782
11.59,260.266,41.068
11.63,261.705,40.919
11.66,262.126,41.16
11.69,263.6,41.446
11.72,264.864,41.435
11.76,265.671,41.985
11.79,267.461,42.466
11.82,269.005,42.706
11.85,270.233,43.073
11.89,271.742,43.119
11.92,272.971,42.981
11.95,273.778,43.199
11.98,275.357,43.359
12.02,276.445,43.508
12.05,277.393,44.104
12.08,279.007,44.253
12.11,280.095,44.104
12.15,280.586,44.15
12.18,281.674,44.15
12.21,282.025,43.691
12.24,281.815,43.554
12.28,282.516,43.68
12.31,282.867,43.932
12.34,282.938,44.127
12.38,283.499,44.081
12.41,284.026,43.978
12.44,284.096,44.161
12.47,284.447,43.909
12.51,284.341,43.657
12.54,284.412,44.001
12.57,284.903,44.104
12.6,284.763,44.001
12.64,284.692,43.921
12.67,284.868,43.577
12.7,284.201,43.325
12.73,283.604,43.165
12.77,283.675,43.004
12.8,283.008,43.348
12.83,283.253,43.703
12.86,283.464,43.611
12.9,282.903,43.439
12.93,282.692,43.061
12.96,282.201,42.408
12.99,280.656,41.962
13.03,279.849,41.595
13.06,278.656,41.412
13.09,277.252,41.423
13.12,276.445,41.057
13.16,275.041,40.61
13.19,273.146,40.301
13.22,272.128,39.751
13.25,270.268,39.235
13.29,268.268,39.258
13.32,267.601,39.178
13.35,265.987,39.109
13.38,264.583,39.247
13.42,264.197,39.075
13.45,262.968,38.697
13.48,261.284,38.445
13.52,260.652,38.01
13.55,259.143,37.666
13.58,257.318,37.643
13.61,256.686,37.185
13.65,254.932,36.898
13.68,253.317,36.933
13.71,252.58,36.429
13.74,250.334,35.97
13.78,249.036,35.925
13.81,248.088,35.547
13.84,245.631,35.146
13.87,243.806,34.699
13.91,242.508,34.08
13.94,239.735,33.588
13.97,237.349,33.187
14.0,235.349,32.419
14.04,232.365,31.961
14.07,230.19,31.995
14.1,228.575,31.801
14.13,225.908,31.652
14.17,224.294,31.675
14.2,223.206,31.549
14.23,220.924,31.4
14.26,219.415,31.033
14.3,218.011,30.598
14.33,216.011,30.495
14.36,214.397,30.254
14.39,212.888,29.762
14.43,210.782,29.544
14.46,208.992,29.189
14.49,207.027,28.421
14.52,204.254,27.894
14.56,202.043,27.47
14.59,199.551,27.058
14.62,196.744,26.921
14.65,194.603,26.76
14.69,192.813,26.497
14.72,190.251,26.256
14.75,188.11,25.786
14.79,186.145,25.099
14.82,183.267,24.664
14.85,180.565,24.206
14.88,178.74,23.656
14.92,175.722,23.438
14.95,173.055,23.106
14.98,171.124,22.315
15.01,168.036,21.96
15.05,165.123,21.628
15.08,162.666,20.757
15.11,159.824,20.265
15.14,156.419,20.059
15.18,153.998,19.509
15.21,151.822,19.005
15.24,148.207,18.673
15.27,145.435,18.272
15.31,144.031,17.527
15.34,140.486,17.149
15.37,136.906,16.885
15.4,135.924,15.912
15.44,132.169,15.442
15.47,127.817,15.373
15.5,126.694,14.354
15.53,122.693,13.77
15.57,118.201,13.896
15.6,116.832,13.002
15.63,112.515,12.441
15.66,108.409,12.865
15.7,107.391,12.235
15.73,103.531,11.582
15.76,100.056,11.41
15.79,98.091,10.356
15.83,94.02,9.336
15.86,89.844,8.763
15.89,86.124,7.927
15.92,81.947,7.263
15.96,78.297,6.839
15.99,74.261,6.449
16.02,70.892,5.923
16.06,67.664,5.327
16.09,63.803,4.949
16.12,60.609,4.513
16.15,57.31,3.987
16.19,53.871,3.7
16.22,50.677,3.437
16.25,47.87,2.956
16.28,44.711,2.36
16.32,40.956,2.062
16.35,38.324,1.558
16.38,35.236,0.756
16.41,31.129,0.309
16.45,28.462,-0.298
16.48,25.198,-1.031
16.51,21.619,-1.478
16.54,18.495,-2.142
16.58,14.108,-2.726
16.61,8.914,-3.013
16.64,3.369,-3.059
16.67,-2.036,-2.921
16.71,-7.054,-2.623
16.74,-11.406,-2.245
16.77,-14.775,-1.89
16.8,-17.126,-1.89
16.84,-19.583,-1.97
16.87,-21.584,-2.154
16.9,-23.654,-2.772
16.93,-26.778,-3.356
16.97,-29.059,-4.078
17.0,-32.077,-4.811
17.03,-35.516,-5.384
17.06,-40.044,-5.865
17.1,-44.746,-6.14
17.13,-48.677,-6.541
17.16,-53.31,-6.495
17.2,-56.749,-6.541
17.23,-59.241,-7.057
17.26,-62.505,-7.377
17.29,-64.961,-7.778
17.33,-66.786,-8.729
17.36,-70.261,-9.29
17.39,-73.033,-9.932
17.42,-75.771,-10.94
17.46,-79.771,-11.582
17.49,-83.386,-12.223
17.52,-86.685,-13.048
17.55,-90.756,-13.506
17.59,-94.371,-13.964
17.62,-97.459,-14.606
17.65,-100.934,-15.11
17.68,-104.619,-15.499
17.72,-107.602,-16.175
17.75,-110.655,-16.851
17.78,-114.586,-17.298
17.81,-118.06,-17.916
17.85,-121.219,-18.547
17.88,-125.29,-18.673
17.91,-128.554,-18.925
17.94,-131.186,-19.394
17.98,-134.625,-19.52
18.01,-138.029,-19.83
18.04,-139.819,-20.906
18.07,-143.259,-21.124
18.11,-145.75,-20.975
18.14,-146.031,-21.846
18.17,-148.698,-22.522
18.2,-150.523,-23.679
18.24,-153.085,-24.733
18.27,-155.612,-25.385
18.3,-158.385,-26.462
18.33,-162.0,-27.344
18.37,-164.772,-27.929
18.4,-167.931,-28.398
18.43,-171.581,-28.662
18.47,-174.037,-29.017
18.5,-176.88,-29.395
18.53,-180.389,-29.773
18.56,-182.671,-30.426
18.6,-185.654,-30.941
18.63,-188.707,-31.022
18.66,-190.672,-31.388
18.69,-193.34,-31.617
18.73,-195.515,-31.56
18.76,-196.884,-31.789
18.79,-199.516,-32.121
18.82,-201.938,-32.259
18.86,-203.166,-32.568
18.89,-205.447,-32.671
18.92,-207.237,-32.602
18.95,-208.15,-32.912
18.99,-210.185,-33.152
19.02,-211.87,-33.347
19.05,-213.203,-34.012
19.08,-215.8,-34.573
19.12,-217.801,-35.02
19.15,-219.696,-35.558
19.18,-222.398,-35.673
19.21,-224.258,-35.684
19.25,-225.873,-36.096
19.28,-228.645,-36.429
19.31,-230.26,-36.6
19.34,-231.839,-37.013
19.38,-234.436,-37.242
19.41,-235.875,-37.334
19.44,-236.998,-37.437
19.47,-239.069,-37.253
19.51,-240.402,-37.654
19.54,-241.525,-38.273
19.57,-243.736,-38.365
19.6,-244.824,-38.605
19.64,-246.404,-39.178
19.67,-248.825,-39.361
19.7,-249.808,-39.499
19.74,-251.387,-39.705
19.77,-253.352,-39.751
19.8,-254.16,-40.186
19.83,-255.984,-40.61
19.87,-257.985,-40.702
19.9,-258.862,-41.137
19.93,-260.652,-41.446
19.96,-262.372,-41.286
20.0,-263.004,-41.412
20.03,-264.337,-41.492
20.06,-265.601,-41.412
20.09,-266.338,-41.962
20.13,-267.987,-42.477
20.16,-269.461,-42.695
20.19,-270.584,-43.004
20.22,-272.093,-43.004
20.26,-273.111,-42.901
20.29,-274.059,-43.119
20.32,-275.392,-43.291
20.35,-276.585,-43.554
20.39,-277.744,-44.012
20.42,-279.147,-44.23
20.45,-280.165,-44.195
20.48,-280.902,-44.207
20.52,-281.85,-44.058
20.55,-282.306,-43.795
20.58,-282.411,-43.829
20.61,-283.113,-43.875
20.65,-283.464,-44.001
20.68,-283.675,-44.195
20.71,-284.271,-44.138
20.74,-284.587,-44.047
20.78,-284.657,-44.299
20.81,-285.254,-44.092
20.84,-285.078,-43.955
20.88,-285.114,-44.058
20.91,-285.464,-43.978
20.94,-285.5,-44.195
20.97,-285.464,-44.15
21.01,-285.605,-43.749
21.04,-285.008,-43.565
21.07,-284.657,-43.451
21.1,-284.868,-43.417
21.14,-284.657,-44.001
21.17,-285.394,-44.631
21.2,-285.956,-44.574
21.23,-285.815,-44.39
21.27,-285.956,-43.875
21.3,-285.219,-42.89
21.33,-283.289,-41.939
21.36,-281.569,-41.011
21.4,-279.498,-40.346
21.43,-277.007,-39.968
21.46,-274.725,-39.625
21.49,-272.585,-39.27
21.53,-270.338,-39.098
21.56,-268.478,-38.937
21.59,-266.794,-38.731
21.62,-265.074,-38.811
21.66,-264.197,-38.926
21.69,-263.109,-38.892
21.72,-261.88,-38.937
21.75,-261.53,-38.788
21.79,-260.371,-38.502
21.82,-259.213,-38.262
21.85,-258.441,-37.883
21.88,-257.248,-37.551
21.92,-255.774,-37.345
21.95,-254.651,-37.036
21.98,-253.458,-36.795
22.01,-252.054,-36.681
22.05,-250.615,-36.234
22.08,-249.071,-35.592
22.11,-247.281,-35.26
22.15,-245.667,-35.008
22.18,-243.736,-34.664
22.21,-241.806,-34.195
22.24,-240.121,-33.954
22.28,-238.402,-33.828
22.31,-236.401,-33.359
22.34,-234.331,-32.866
22.37,-232.716,-32.568
22.41,-230.4,-32.385
22.44,-228.505,-32.064
22.47,-226.785,-31.594
22.5,-224.469,-31.514
22.54,-222.714,-31.159
22.57,-220.819,-30.678
22.6,-218.292,-30.46
22.63,-216.573,-30.025
22.67,-214.677,-29.807
22.7,-212.537,-29.899
22.73,-211.273,-29.624
22.76,-209.518,-29.303
22.8,-207.588,-29.303
22.83,-206.29,-28.788
22.86,-204.149,-28.089
22.89,-201.587,-27.803
22.93,-199.797,-27.253
22.96,-196.989,-26.714
22.99,-194.077,-26.577
23.02,-192.532,-26.233
23.06,-189.935,-26.004
23.09,-187.338,-25.775
23.12,-185.934,-25.111
23.15,-183.197,-24.71
23.19,-180.354,-24.332
23.22,-178.6,-23.53
23.25,-175.441,-23.278
23.28,-172.739,-23.06
23.32,-170.984,-22.292
23.35,-167.72,-21.914
23.38,-164.807,-21.662
23.42,-162.772,-20.872
23.45,-159.753,-20.276
23.48,-156.279,-20.013
23.51,-154.243,-19.715
23.55,-152.068,-18.902
23.58,-148.418,-18.466
23.61,-145.049,-18.054
23.64,-143.961,-17.08
23.68,-140.381,-17.023
23.71,-136.555,-17.023
23.74,-136.064,-15.877
23.77,-132.169,-15.58
23.81,-127.817,-15.591
23.84,-127.15,-14.216
23.87,-122.623,-13.598
23.9,-117.815,-13.861
23.94,-116.797,-12.865
23.97,-112.094,-12.464
24.0,-108.304,-13.128
24.03,-107.883,-12.475
24.07,-104.022,-11.879
24.1,-101.109,-11.765
24.13,-99.425,-10.654
24.16,-95.003,-9.646
24.2,-91.318,-8.924
24.23,-87.317,-7.927
24.26,-82.684,-7.171
24.29,-78.719,-6.495
24.33,-74.016,-6.026
24.36,-70.366,-5.648
24.39,-66.927,-5.155
24.42,-62.856,-4.892
24.46,-59.802,-4.422
24.49,-56.714,-3.941
24.52,-53.31,-3.723
24.56,-50.046,-3.402
24.59,-47.238,-2.818
24.62,-44.009,-2.234
24.65,-40.254,-1.902
24.69,-37.517,-1.363
24.72,-34.288,-0.619
24.75,-30.217,-0.183
24.78,-27.55,0.493
24.82,-24.11,1.306
24.85,-20.425,1.936
24.88,-16.6,2.566
24.91,-11.546,2.99
24.95,-6.036,3.104
24.98,-0.526,3.024
25.01,4.668,2.738
25.04,9.16,2.325
25.08,12.985,1.982
25.11,15.688,1.787
25.14,17.758,1.787
25.17,20.11,1.925
25.21,21.97,2.165
25.24,23.83,2.532
25.27,26.357,2.99
25.3,28.427,3.746
25.34,31.305,4.559
25.37,34.464,5.144
25.4,38.57,5.705
25.43,43.237,6.094
25.47,47.414,6.484
25.5,52.081,6.575
25.53,55.977,6.736
25.56,59.171,7.125
25.6,62.469,7.458
25.63,65.172,7.916
25.66,67.383,8.649
25.69,70.541,9.256
25.73,73.419,9.943
25.76,76.122,10.871
25.79,79.807,11.501
25.83,83.527,12.189
25.86,86.79,13.071
25.89,90.932,13.609
25.92,94.722,14.033
25.96,97.74,14.617
25.99,101.074,14.995
26.02,104.443,15.408
26.05,107.462,16.129
26.09,110.796,16.794
26.12,114.375,17.298
26.15,118.13,17.825
26.18,121.289,18.432
26.22,124.834,18.764
26.25,128.624,18.913
26.28,131.291,19.463
26.31,134.695,19.956
26.35,138.766,20.013
26.38,140.276,20.803
26.41,144.171,21.617
26.44,146.733,21.41
26.48,147.084,22.166
26.51,149.751,22.602
26.54,151.471,23.438
26.57,153.647,24.538
26.61,155.858,25.156
26.64,158.525,26.336
26.67,162.07,27.173
26.7,164.597,27.791
26.74,167.79,28.33
26.77,171.405,28.559
26.8,173.616,28.948
26.83,176.74,29.429
26.87,180.284,29.67
26.9,182.214,30.38
26.93,185.513,30.93
26.96,188.777,31.033
27.0,190.321,31.468
27.03,193.269,31.766
27.06,195.972,31.629
27.1,197.165,32.087
27.13,200.218,32.373
27.16,202.324,32.316
27.19,203.447,32.66
27.23,206.184,32.82
27.26,207.658,32.66
27.29,208.36,32.923
27.32,210.817,33.072
27.36,212.326,33.29
27.39,213.168,34.057
27.42,216.011,34.378
27.45,217.836,34.538
27.49,219.205,35.272
27.52,222.083,35.363
27.55,223.381,35.169
27.58,225.066,36.005
27.62,228.084,36.497
27.65,229.347,36.497
27.68,230.997,36.784
27.71,233.945,36.967
27.75,235.068,37.265
27.78,236.331,37.391
27.81,238.683,37.139
27.84,239.56,37.471
27.88,240.964,38.067
27.91,243.21,38.136
27.94,244.193,38.514
27.97,245.947,39.189
28.01,248.65,39.43
28.04,249.492,39.671
28.07,251.317,39.934
28.1,253.668,39.911
28.14,254.405,40.289
28.17,256.265,40.633
28.2,258.266,40.667
28.24,259.073,41.103
28.27,261.038,41.412
28.3,262.337,41.251
28.33,262.933,41.332
28.37,264.407,41.274
28.4,265.46,41.355
28.43,266.232,42.042
28.46,268.022,42.489
28.5,269.531,42.649
28.53,270.654,43.119
28.56,272.198,43.119
28.59,273.392,42.878
28.63,274.129,43.084
28.66,275.392,43.291
28.69,276.515,43.417
28.72,277.603,43.886
28.76,278.867,44.104
28.79,279.744,44.115
28.82,280.621,44.024
28.85,281.429,43.829
28.89,281.744,43.703
28.92,282.06,43.737
28.95,282.657,43.795
28.98,283.078,44.081
29.02,283.569,44.241
29.05,284.131,44.184
29.08,284.201,43.943
29.11,284.271,43.783
29.15,284.657,43.806
29.18,284.517,43.829
29.21,285.078,44.39
29.24,285.71,44.516
29.28,285.71,44.413
29.31,286.131,44.333
29.34,286.377,44.127
29.37,286.026,43.806
29.41,285.535,43.336
29.44,285.008,43.016
29.47,284.377,43.13
29.51,283.99,43.165
29.54,283.464,43.05
29.57,282.973,42.878
29.6,282.13,42.58
29.64,281.358,42.191
29.67,280.2,41.801
29.7,279.112,41.538
29.73,278.2,41.435
29.77,277.112,41.332
29.8,275.919,41.125
29.83,274.866,40.736
29.86,273.322,40.312
29.9,271.777,39.9
29.93,270.479,39.327
29.96,268.443,39.132
29.99,267.25,39.281
30.03,266.302,39.224
30.06,264.828,39.167
30.09,263.951,39.063
30.12,263.004,38.628
30.16,261.284,38.239
30.19,260.231,37.872
30.22,258.862,37.574
30.25,257.072,37.46
30.29,255.984,37.105
30.32,254.651,36.818
30.35,252.896,36.635
30.38,251.492,36.234
30.42,249.913,35.638
30.45,247.702,35.18
30.48,245.982,34.894
30.51,244.263,34.424
30.55,241.736,34.046
30.58,239.876,33.771
30.61,238.332,33.473
30.64,235.84,33.278
30.68,234.05,32.946
30.71,232.611,32.591
30.74,230.154,32.625
30.78,229.066,32.557
30.81,227.592,32.064
30.84,225.101,31.904
30.87,224.223,31.72
30.91,222.679,31.171
30.94,219.801,30.907
30.97,218.608,30.437
31.0,216.783,29.933
31.04,213.94,29.991
31.07,212.888,29.624
31.1,210.992,29.154
31.13,208.22,29.109
31.17,206.956,28.387
31.2,204.465,27.608
31.23,201.166,27.505
31.26,199.727,26.921
31.3,196.849,26.588
31.33,193.655,26.84
31.36,192.883,26.371
31.39,190.286,26.038
31.43,187.444,25.947
31.46,186.496,25.042
31.49,183.302,24.584
31.52,180.389,24.343
31.56,179.056,23.598
31.59,175.862,23.415
31.62,173.23,23.209
31.65,171.475,22.224
31.69,168.036,21.857
31.72,165.228,21.514
31.75,162.772,20.631
31.78,159.789,20.139
31.82,156.384,19.956
31.85,153.612,19.211
31.88,151.682,18.627
31.92,147.821,18.558
31.95,144.943,18.26
31.98,143.996,17.424
32.01,140.1,16.908
32.05,136.38,16.908
32.08,135.994,16.061
32.11,132.484,15.797
32.14,128.554,15.797
32.18,128.027,14.549
32.21,123.465,13.93
32.24,119.148,13.976
32.27,117.709,12.784
32.31,112.41,12.246
32.34,108.444,12.567
32.37,106.97,11.834
32.4,102.303,11.41
32.44,99.425,11.215
32.47,96.968,10.23
32.5,92.862,9.531
32.53,89.949,8.706
32.57,85.667,7.859
32.6,81.631,7.354
32.63,78.227,6.759
32.66,73.911,6.369
32.7,70.682,5.911
32.73,67.523,5.338
32.76,63.698,5.086
32.79,60.925,4.788
32.83,58.047,4.296
32.86,54.643,3.918
32.89,51.695,3.448
32.92,48.642,2.852
32.96,45.168,2.337
32.99,41.272,1.776
33.02,37.798,0.951
33.05,33.867,0.183
33.09,29.726,-0.229
33.12,26.532,-0.768
33.15,23.198,-1.398
33.19,19.969,-1.844
33.22,16.249,-2.291
33.25,11.862,-2.635
33.28,6.949,-2.761
33.32,2.071,-2.669
33.35,-2.527,-2.463
33.38,-6.668,-2.199
33.41,-10.248,-1.925
33.45,-13.441,-1.718
33.48,-15.828,-1.89
33.51,-18.495,-2.28
33.54,-21.233,-2.589
33.58,-23.83,-2.921
33.61,-26.602,-3.368
33.64,-29.305,-4.044
33.67,-32.182,-4.777
33.71,-35.411,-5.361
33.74,-39.342,-5.888
33.77,-44.22,-6.243
33.8,-48.747,-6.507
33.84,-52.924,-6.633
33.87,-56.784,-6.759
33.9,-59.872,-7.011
33.93,-62.434,-7.48
33.97,-65.417,-7.881
34.0,-67.558,-8.58
34.03,-70.155,-9.394
34.06,-73.595,-9.955
34.1,-76.332,-10.745
34.13,-79.596,-11.662
34.16,-83.667,-12.189
34.19,-86.861,-12.899
34.23,-90.546,-13.552
34.26,-94.301,-13.93
34.29,-97.495,-14.468
34.33,-100.864,-14.995
34.36,-104.022,-15.499
34.39,-107.567,-16.015
34.42,-110.831,-16.565
34.46,-113.568,-17.355
34.49,-118.201,-17.756
34.52,-121.043,-18.18
34.55,-123.711,-18.89
34.59,-128.729,-18.764
34.62,-130.835,-19.268
34.65,-133.467,-20.047
34.68,-138.731,-19.761
34.72,-140.17,-21.021
34.75,-143.715,-21.628
34.78,-146.733,-20.952
34.81,-146.523,-22.052
34.85,-149.751,-22.579
34.88,-150.98,-23.472
34.91,-153.296,-24.687
34.94,-155.717,-25.259
34.98,-157.858,-26.416
35.01,-162.21,-27.161
35.04,-164.386,-27.837
35.07,-167.685,-28.433
35.11,-171.826,-28.478
35.14,-173.511,-28.983
35.17,-176.775,-29.452
35.2,-180.495,-29.59
35.24,-182.109,-30.403
35.27,-185.654,-30.964
35.3,-188.847,-30.861
35.33,-190.111,-31.388
35.37,-193.445,-31.686
35.4,-195.866,-31.468
35.43,-196.603,-31.869
35.46,-199.902,-32.179
35.5,-202.078,-32.133
35.53,-202.78,-32.66
35.56,-205.798,-32.671
35.6,-207.343,-32.557
35.63,-208.009,-33.084
35.66,-210.817,-33.164
35.69,-212.151,-33.255
35.73,-213.098,-34.069
35.76,-216.292,-34.47
35.79,-217.906,-34.836
35.82,-219.485,-35.604
35.86,-222.995,-35.707
35.89,-224.644,-36.005
35.92,-226.224,-36.383
35.95,-229.102,-36.2
35.99,-230.33,-36.348
36.02,-231.804,-36.772
36.05,-234.647,-36.967
36.08,-235.489,-37.196
36.12,-236.787,-37.345
36.15,-238.963,-37.07
36.18,-239.525,-37.471
36.21,-241.245,-38.124
36.25,-243.42,-38.262
36.28,-244.333,-38.708
36.31,-246.719,-39.338
36.34,-248.895,-39.533
36.38,-249.843,-39.751
36.41,-251.843,-39.831
36.44,-253.598,-39.842
36.47,-254.616,-40.163
36.51,-256.335,-40.438
36.54,-258.055,-40.564
36.57,-259.073,-41.034
36.6,-260.898,-41.286
36.64,-262.267,-41.229
36.67,-263.004,-41.355
36.7,-264.442,-41.297
36.73,-265.39,-41.343
36.77,-266.302,-41.985
36.8,-268.092,-42.317
36.83,-269.356,-42.649
36.87,-270.549,-43.061
36.9,-272.163,-42.981
36.93,-273.322,-42.878
36.96,-274.234,-43.119
37.0,-275.462,-43.291
37.03,-276.62,-43.531
37.06,-277.779,-43.898
37.09,-279.077,-44.15
37.13,-280.165,-44.161
37.16,-280.972,-44.092
37.19,-281.744,-43.978
37.22,-282.201,-43.806
37.26,-282.516,-43.749
37.29,-283.113,-43.84
37.32,-283.394,-44.058
37.35,-283.85,-44.207
37.39,-284.377,-44.127
37.42,-284.657,-44.138
37.45,-284.798,-44.23
37.48,-285.078,-44.001
37.52,-285.149,-43.691
37.55,-285.008,-43.84
37.58,-285.008,-43.817
37.61,-285.429,-44.069
37.65,-285.5,-44.195
37.68,-285.675,-44.035
37.71,-285.64,-43.863
37.74,-285.078,-43.371
37.78,-284.482,-43.13
37.81,-284.587,-43.394
37.84,-284.482,-43.749
37.87,-284.131,-43.646
37.91,-283.78,-43.027
37.94,-282.867,-42.454
37.97,-281.674,-41.893
38.01,-280.13,-41.183
38.04,-278.34,-40.702
38.07,-276.901,-40.656
38.1,-275.533,-40.564
38.14,-273.848,-40.438
38.17,-272.76,-40.129
38.2,-271.181,-39.774
38.23,-269.496,-39.613
38.27,-268.443,-39.235
38.3,-266.934,-39.075
38.33,-265.636,-39.178
38.36,-264.828,-39.109
38.4,-263.776,-38.96
38.43,-262.723,-38.949
38.46,-262.196,-38.662
38.49,-260.687,-38.284
38.53,-259.529,-37.964
38.56,-258.582,-37.528
38.59,-256.757,-37.322
38.62,-255.528,-37.059
38.66,-254.37,-36.692
38.69,-252.65,-36.543
38.72,-251.141,-36.154
38.75,-249.632,-35.432
38.79,-247.316,-35.123
38.82,-245.807,-34.928
38.85,-244.333,-34.424
38.88,-241.701,-34.229
38.92,-240.121,-34.012
38.95,-238.753,-33.485
38.98,-235.945,-33.313
39.01,-234.401,-33.049
39.05,-233.102,-32.454
39.08,-230.225,-32.534
39.11,-229.031,-32.316
39.14,-227.487,-31.617
39.18,-224.855,-31.824
39.21,-224.188,-31.789
39.24,-222.223,-31.09
39.28,-219.275,-30.873
39.31,-218.819,-30.483
39.34,-216.678,-29.979
39.37,-213.66,-29.945
39.41,-212.958,-29.383
39.44,-210.606,-28.983
39.47,-207.799,-29.12
39.5,-206.992,-28.272
39.54,-203.868,-27.631
39.57,-200.92,-27.631
39.6,-199.867,-26.909
39.63,-196.533,-26.691
39.67,-193.796,-26.829
39.7,-193.024,-26.233
39.73,-189.935,-26.073
39.76,-187.444,-25.89
39.8,-186.461,-24.927
39.83,-183.022,-24.561
39.86,-180.109,-24.183
39.89,-178.74,-23.312
39.93,-175.301,-23.255
39.96,-172.668,-23.071
39.99,-170.914,-22.121
40.02,-167.404,-21.846
40.06,-164.807,-21.525
40.09,-162.631,-20.723
40.12,-159.578,-20.208
40.15,-156.349,-19.921
40.19,-154.173,-19.6
40.22,-151.611,-18.615
40.25,-147.856,-18.203
40.28,-144.768,-18.065
40.32,-143.329,-17.252
40.35,-140.03,-17.103
40.38,-136.731,-17.057
40.41,-135.748,-16.255
40.45,-132.52,-15.923
40.48,-129.115,-15.751
40.51,-127.887,-14.663
40.55,-123.605,-14.056
40.58,-119.745,-13.815
40.61,-117.393,-12.807
40.64,-112.55,-12.326
40.68,-108.865,-12.315
40.71,-106.303,-11.616
40.74,-101.952,-11.204
40.77,-99.109,-10.917
40.81,-95.985,-10.173
40.84,-92.3,-9.52
40.87,-89.493,-8.603
40.9,-85.141,-7.973
40.94,-81.316,-7.458
40.97,-77.806,-6.701
41.0,-73.489,-6.243
41.03,-70.436,-5.865
41.07,-67.067,-5.258
41.1,-63.101,-4.766
41.13,-59.837,-4.261
41.16,-56.538,-3.792
41.2,-52.853,-3.448
41.23,-49.59,-3.116
41.26,-46.536,-2.738
41.29,-43.378,-2.406
41.33,-40.184,-1.97
41.36,-37.236,-1.478
41.39,-34.323,-0.951
41.42,-31.165,-0.435
41.46,-28.041,0.206
41.49,-24.918,1.065
41.52,-21.373,1.867
41.55,-17.442,2.486
41.59,-12.634,3.013
41.62,-6.808,3.276
41.65,-0.948,3.253
41.69,4.668,2.956
41.72,9.476,2.509
41.75,13.512,2.039
41.78,16.144,1.741
41.82,18.179,1.707
41.85,20.25,1.867
41.88,22.285,2.051
41.91,23.9,2.406
41.95,26.041,3.024
41.98,28.638,3.654
42.01,31.094,4.456
42.04,34.253,5.189
42.08,38.078,5.808
42.11,43.272,6.209
42.14,48.256,6.461
42.17,52.362,6.701
42.21,56.644,6.759
42.24,59.908,6.862
42.27,62.119,7.354
42.3,65.312,7.721
42.34,67.278,8.34
42.37,69.559,9.428
42.4,73.524,10.035
42.43,76.227,10.86
42.47,79.596,11.811
42.5,84.123,12.269
42.53,87.282,12.922
42.56,90.862,13.609
42.6,94.792,13.999
42.63,98.091,14.514
42.66,101.144,15.03
42.69,104.163,15.499
42.73,107.988,15.958
42.76,110.831,16.622
42.79,113.638,17.447
42.82,118.692,17.607
42.86,121.008,18.26
42.89,123.711,19.073
42.92,129.291,18.673
42.96,130.87,19.44
42.99,133.818,20.311
43.02,139.468,19.658
43.05,140.276,20.62
43.09,144.101,21.662
43.12,147.189,21.021
43.15,147.224,22.029
43.18,149.576,22.59
43.22,150.418,23.461
43.25,153.156,24.629
43.28,155.296,25.271
43.31,157.928,26.543
43.35,162.315,27.092
43.38,164.14,27.791
43.41,167.65,28.444
43.44,171.896,28.364
43.48,173.23,28.857
43.51,176.669,29.349
43.54,180.179,29.429
43.57,181.653,30.277
43.61,185.408,30.873
43.64,188.496,30.93
43.67,189.935,31.503
43.7,193.41,31.697
43.74,195.831,31.526
43.77,196.919,32.133
43.8,200.288,32.385
43.83,202.464,32.27
43.87,203.517,32.717
43.9,206.395,32.82
43.93,207.764,32.614
43.96,208.466,32.9
44.0,211.028,33.026
44.03,212.221,33.313
44.06,213.414,34.115
44.09,216.432,34.447
44.13,217.976,34.802
44.16,219.696,35.398
44.19,222.539,35.317
44.23,223.521,35.203
44.26,225.592,36.016
44.29,228.4,36.371
44.32,229.488,36.509
44.36,231.313,36.726
44.39,233.839,36.807
44.42,235.068,37.162
44.45,236.717,37.46
44.49,238.612,37.334
44.52,239.595,37.448
44.55,241.49,38.147
44.58,243.631,38.594
44.62,244.93,39.006
44.65,247.07,39.35
44.68,249.316,39.545
44.71,250.334,39.774
44.75,252.089,39.808
44.78,253.773,39.762
44.81,254.791,40.129
44.84,256.406,40.404
44.88,257.915,40.553
44.91,259.108,40.965
44.94,260.828,41.297
44.97,262.267,41.263
45.01,263.074,41.263
45.04,264.267,41.32
45.07,265.495,41.412
45.1,266.408,41.927
45.14,267.987,42.374
45.17,269.391,42.706
45.2,270.795,43.016
45.23,272.269,42.947
45.27,273.181,42.901
45.3,274.199,43.084
45.33,275.427,43.13
45.37,276.375,43.405
45.4,277.638,43.783
45.43,278.796,43.932
45.46,279.779,43.955
45.5,280.551,43.863
45.53,281.148,43.76
45.56,281.604,43.52
45.59,281.709,43.417
45.63,282.095,43.588
45.66,282.692,43.875
45.69,283.008,44.047
45.72,283.534,44.104
45.76,283.92,43.898
45.79,284.026,43.863
45.82,284.412,44.024
45.85,284.587,43.978
45.89,284.903,44.161
45.92,285.5,44.379
45.95,285.991,44.436
45.98,286.061,44.459
46.02,286.447,44.173
46.05,286.377,43.737
46.08,285.71,43.451
46.11,285.149,43.13
46.15,284.973,43.016
46.18,284.236,43.107
46.21,283.64,43.061
46.24,283.183,42.66
46.28,281.99,42.374
46.31,281.218,42.065
46.34,280.235,41.595
46.37,278.691,41.343
46.41,277.814,41.355
46.44,276.971,41.263
46.47,275.568,41.148
46.5,274.76,40.77
46.54,273.532,40.22
46.57,271.497,39.911
46.6,270.444,39.396
46.64,268.724,38.96
46.67,266.829,39.155
46.7,266.302,39.052
46.73,264.653,38.88
46.77,263.214,38.96
46.8,262.968,38.536
46.83,261.038,38.101
46.86,259.564,37.964
46.9,258.968,37.574
46.93,257.002,37.357
46.96,255.669,37.231
46.99,255.037,36.875
47.03,253.036,36.681
47.06,251.668,36.452
47.09,250.72,35.753
47.12,248.018,35.329
47.16,246.544,34.962
47.19,244.965,34.264
47.22,241.911,33.954
47.25,240.227,33.691
47.29,238.647,33.233
47.32,235.559,33.072
47.35,234.085,32.809
47.38,232.541,32.35
47.42,229.593,32.545
47.45,228.891,32.328
47.48,227.277,31.801
47.51,224.644,31.824
47.55,223.943,31.514
47.58,221.626,30.712
47.61,218.713,30.437
47.64,218.222,30.231
47.68,215.765,30.014
47.71,213.203,30.025
47.74,212.677,29.532
47.77,210.501,29.395
47.81,208.325,29.372
47.84,207.272,28.49
47.87,204.324,27.894
47.91,201.797,27.677
47.94,200.183,26.909
47.97,196.954,26.703
48.0,194.392,26.726
48.04,193.024,26.245
48.07,190.111,26.038
48.1,187.865,25.729
48.13,186.285,24.985
48.17,183.162,24.71
48.2,180.74,24.217
48.23,178.81,23.541
48.26,175.827,23.53
48.3,173.476,23.175
48.33,171.089,22.235
48.36,167.966,21.834
48.39,165.334,21.445
48.43,162.491,20.643
48.46,159.473,20.162
48.49,156.63,19.898
48.52,153.471,19.28
48.56,151.366,18.821
48.59,148.347,18.581
48.62,145.575,18.34
48.65,143.75,17.71
48.69,140.627,16.966
48.72,137.152,16.794
48.75,135.432,16.244
48.78,132.52,15.751
48.82,129.045,15.431
48.85,126.869,14.571
48.88,123.219,13.896
48.91,119.324,13.575
48.95,116.306,12.865
48.98,112.375,12.326
49.01,108.655,12.246
49.05,105.742,11.971
49.08,102.583,11.478
49.11,99.846,10.871
49.14,96.231,10.23
49.18,92.932,9.497
49.21,89.633,8.5
49.24,85.071,7.847
49.27,81.386,7.354
49.31,77.771,6.759
49.34,73.77,6.392
49.37,70.506,5.98
49.4,67.418,5.441
49.44,64.014,5.075
49.47,60.96,4.8
49.5,58.118,4.353
49.53,54.924,3.826
49.57,51.801,3.311
49.6,48.537,2.83
49.63,45.062,2.28
49.66,41.237,1.558
49.7,37.166,0.882
49.73,33.551,0.206
49.76,29.691,-0.344
49.79,26.006,-0.722
49.83,23.128,-1.294
49.86,19.969,-1.821
49.89,16.319,-2.234
49.92,12.143,-2.543
49.96,7.405,-2.669
49.99,2.632,-2.6
50.02,-1.825,-2.394
50.05,-5.861,-2.131
50.09,-9.406,-1.913
50.12,-12.74,-1.81
50.15,-15.477,-2.028
50.18,-18.25,-2.429
50.22,-21.373,-2.635
50.25,-23.865,-2.99
50.28,-26.672,-3.574
50.32,-29.901,-4.147
50.35,-32.603,-4.88
50.38,-35.973,-5.476
50.41,-39.833,-5.968
50.45,-45.062,-6.232
50.48,-49.554,-6.346
50.51,-52.924,-6.587
50.54,-57.135,-6.61
50.58,-59.662,-6.816
50.61,-61.592,-7.515
50.64,-65.207,-7.813
50.67,-67.067,-8.511
50.71,-69.383,-9.542
50.74,-73.524,-9.921
50.77,-75.946,-10.734
50.8,-79.245,-11.765
50.84,-83.737,-12.177
50.87,-86.896,-12.956
50.9,-90.44,-13.701
50.93,-94.547,-13.941
50.97,-97.951,-14.4
51.0,-100.829,-15.041
51.03,-104.022,-15.522
51.06,-108.023,-15.923
51.1,-110.48,-16.668
51.13,-113.533,-17.538
51.16,-118.727,-17.642
51.19,-120.763,-18.329
51.23,-123.781,-19.016
51.26,-129.221,-18.581
51.29,-130.519,-19.383
51.32,-133.713,-20.093
51.36,-138.977,-19.6
51.39,-140.451,-21.009
51.42,-143.996,-21.433
51.45,-146.698,-20.78
51.49,-146.558,-21.788
51.52,-148.628,-22.556
51.55,-150.699,-23.404
51.59,-152.84,-24.618
51.62,-155.121,-25.477
51.65,-158.034,-26.439
51.68,-162.07,-27.241
51.72,-164.386,-28.032
51.75,-167.966,-28.547
51.78,-171.931,-28.57
51.81,-173.827,-29.154
51.85,-177.371,-29.487
51.88,-180.705,-29.635
51.91,-182.46,-30.426
51.94,-185.899,-30.919
51.98,-188.953,-30.827
52.01,-190.321,-31.297
52.04,-193.48,-31.56
52.07,-195.515,-31.445
52.11,-196.568,-31.812
52.14,-199.797,-32.053
52.17,-201.797,-32.167
52.2,-202.745,-32.671
52.24,-205.798,-32.694
52.27,-207.272,-32.648
52.3,-208.185,-33.129
52.33,-210.712,-33.198
52.37,-212.221,-33.347
52.4,-213.484,-34.08
52.43,-216.222,-34.47
52.46,-217.976,-34.825
52.5,-219.836,-35.455
52.53,-222.679,-35.638
52.56,-224.223,-35.718
52.59,-226.048,-36.051
52.63,-228.54,-36.28
52.66,-229.979,-36.429
52.69,-231.593,-36.555
52.73,-233.91,-36.933
52.76,-235.278,-37.334
52.79,-236.787,-37.379
52.82,-238.507,-37.311
52.86,-240.016,-37.643
52.89,-241.56,-38.136
52.92,-243.35,-38.376
52.95,-244.965,-38.651
52.99,-246.86,-39.212
53.02,-248.72,-39.579
53.05,-250.264,-39.648
53.08,-251.843,-39.693
53.12,-253.493,-39.911
53.15,-254.861,-40.175
53.18,-256.3,-40.415
53.21,-257.915,-40.667
53.25,-259.319,-40.999
53.28,-260.582,-41.229
53.31,-262.161,-41.148
53.34,-263.004,-41.103
53.38,-263.916,-41.263
53.41,-265.109,-41.309
53.44,-266.127,-41.675
53.47,-267.39,-42.294
53.51,-269.145,-42.649
53.54,-270.338,-42.855
53.57,-271.637,-43.05
53.6,-273.006,-42.935
53.64,-274.059,-43.016
53.67,-275.041,-43.325
53.7,-276.445,-43.634
53.73,-277.708,-43.886
53.77,-278.902,-44.195
53.8,-280.165,-44.173
53.83,-281.007,-44.058
53.86,-281.639,-43.989
53.9,-282.166,-43.852
53.93,-282.516,-43.657
53.96,-282.797,-43.863
54.0,-283.534,-44.035
54.03,-283.815,-44.069
54.06,-284.061,-44.161
54.09,-284.727,-44.115
54.13,-284.903,-44.104
54.16,-284.833,-44.092
54.19,-285.289,-43.817
54.22,-285.078,-43.875
54.26,-285.008,-43.863
54.29,-285.57,-43.932
54.32,-285.359,-44.081
54.35,-285.464,-44.001
54.39,-285.324,-43.829
54.42,-284.692,-43.302
54.45,-284.341,-42.935
54.48,-284.026,-43.016
54.52,-283.359,-43.245
54.55,-283.043,-43.004
54.58,-282.376,-42.523
54.61,-281.288,-42.202
54.65,-280.376,-41.778
54.68,-278.972,-41.194
54.71,-277.252,-40.931
54.74,-276.41,-40.908
54.78,-275.252,-40.885
54.81,-273.988,-40.873
54.84,-273.251,-40.576
54.87,-271.953,-40.22
54.91,-270.549,-39.968
54.94,-269.566,-39.579
54.97,-268.092,-39.327
55.0,-266.759,-39.373
55.04,-266.162,-39.167
55.07,-264.653,-39.018
55.1,-263.565,-39.029
55.13,-263.074,-38.548
55.17,-261.108,-38.136
55.2,-259.705,-37.872
55.23,-258.968,-37.311
55.27,-256.581,-37.15
55.3,-255.247,-37.024
55.33,-254.475,-36.543
55.36,-252.194,-36.486
55.4,-250.79,-36.154
55.43,-249.492,-35.329
55.46,-246.965,-35.123
55.49,-245.456,-34.974
55.53,-244.122,-34.401
55.56,-241.35,-34.172
55.59,-239.911,-34.012
55.62,-238.577,-33.53
55.66,-235.699,-33.37
55.69,-234.576,-33.107
55.72,-233.067,-32.637
55.75,-230.47,-32.786
55.79,-229.593,-32.465
55.82,-227.768,-31.824
55.85,-225.452,-31.984
55.88,-224.68,-31.778
55.92,-222.433,-31.01
55.95,-219.661,-30.678
55.98,-218.784,-30.243
56.01,-216.257,-29.865
56.05,-213.66,-29.819
56.08,-212.572,-29.315
56.11,-210.185,-29.097
56.14,-207.869,-29.086
56.18,-206.465,-28.352
56.21,-203.693,-27.803
56.24,-201.341,-27.551
56.27,-199.622,-26.966
56.31,-196.498,-26.772
56.34,-194.147,-26.714
56.37,-192.603,-26.336
56.41,-189.97,-26.199
56.44,-187.724,-25.844
56.47,-186.075,-25.156
56.5,-183.372,-24.641
56.54,-180.565,-24.137
56.57,-178.635,-23.53
56.6,-175.687,-23.369
56.63,-173.195,-23.026
56.67,-170.703,-22.35
56.7,-167.86,-21.972
56.73,-165.334,-21.525
56.76,-162.526,-20.952
56.8,-159.859,-20.311
56.83,-156.981,-19.967
56.86,-154.173,-19.898
56.89,-151.541,-18.879
56.93,-148.663,-18.157
56.96,-145.049,-18.02
56.99,-142.943,-17.424
57.02,-140.486,-16.977
57.06,-136.942,-16.794
57.09,-134.871,-16.427
57.12,-132.835,-15.809
57.15,-129.431,-15.396
57.19,-126.659,-14.801
57.22,-123.816,-14.01
57.25,-119.885,-13.529
57.28,-116.376,-13.105
57.32,-113.252,-12.464
57.35,-109.251,-12.166
57.38,-105.812,-11.994
57.41,-103.145,-11.33
57.45,-99.565,-10.699
57.48,-95.845,-10.253
57.51,-92.792,-9.382
57.54,-89.107,-8.489
57.58,-84.86,-8.03
57.61,-81.281,-7.48
57.64,-77.56,-6.656
57.68,-74.367,-6.724
57.71,-72.401,-7.572
57.74,-71.243,-7.549
57.77,-69.769,-6.793
57.81,-67.734,-6.209
57.84,-65.593,-5.453
57.87,-62.119,-4.433
57.9,-58.118,-3.505
57.94,-53.59,-2.543
57.97,-48.431,-1.524
58.0,-42.816,-0.47
58.03,-36.569,0.195
58.07,-31.726,0.974
58.1,-26.532,1.799
58.13,-21.689,2.291
58.16,-17.302,2.761
58.2,-12.038,3.013
58.23,-6.493,3.127
58.26,-0.948,3.024
58.29,3.79,2.429
58.33,7.265,1.615
58.36,9.37,0.974
58.39,10.599,0.607
58.42,11.23,0.47
58.46,12.143,0.71
58.49,13.582,1.249
58.52,15.442,1.925
58.55,18.39,2.6
58.59,22.005,3.608
58.62,26.286,4.536
58.65,30.603,4.926
58.68,33.902,5.396
58.72,37.727,5.968
58.75,42.009,6.701
58.78,47.87,7.068
58.81,52.573,6.919
58.85,56.082,7.034
58.88,60.399,7.16
58.91,62.715,7.423
58.95,64.575,7.962
58.98,67.909,8.248
59.01,69.559,9.027
59.04,71.77,9.898
59.08,75.455,10.138
59.11,77.841,11.009
59.14,81.105,12.154
59.17,85.562,12.578
59.21,88.791,13.208
59.24,92.371,13.976
59.27,96.371,14.434
59.3,99.951,14.72
59.34,102.513,15.133
59.37,105.531,15.797
59.4,109.848,16.427
59.43,112.585,17.195
59.47,115.849,17.848
59.5,120.868,17.939
59.53,123.184,18.741
59.56,126.308,19.199
59.6,131.046,18.661
59.63,132.625,19.555
59.66,136.029,20.322
59.69,140.556,19.887
59.73,141.855,20.757
59.76,144.382,21.422
59.79,147.084,21.468
59.82,147.961,22.43
59.86,149.716,23.22
59.89,152.068,23.896
59.92,154.594,25.111
59.95,157.156,25.993
59.99,159.859,26.783
60.02,163.649,27.39
60.05,166.211,28.146
60.09,169.545,28.662
60.12,172.809,28.582
60.15,172.809,27.241
60.18,171.967,24.526
60.22,170.844,22.968
60.25,169.299,23.541
60.28,168.352,24.068
60.31,168.211,24.71
60.35,168.703,26.119
60.38,171.194,27.757
60.41,174.95,29.75
60.44,179.477,32.11
60.48,185.513,34.08
60.51,191.62,35.432
60.54,197.411,36.348
60.57,203.447,36.589
60.61,208.15,36.177
60.64,211.729,35.673
60.67,215.063,35.008
60.7,216.888,34.55
60.74,218.362,34.47
60.77,220.187,34.309
60.8,221.346,34.435
60.83,222.539,34.917
60.87,223.837,34.974
60.9,225.101,34.859
60.93,226.224,35.226
60.96,227.663,35.707
61.0,229.347,35.993
61.03,230.751,36.44
61.06,232.611,36.956
61.09,234.612,37.276
61.13,236.226,37.505
61.16,238.016,37.746
61.19,240.192,38.032
61.22,241.841,38.525
61.26,244.052,39.075
61.29,246.333,39.43
61.32,248.123,39.865
61.36,250.475,40.209
61.39,252.475,40.232
61.42,253.773,40.278
61.45,255.634,40.346
61.49,257.178,40.484
61.52,258.16,40.679
61.55,259.459,40.759
61.58,260.898,40.736
61.62,261.459,40.919
61.65,262.442,40.839
61.68,263.039,40.679
61.71,263.6,41.022
61.75,264.828,41.355
61.78,265.846,41.836
61.81,267.25,42.512
61.84,269.215,42.786
61.88,270.374,43.061
61.91,271.812,43.165
61.94,273.146,42.97
61.97,274.023,43.073
62.01,275.182,43.336
62.04,276.48,43.611
62.07,277.638,43.989
62.1,278.867,44.264
62.14,280.095,44.104
62.17,280.727,43.932
62.2,281.253,43.921
62.23,281.885,43.646
62.27,281.92,43.439
62.3,282.166,43.703
62.33,282.762,43.84
62.36,282.867,43.955
62.4,283.324,43.978
62.43,283.71,43.817
62.46,283.604,43.817
62.49,283.534,43.691
62.53,283.78,43.451
62.56,283.71,43.772
62.59,284.096,44.035
62.63,284.447,43.875
62.66,284.166,43.966
62.69,284.447,43.943
62.72,284.552,43.543
62.76,283.78,43.325
62.79,283.745,43.245
62.82,283.745,43.325
62.85,283.324,43.565
62.89,283.429,43.462
62.92,283.043,43.153
62.95,282.341,42.832
62.98,281.815,42.305
63.02,280.692,41.767
63.05,279.253,41.549
63.08,278.551,41.481
63.11,277.463,41.309
63.15,275.989,41.206
63.18,275.146,40.839
63.21,273.672,40.369
63.24,272.093,40.003
63.28,270.83,39.567
63.31,269.11,39.338
63.34,267.636,39.43
63.37,266.934,39.315
63.41,265.39,39.258
63.44,264.583,39.258
63.47,263.67,38.846
63.5,261.986,38.399
63.54,260.933,38.067
63.57,259.81,37.757
63.6,257.809,37.517
63.63,256.511,37.162
63.67,255.353,36.784
63.7,253.282,36.795
63.73,252.159,36.486
63.77,250.72,35.913
63.8,248.685,35.856
63.83,247.667,35.695
63.86,246.088,35.169
63.9,243.806,34.836
63.93,242.613,34.447
63.96,240.753,33.828
63.99,237.91,33.381
64.03,236.086,32.809
64.06,233.98,32.362
64.09,231.348,32.442
64.12,229.663,32.156
64.16,227.663,31.801
64.19,225.276,31.732
64.22,223.943,31.377
64.25,221.802,30.85
64.29,219.029,30.392
64.32,217.836,30.162
64.35,215.59,30.059
64.38,213.344,29.945
64.42,211.835,29.395
64.45,209.694,29.097
64.48,207.939,29.177
64.51,206.465,28.834
64.55,204.43,28.249
64.58,202.289,27.952
64.61,200.464,27.711
64.64,198.112,27.39
64.68,195.831,27.104
64.71,193.936,26.76
64.74,191.725,26.359
64.77,189.128,25.844
64.81,186.882,25.191
64.84,184.39,24.572
64.87,181.512,24.125
64.9,179.021,23.724
64.94,176.494,23.335
64.97,173.686,23.037
65.0,171.019,22.499
65.04,168.738,22.063
65.07,165.895,21.64
65.1,162.561,20.735
65.13,159.859,20.127
65.17,157.227,19.91
65.2,154.033,19.738
65.23,151.717,19.268
65.26,149.19,18.741
65.3,145.926,18.34
65.33,143.469,17.745
65.36,141.364,17.0
65.39,137.714,16.782
65.43,134.801,16.359
65.46,133.081,15.408
65.49,129.08,15.064
65.52,125.676,14.846
65.56,123.711,13.884
65.59,119.254,13.38
65.62,115.569,13.254
65.65,113.393,12.475
65.69,108.865,12.292
65.72,105.847,12.395
65.75,103.952,11.559
65.78,99.986,10.974
65.82,96.793,10.516
65.85,94.02,9.462
65.88,89.809,8.557
65.91,85.738,8.007
65.95,82.018,7.458
65.98,78.192,6.908
66.01,74.612,6.449
66.04,70.963,6.071
66.08,67.734,5.522
66.11,64.365,4.88
66.14,60.68,4.468
66.17,57.416,4.021
66.21,54.047,3.563
66.24,50.642,3.173
66.27,47.028,2.761
66.31,43.939,2.142
66.34,40.395,1.627
66.37,36.569,1.375
66.4,34.042,0.813
66.44,30.743,0.195
66.47,27.374,-0.137
66.5,25.093,-0.756
66.53,22.005,-1.375
66.57,18.881,-1.89
66.6,15.021,-2.52
66.63,9.862,-3.07
66.66,4.141,-3.311
66.7,-1.825,-3.162
66.73,-7.019,-2.692
66.76,-11.336,-2.096
66.79,-14.319,-1.615
66.83,-16.249,-1.489
66.86,-18.214,-1.741
66.89,-20.566,-2.096
66.92,-22.847,-2.83
66.96,-25.935,-3.712
66.99,-29.55,-4.365
67.02,-32.568,-5.109
67.05,-36.359,-5.567
67.09,-40.184,-5.98
67.12,-45.483,-6.117
67.15,-49.414,-6.152
67.18,-52.783,-6.323
67.22,-56.503,-6.312
67.25,-58.644,-6.633
67.28,-60.75,-7.343
67.31,-64.119,-7.732
67.35,-65.979,-8.511
67.38,-68.822,-9.531
67.41,-72.893,-10.012
67.45,-75.7,-10.894
67.48,-79.245,-11.799
67.51,-83.597,-12.28
67.54,-87.001,-13.014
67.58,-90.651,-13.666
67.61,-94.582,-14.033
67.64,-98.021,-14.445
67.67,-100.829,-15.018
67.71,-104.022,-15.545
67.74,-107.812,-15.992
67.77,-110.374,-16.771
67.8,-113.884,-17.527
67.84,-118.376,-17.756
67.87,-120.903,-18.398
67.9,-124.237,-18.81
67.93,-128.729,-18.787
67.97,-130.73,-19.394
68.0,-134.064,-19.795
68.03,-138.135,-19.841
68.06,-140.556,-20.609
68.1,-142.908,-21.25
68.13,-145.715,-21.227
68.16,-146.523,-21.995
68.19,-148.312,-22.957
68.23,-150.909,-23.404
68.26,-152.699,-24.423
68.29,-155.296,-25.443
68.32,-158.279,-26.302
68.36,-161.473,-27.138
68.39,-164.386,-27.883
68.42,-167.509,-28.398
68.45,-171.019,-28.696
68.49,-173.827,-29.097
68.52,-176.775,-29.532
68.55,-180.144,-29.968
68.58,-182.916,-30.54
68.62,-185.864,-31.022
68.65,-188.672,-31.239
68.68,-191.093,-31.445
68.72,-193.41,-31.594
68.75,-195.445,-31.697
68.78,-197.656,-31.824
68.81,-199.692,-32.213
68.85,-201.903,-32.522
68.88,-203.868,-32.602
68.91,-205.518,-32.728
68.94,-207.237,-32.809
68.98,-208.711,-32.877
69.01,-209.975,-33.152
69.04,-211.905,-33.553
69.07,-213.8,-34.012
69.11,-215.59,-34.573
69.14,-217.836,-35.088
69.17,-220.117,-35.443
69.2,-222.188,-35.753
69.24,-224.153,-35.982
69.27,-226.469,-36.222
69.3,-228.54,-36.543
69.33,-230.435,-36.761
69.37,-232.471,-37.093
69.4,-234.261,-37.357
69.43,-236.086,-37.334
69.46,-237.279,-37.231
69.5,-238.647,-37.299
69.53,-240.613,-37.792
69.56,-241.701,-38.25
69.59,-243.21,-38.536
69.63,-245.21,-38.617
69.66,-246.474,-38.995
69.69,-248.264,-39.464
69.72,-250.089,-39.556
69.76,-251.071,-39.739
69.79,-253.001,-40.026
69.82,-254.581,-40.266
69.85,-255.739,-40.724
69.89,-257.915,-40.999
69.92,-259.494,-41.171
69.95,-260.512,-41.458
69.99,-262.231,-41.446
70.02,-263.284,-41.229
70.05,-263.811,-41.481
70.08,-265.32,-41.664
70.12,-266.653,-41.778
70.15,-267.566,-42.5
70.18,-269.391,-42.947
70.21,-270.654,-42.947
70.25,-271.777,-43.142
70.28,-273.216,-43.107
70.31,-274.164,-43.176
70.34,-275.287,-43.474
70.38,-276.726,-43.726
70.41,-277.884,-43.978
70.44,-279.007,-44.322
70.47,-280.305,-44.218
70.51,-280.972,-44.115
70.54,-281.569,-44.138
70.57,-282.271,-43.898
70.6,-282.516,-43.726
70.64,-282.762,-44.058
70.67,-283.569,-44.127
70.7,-283.78,-44.207
70.73,-284.096,-44.402
70.77,-284.833,-44.322
70.8,-284.622,-44.081
70.83,-284.903,-44.138
70.86,-285.394,-44.058
70.9,-285.078,-44.161
70.93,-285.394,-44.15
70.96,-285.64,-43.978
70.99,-285.289,-44.104
71.03,-285.359,-43.955
71.06,-285.254,-43.554
71.09,-284.306,-43.336
71.13,-284.096,-43.096
71.16,-283.604,-42.981
71.19,-282.692,-43.13
71.22,-282.552,-42.993
71.26,-281.99,-42.603
71.29,-280.762,-42.397
71.32,-280.13,-42.03
71.35,-278.796,-41.481
71.39,-277.428,-41.286
71.42,-276.831,-41.251
71.45,-275.778,-41.229
71.48,-274.55,-41.16
71.52,-273.813,-40.77
71.55,-272.409,-40.358
71.58,-270.9,-40.003
71.61,-269.601,-39.556
71.65,-268.127,-39.315
71.68,-266.829,-39.419
71.71,-266.057,-39.396
71.74,-264.793,-39.315
71.78,-263.776,-39.212
71.81,-262.863,-38.697
71.84,-261.038,-38.17
71.87,-259.705,-37.723
71.91,-258.195,-37.322
71.94,-256.371,-37.093
71.97,-254.826,-36.841
72.0,-253.458,-36.578
72.04,-251.738,-36.348
72.07,-250.159,-36.005
72.1,-248.544,-35.558
72.13,-246.754,-35.375
72.17,-245.316,-35.226
72.2,-243.701,-34.962
72.23,-242.017,-34.653
72.26,-240.753,-34.607
72.3,-239.244,-34.401
72.33,-237.349,-33.84
72.36,-235.699,-33.301
72.4,-233.98,-33.072
72.43,-231.979,-32.923
72.46,-230.19,-32.454
72.49,-228.224,-31.984
72.53,-226.259,-31.869
72.56,-224.188,-31.423
72.59,-222.223,-30.815
72.62,-219.556,-30.346
72.66,-217.38,-29.899
72.69,-215.309,-29.922
72.72,-213.414,-30.082
72.75,-211.729,-29.888
72.79,-210.08,-29.59
72.82,-208.29,-29.303
72.85,-206.325,-28.696
72.88,-204.184,-28.02
72.92,-201.868,-27.516
72.95,-199.165,-27.207
72.98,-196.919,-26.852
73.01,-194.568,-26.646
73.05,-192.181,-26.554
73.08,-190.216,-26.187
73.11,-187.9,-25.66
73.14,-185.443,-25.214
73.18,-183.232,-24.595
73.21,-180.354,-24.102
73.24,-177.827,-23.85
73.27,-175.792,-23.495
73.31,-173.019,-23.106
73.34,-170.352,-22.625
73.37,-168.071,-21.995
73.4,-165.123,-21.571
73.44,-162.035,-21.067
73.47,-159.648,-20.322
73.5,-157.227,-20.082
73.53,-154.103,-20.07
73.57,-151.436,-18.993
73.6,-148.979,-18.306
73.63,-145.224,-18.054
73.67,-142.487,-17.561
73.7,-140.802,-16.92
73.73,-137.117,-16.782
73.76,-134.415,-16.668
73.8,-133.362,-15.774
73.83,-129.466,-15.454
73.86,-126.273,-15.19
73.89,-124.728,-13.999
73.93,-119.92,-13.403
73.96,-115.919,-13.3
73.99,-113.849,-12.349
74.02,-108.9,-12.143
74.06,-105.531,-12.212
74.09,-103.531,-11.226
74.12,-99.004,-10.654
74.15,-95.705,-10.402
74.19,-92.897,-9.439
74.22,-88.791,-8.603
74.25,-85.176,-8.088
74.28,-81.456,-7.503
74.32,-77.841,-7.045
74.35,-74.683,-6.644
74.38,-71.033,-6.266
74.41,-68.05,-5.625
74.45,-64.68,-4.983
74.48,-60.995,-4.594
74.51,-57.732,-3.998
74.54,-54.047,-3.276
74.58,-50.046,-2.772
74.61,-45.975,-2.36
74.64,-42.606,-1.718
74.67,-38.535,-1.077
74.71,-34.323,-0.722
74.74,-31.516,-0.183
74.77,-28.146,0.298
74.81,-24.812,0.584
74.84,-22.531,1.214
74.87,-19.618,1.799
74.9,-16.179,2.154
74.94,-12.003,2.509
74.97,-7.265,2.784
75.0,-2.281,2.749
75.03,2.351,2.52
75.07,6.668,2.348
75.1,10.599,2.062
75.13,13.722,1.73
75.16,16.003,1.776
75.2,18.355,2.096
75.23,21.162,2.44
75.26,23.514,2.944
75.29,26.602,3.643
75.33,29.901,4.365
75.36,33.165,5.338
75.39,37.166,6.071
75.42,41.447,6.358
75.46,46.922,6.278
75.49,50.888,6.427
75.52,54.398,6.53
75.55,57.802,6.312
75.59,59.662,6.644
75.62,61.522,7.263
75.65,64.049,7.584
75.68,65.909,8.351
75.72,68.611,9.451
75.75,72.261,10.092
75.78,75.385,10.825
75.81,78.999,11.708
75.85,83.246,12.326
75.88,86.755,13.025
75.91,90.335,13.632
75.94,94.406,14.045
75.98,97.845,14.606
76.01,100.934,15.202
76.04,104.443,15.591
76.08,107.988,16.118
76.11,111.006,16.943
76.14,114.445,17.481
76.17,118.411,17.825
76.21,121.535,18.478
76.24,125.114,18.925
76.27,128.94,19.108
76.3,132.098,19.578
76.34,135.397,20.047
76.37,139.047,20.173
76.4,141.714,20.345
76.43,142.557,21.021
76.47,145.294,21.227
76.5,146.382,22.052
76.53,148.172,23.14
76.56,150.909,23.541
76.6,152.805,24.721
76.63,155.963,25.741
76.66,158.771,26.416
76.69,161.298,27.173
76.73,164.386,27.425
76.76,166.597,27.333
76.79,168.773,27.333
76.82,171.054,27.505
76.86,172.949,28.089
76.89,175.581,28.799
76.92,178.354,29.406
76.95,180.986,30.311
76.99,184.496,31.228
77.02,188.075,31.824
77.05,191.023,32.511
77.08,194.849,33.026
77.12,198.253,33.359
77.15,200.99,33.714
77.18,204.465,33.691
77.21,206.851,33.691
77.25,208.852,33.886
77.28,210.992,33.645
77.31,212.431,33.37
77.35,213.344,33.542
77.38,215.344,33.771
77.41,216.537,33.931
77.44,217.31,34.298
77.48,219.521,34.596
77.51,221.03,34.951
77.54,221.802,35.214
77.57,223.907,35.02
77.61,225.627,35.512
77.64,226.785,36.326
77.67,229.137,36.497
77.7,230.681,36.452
77.74,232.19,37.001
77.77,234.682,37.425
77.8,236.156,37.712
77.83,237.665,37.78
77.87,239.665,37.666
77.9,241.104,38.227
77.93,242.999,38.857
77.96,245.105,39.006
78.0,246.404,39.315
78.03,248.579,39.739
78.06,250.475,39.693
78.09,251.317,39.842
78.13,253.212,40.037
78.16,254.756,40.129
78.19,255.528,40.472
78.22,257.494,40.724
78.26,258.862,40.931
78.29,259.915,41.389
78.32,261.74,41.389
78.35,262.688,41.366
78.39,263.635,41.607
78.42,265.144,41.618
78.45,266.127,41.893
78.49,267.355,42.592
78.52,269.321,42.832
78.55,270.479,42.993
78.58,271.567,43.268
78.62,273.076,43.165
78.65,274.129,43.096
78.68,274.901,43.52
78.71,276.48,43.737
78.75,277.498,43.966
78.78,278.621,44.356
78.81,279.919,44.264
78.84,280.551,44.138
78.88,281.113,44.173
78.91,281.955,43.955
78.94,282.13,43.875
78.97,282.552,44.195
79.01,283.429,44.333
79.04,283.675,44.367
79.07,284.131,44.493
79.1,284.517,44.218
79.14,284.552,44.15
79.17,284.727,44.367
79.2,285.464,44.299
79.23,285.851,44.745
79.27,286.201,44.94
79.3,286.623,44.665
79.33,286.903,44.585
79.36,286.974,44.482
79.4,286.623,44.001
79.43,285.886,43.497
79.46,285.57,43.313
79.49,285.008,43.371
79.53,284.271,43.371
79.56,283.71,43.142
79.59,283.008,42.878
79.62,282.095,42.603
79.66,281.183,42.26
79.69,280.13,41.847
79.72,278.726,41.698
79.76,278.059,41.698
79.79,277.042,41.561
79.82,275.848,41.4
79.85,274.971,40.988
79.89,273.462,40.541
79.92,271.953,40.14
79.95,270.584,39.625
79.98,268.9,39.361
80.02,267.461,39.396
80.05,266.302,39.338
80.08,265.039,39.189
80.11,263.916,39.109
80.15,262.898,38.811
80.18,261.354,38.376
80.21,260.126,38.044
80.24,258.862,37.757
80.28,257.213,37.505
80.31,255.844,37.173
80.34,254.37,36.944
80.37,252.826,36.635
80.41,251.282,36.268
80.44,249.457,35.741
80.47,247.491,35.169
80.5,245.421,34.813
80.54,243.42,34.458
80.57,241.42,34.012
80.6,239.034,33.714
80.63,237.244,33.485
80.67,235.243,33.072
80.7,232.927,32.946
80.73,231.453,32.9
80.76,229.944,32.809
80.8,228.189,32.74
80.83,227.031,32.534
80.86,225.627,32.202
80.89,223.767,32.018
80.93,222.012,31.239
80.96,220.082,30.575
80.99,217.976,30.689
81.03,216.608,30.518
81.06,214.572,30.162
81.09,212.642,30.151
81.12,211.729,29.945
81.16,209.554,29.452
81.19,207.167,28.925
81.22,205.623,28.1
81.25,202.675,27.539
81.29,199.657,27.218
81.32,197.937,26.703
81.35,194.743,26.577
81.38,192.041,26.543
81.42,190.742,25.878
81.45,187.514,25.615
81.48,185.057,25.34
81.51,183.478,24.469
81.55,180.038,24.206
81.58,177.827,24.068
81.61,176.143,23.53
81.64,172.949,23.232
81.68,170.387,22.671
81.71,168.492,21.914
81.74,165.263,21.559
81.77,162.14,20.975
81.81,159.859,20.253
81.84,156.876,19.956
81.87,153.226,19.417
81.9,150.804,18.982
81.94,148.663,18.455
81.97,145.084,18.306
82.0,142.276,17.768
82.03,140.732,16.794
82.07,136.906,16.931
82.1,134.029,16.805
82.13,133.467,15.74
82.17,129.361,15.385
82.2,125.992,15.156
82.23,124.728,13.907
82.26,119.604,13.403
82.3,115.744,13.357
82.33,113.989,12.349
82.36,108.76,12.246
82.39,105.707,12.441
82.43,104.022,11.433
82.46,99.214,10.906
82.49,96.091,10.528
82.52,93.283,9.416
82.56,88.861,8.637
82.59,85.387,8.019
82.62,81.421,7.446
82.65,77.56,6.988
82.69,74.226,6.461
82.72,70.401,6.071
82.75,67.383,5.579
82.78,64.084,4.96
82.82,60.399,4.571
82.85,57.346,4.067
82.88,54.152,3.608
82.91,50.713,3.288
82.95,47.168,2.91
82.98,44.185,2.211
83.01,40.605,1.627
83.04,36.639,1.214
83.08,33.727,0.481
83.11,30.042,-0.183
83.14,26.392,-0.55
83.17,23.689,-1.191
83.21,20.531,-1.787
83.24,16.986,-2.199
83.27,12.775,-2.474
83.3,8.107,-2.669
83.34,3.334,-2.692
83.37,-1.369,-2.532
83.4,-5.58,-2.245
83.44,-9.441,-2.028
83.47,-13.055,-2.005
83.5,-15.863,-2.108
83.53,-18.565,-2.36
83.57,-21.619,-2.577
83.6,-24.146,-3.024
83.63,-27.058,-3.735
83.66,-30.252,-4.433
83.7,-33.165,-5.006
83.73,-36.674,-5.327
83.76,-40.289,-5.762
83.79,-44.922,-6.037
83.83,-48.747,-6.197
83.86,-52.467,-6.369
83.89,-55.977,-6.518
83.92,-58.644,-6.885
83.96,-61.171,-7.412
83.99,-64.084,-7.95
84.02,-66.646,-8.672
84.05,-69.524,-9.462
84.09,-72.963,-10.127
84.12,-76.227,-10.894
84.15,-79.631,-11.742
84.18,-83.632,-12.383
84.22,-87.282,-13.036
84.25,-90.756,-13.724
84.28,-94.617,-14.125
84.31,-97.986,-14.526
84.35,-100.934,-15.11
84.38,-104.198,-15.568
84.41,-107.321,-16.038
84.44,-110.585,-16.691
84.48,-114.059,-17.275
84.51,-117.534,-17.882
84.54,-121.219,-18.306
84.57,-124.483,-18.684
84.61,-127.782,-19.142
84.64,-131.642,-19.326
84.67,-134.204,-19.704
84.71,-137.643,-20.242
84.74,-140.977,-20.735
84.77,-142.171,-21.559
84.8,-145.294,-21.685
84.84,-146.698,-21.926
84.87,-148.453,-23.255
84.9,-151.611,-24.034
84.93,-153.366,-24.893
84.97,-156.384,-25.775
85.0,-159.157,-26.68
85.03,-162.21,-27.642
85.06,-165.93,-28.043
85.1,-168.422,-28.513
85.13,-171.616,-28.971
85.16,-175.02,-28.983
85.19,-177.126,-29.349
85.23,-180.214,-30.025
85.26,-183.443,-30.357
85.29,-185.373,-30.815
85.32,-188.251,-31.205
85.36,-191.164,-31.251
85.39,-192.603,-31.583
85.42,-195.2,-31.789
85.45,-197.34,-31.801
85.49,-198.779,-32.373
85.52,-201.797,-32.648
85.55,-203.728,-32.625
85.58,-204.921,-32.981
85.62,-207.378,-33.038
85.65,-208.781,-32.969
85.68,-209.729,-33.404
85.71,-212.256,-33.691
85.75,-213.835,-34.046
85.78,-215.274,-34.768
85.81,-218.152,-35.134
85.85,-220.012,-35.443
85.88,-221.802,-35.936
85.91,-224.644,-36.005
85.94,-226.189,-36.188
85.98,-228.049,-36.658
86.01,-230.225,-36.497
86.04,-231.383,-36.532
86.07,-233.313,-37.437
86.11,-235.84,-37.597
86.14,-236.507,-37.357
86.17,-237.84,-37.551
86.2,-240.297,-37.826
86.24,-241.315,-38.319
86.27,-242.789,-38.731
86.3,-245.14,-38.88
86.33,-246.509,-39.407
86.37,-248.404,-39.877
86.4,-250.439,-39.877
86.43,-251.668,-40.06
86.46,-253.563,-40.369
86.5,-255.318,-40.438
86.53,-256.265,-40.724
86.56,-258.055,-41.045
86.59,-259.74,-41.217
86.63,-260.687,-41.458
86.66,-262.126,-41.481
86.69,-263.284,-41.286
86.72,-264.056,-41.469
86.76,-265.285,-41.721
86.79,-266.302,-42.065
86.82,-267.601,-42.58
86.85,-269.145,-42.924
86.89,-270.338,-43.142
86.92,-271.707,-43.165
86.95,-273.006,-43.05
86.98,-273.813,-43.268
87.02,-275.041,-43.554
87.05,-276.445,-43.691
87.08,-277.357,-44.104
87.12,-278.656,-44.39
87.15,-279.779,-44.344
87.18,-280.621,-44.253
87.21,-281.253,-44.218
87.25,-281.85,-44.092
87.28,-282.271,-43.966
87.31,-282.622,-44.23
87.34,-283.324,-44.344
87.38,-283.569,-44.356
87.41,-283.92,-44.436
87.44,-284.482,-44.367
87.47,-284.552,-44.436
87.51,-284.868,-44.367
87.54,-285.149,-44.253
87.57,-285.008,-44.299
87.6,-285.324,-44.39
87.64,-285.745,-44.413
87.67,-285.394,-44.31
87.7,-285.359,-43.989
87.73,-285.219,-43.577
87.77,-284.236,-43.417
87.8,-283.815,-43.21
87.83,-283.359,-43.142
87.86,-282.657,-43.348
87.9,-282.446,-43.325
87.93,-281.99,-42.993
87.96,-281.183,-42.718
87.99,-280.376,-42.363
88.03,-279.218,-41.847
88.06,-278.094,-41.561
88.09,-277.147,-41.595
88.12,-276.234,-41.572
88.16,-275.111,-41.355
88.19,-273.988,-41.045
88.22,-272.9,-40.587
88.25,-271.391,-40.129
88.29,-269.812,-39.716
88.32,-268.443,-39.487
88.35,-267.11,-39.556
88.39,-266.022,-39.579
88.42,-264.969,-39.464
88.45,-263.846,-39.27
88.48,-262.653,-38.88
88.52,-261.389,-38.284
88.55,-259.74,-37.849
88.58,-258.231,-37.574
88.61,-256.651,-37.265
88.65,-254.967,-37.024
88.68,-253.423,-36.852
88.71,-252.194,-36.52
88.74,-250.194,-36.096
88.78,-248.474,-35.764
88.81,-247.035,-35.409
88.84,-245.105,-35.169
88.87,-243.35,-35.02
88.91,-241.911,-34.55
88.94,-239.771,-34.172
88.97,-238.051,-34.046
89.0,-236.717,-33.633
89.04,-234.261,-33.301
89.07,-232.822,-33.107
89.1,-231.313,-32.855
89.13,-228.891,-32.728
89.17,-227.768,-32.305
89.2,-226.189,-31.927
89.23,-223.627,-31.72
89.26,-222.188,-31.308
89.3,-220.047,-30.598
89.33,-217.274,-30.288
89.36,-216.046,-30.185
89.39,-213.976,-29.979
89.43,-211.378,-29.899
89.46,-210.396,-29.441
89.49,-208.255,-29.005
89.53,-205.412,-28.673
89.56,-204.114,-27.894
89.59,-201.341,-27.459
89.62,-198.358,-27.436
89.66,-196.919,-26.932
89.69,-194.077,-26.829
89.72,-191.725,-26.898
89.75,-190.567,-26.21
89.79,-187.584,-25.798
89.82,-185.197,-25.5
89.85,-183.688,-24.675
89.88,-180.389,-24.366
89.92,-178.073,-24.194
89.95,-176.669,-23.564
89.98,-173.195,-23.312
90.01,-170.668,-22.739
90.05,-168.562,-21.777
90.08,-165.018,-21.502
90.11,-161.929,-20.918
90.14,-159.508,-20.047
90.18,-156.7,-19.978
90.21,-153.401,-19.956
90.24,-150.839,-18.833
90.27,-148.418,-18.295
90.31,-144.627,-18.249
90.34,-142.311,-17.813
90.37,-140.907,-17.195
90.4,-137.082,-17.092
90.44,-134.625,-16.897
90.47,-133.678,-15.946
90.5,-129.712,-15.648
90.53,-126.659,-15.305
90.57,-125.29,-14.033
90.6,-120.131,-13.46
90.63,-116.306,-13.254
90.66,-113.919,-12.223
90.7,-108.62,-12.086
90.73,-105.531,-12.154
90.76,-103.285,-11.215
90.8,-98.372,-10.803
90.83,-95.564,-10.413
90.86,-92.441,-9.371
90.89,-88.019,-8.718
90.93,-84.895,-8.133
90.96,-80.894,-7.561
90.99,-77.245,-7.045
91.02,-74.016,-6.404
91.06,-70.261,-6.026
91.09,-67.172,-5.533
91.12,-63.908,-4.949
91.15,-60.118,-4.479
91.19,-56.784,-4.009
91.22,-53.345,-3.379
91.25,-49.484,-2.807
91.28,-45.659,-2.314
91.32,-42.255,-1.764
91.35,-38.289,-1.191
91.38,-34.464,-0.779
91.41,-31.516,-0.229
91.45,-28.217,0.172
91.48,-25.163,0.538
91.51,-22.742,1.146
91.54,-19.794,1.718
91.58,-16.53,2.039
91.61,-12.74,2.303
91.64,-8.423,2.566
91.67,-3.65,2.681
91.71,0.948,2.589
91.74,5.44,2.429
91.77,9.406,2.131
91.8,12.985,1.867
91.84,15.617,1.947
91.87,18.355,2.451
91.9,21.198,2.589
91.93,23.795,2.715
91.97,26.427,3.414
92.0,29.375,4.227
92.03,32.288,4.857
92.07,35.727,5.35
92.1,39.587,5.957
92.13,44.325,6.346
92.16,48.782,6.484
92.2,53.064,6.564
92.23,56.609,6.724
92.26,59.592,6.988
92.29,62.083,7.366
92.33,64.54,7.87
92.36,67.102,8.489
92.39,69.629,9.325
92.42,72.612,10.138
92.46,76.086,10.757
92.49,79.385,11.673
92.52,83.176,12.509
92.55,87.177,13.025
92.59,90.651,13.655
92.62,94.476,14.216
92.65,97.951,14.732
92.68,101.39,15.293
92.72,104.759,15.728
92.75,107.707,16.359
92.78,111.533,16.92
92.81,114.902,17.401
92.85,117.92,18.077
92.88,122.307,18.295
92.91,125.009,18.661
92.94,127.817,19.222
92.98,132.133,19.085
93.01,134.134,19.635
93.04,137.047,20.139
93.07,140.802,20.104
93.11,141.679,21.41
93.14,145.084,21.766
93.17,146.136,22.075
93.21,147.926,23.381
93.24,150.909,23.896
93.27,152.419,24.79
93.3,155.682,25.638
93.34,158.069,26.485
93.37,160.947,27.436
93.4,164.667,27.734
93.43,166.808,28.123
93.47,170.001,28.501
93.5,173.441,28.582
93.53,175.195,29.338
93.56,178.81,30.071
93.6,182.249,30.38
93.63,184.32,31.228
93.66,188.216,31.858
93.69,191.444,31.869
93.73,193.199,32.305
93.76,196.568,32.614
93.79,199.306,32.614
93.82,200.885,33.003
93.86,204.008,33.026
93.89,205.728,32.912
93.92,206.746,33.175
93.95,208.957,32.843
93.99,209.799,32.602
94.02,210.396,33.129
94.05,212.677,33.473
94.08,213.8,33.771
94.12,214.888,34.55
94.15,218.011,34.928
94.18,219.591,35.386
94.21,220.995,35.73
94.25,223.732,35.535
94.28,225.557,36.2
94.31,227.452,36.956
94.34,229.909,36.956
94.38,231.383,37.047
94.41,233.348,37.299
94.44,235.559,37.368
94.48,236.612,37.609
94.51,238.261,37.849
94.54,240.332,37.918
94.57,241.42,38.399
94.61,243.35,38.926
94.64,245.526,39.052
94.67,246.684,39.43
94.7,248.579,39.819
94.74,250.334,39.716
94.77,251.317,39.865
94.8,253.177,40.106
94.83,254.616,40.255
94.87,255.563,40.656
94.9,257.529,40.931
94.93,258.897,41.229
94.96,260.161,41.664
95.0,261.951,41.629
95.03,262.933,41.584
95.06,263.916,41.755
95.09,265.32,41.813
95.13,266.408,42.156
95.16,267.741,42.752
95.19,269.356,43.073
95.22,270.724,43.245
95.26,271.953,43.233
95.29,273.041,43.233
95.32,274.059,43.302
95.35,275.111,43.497
95.39,276.27,43.783
95.42,277.322,44.195
95.45,278.656,44.344
95.48,279.568,44.299
95.52,280.376,44.195
95.55,280.902,44.081
95.58,281.218,43.909
95.62,281.569,43.863
95.65,281.99,44.092
95.68,282.516,44.47
95.71,283.113,44.459
95.75,283.464,44.551
95.78,283.955,44.344
95.81,284.236,44.23
95.84,284.412,44.413
95.88,284.657,44.379
95.91,285.008,44.516
95.94,285.429,44.7
95.97,285.886,44.768
96.01,286.026,44.677
96.04,286.131,44.448
96.07,286.026,44.092
96.1,285.464,43.737
96.14,285.008,43.439
96.17,284.482,43.531
96.2,284.166,43.565
96.23,283.394,43.394
96.27,282.903,43.038
96.3,281.99,42.729
96.33,281.042,42.42
96.36,280.06,41.927
96.4,278.691,41.675
96.43,277.673,41.744
96.46,276.796,41.698
96.49,275.603,41.458
96.53,274.445,41.103
96.56,273.392,40.61
96.59,271.532,40.209
96.62,270.023,39.819
96.66,268.829,39.464
96.69,267.25,39.487
96.72,265.881,39.602
96.75,265.109,39.361
96.79,263.741,39.224
96.82,262.793,38.983
96.85,261.565,38.433
96.89,259.775,38.158
96.92,258.687,37.918
96.95,257.423,37.54
96.98,255.634,37.288
97.02,254.23,37.162
97.05,253.107,36.704
97.08,251.001,36.406
97.11,249.422,36.062
97.15,248.123,35.501
97.18,245.667,35.26
97.21,243.982,34.882
97.24,242.368,34.275
97.28,239.665,34.057
97.31,237.981,33.782
97.34,236.121,33.107
97.37,233.173,32.981
97.41,231.979,32.946
97.44,230.4,32.683
97.47,227.873,32.74
97.5,227.277,32.568
97.54,225.662,32.247
97.57,223.346,32.247
97.6,222.574,31.537
97.63,220.679,30.964
97.67,217.766,30.781
97.7,216.853,30.14
97.73,214.642,29.933
97.76,212.08,30.208
97.8,211.238,29.601
97.83,208.676,29.109
97.86,206.184,28.914
97.89,204.956,28.078
97.93,201.868,27.516
97.96,198.955,27.379
97.99,197.446,26.829
98.02,194.147,26.76
98.06,191.795,26.783
98.09,190.672,26.096
98.12,187.338,25.878
98.16,185.268,25.592
98.19,183.794,24.755
98.22,180.354,24.561
98.25,178.424,24.297
98.29,176.845,23.644
98.32,173.37,23.495
98.35,171.3,22.797
98.38,168.913,21.937
98.42,165.228,21.72
98.45,162.456,20.964
98.48,159.999,20.23
98.51,156.56,19.99
98.55,152.98,19.383
98.58,150.839,18.902
98.61,148.347,18.535
98.64,144.943,18.386
98.68,142.276,17.813
98.71,140.381,17.034
98.74,136.871,17.046
98.77,134.239,16.748
98.81,132.765,15.9
98.84,128.975,15.511
98.87,126.097,15.064
98.9,123.991,14.056
98.94,119.429,13.666
98.97,116.341,13.311
99.0,113.498,12.487
99.03,109.076,12.372
99.07,106.409,12.246
99.1,103.426,11.49
99.13,99.46,10.986
99.16,96.652,10.299
99.2,92.722,9.428
99.23,88.721,8.752
99.26,85.141,7.996
99.3,80.789,7.606
99.33,77.49,7.206
99.36,74.261,6.621
99.39,70.576,6.22
99.43,67.699,5.705
99.46,64.47,5.086
99.49,60.925,4.628
99.52,57.732,4.135
99.56,54.362,3.712
99.59,50.923,3.356
99.62,47.765,2.875
99.65,44.36,2.291
99.69,40.851,1.799
99.72,37.376,1.26
99.75,33.972,0.676
99.78,30.673,0.092
99.82,27.374,-0.458
99.85,24.216,-1.042
99.88,21.162,-1.673
99.91,17.513,-2.291
99.95,13.161,-2.681
99.98,8.107,-2.875
100.01,2.808,-2.933
100.04,-2.246,-2.761
100.08,-6.844,-2.314
100.11,-10.529,-1.879
100.14,-13.722,-1.73
100.17,-16.109,-1.902
100.21,-18.6,-2.188
100.24,-21.233,-2.451
100.27,-24.075,-2.784
100.3,-26.497,-3.517
100.34,-29.48,-4.387
100.37,-32.639,-4.892
100.4,-36.043,-5.292
100.43,-39.833,-5.785
100.47,-43.939,-6.278
100.5,-48.677,-6.392
100.53,-52.783,-6.415
100.57,-55.907,-6.782
100.6,-59.486,-7.011
100.63,-61.978,-7.343
100.66,-64.119,-8.076
100.7,-67.453,-8.603
100.73,-69.769,-9.371
100.76,-72.647,-10.253
100.79,-76.508,-10.78
100.83,-79.561,-11.685
100.86,-83.211,-12.555
100.89,-87.387,-13.048
100.92,-90.932,-13.701
100.96,-94.406,-14.251
100.99,-97.705,-14.549
101.02,-101.074,-14.938
101.05,-104.022,-15.545
101.09,-106.935,-16.301
101.12,-111.217,-16.668
101.15,-113.884,-17.321
101.18,-117.113,-18.157
101.22,-121.991,-18.111
101.25,-124.132,-18.684
101.28,-127.325,-19.348
101.31,-132.169,-19.051
101.35,-133.678,-19.875
101.38,-137.608,-20.494
101.41,-141.609,-20.597
101.44,-143.013,-21.479
101.48,-145.505,-21.456
101.51,-145.75,-21.651
101.54,-147.716,-23.014
101.57,-150.313,-24.057
101.61,-152.313,-25.076
101.64,-155.788,-25.855
101.67,-158.315,-26.898
101.7,-161.824,-27.929
101.74,-165.895,-28.158
101.77,-168.036,-28.685
101.8,-171.861,-29.109
101.84,-174.985,-29.063
101.87,-176.81,-29.578
101.9,-180.46,-30.082
101.93,-183.302,-30.357
101.97,-184.987,-30.987
102.0,-188.496,-31.239
102.03,-191.023,-31.228
102.06,-192.216,-31.755
102.1,-195.375,-31.824
102.13,-197.165,-31.789
102.16,-198.534,-32.522
102.19,-202.008,-32.694
102.23,-203.307,-32.671
102.26,-204.816,-33.084
102.29,-207.413,-33.003
102.32,-208.185,-33.072
102.36,-209.799,-33.462
102.39,-212.256,-33.691
102.42,-213.414,-34.218
102.45,-215.45,-34.905
102.49,-218.292,-35.169
102.52,-219.731,-35.65
102.55,-222.118,-36.062
102.58,-224.574,-36.039
102.62,-225.978,-36.394
102.65,-228.294,-36.795
102.68,-230.365,-36.715
102.71,-231.734,-37.036
102.75,-233.664,-37.322
102.78,-235.559,-37.402
102.81,-236.612,-37.528
102.84,-238.437,-37.769
102.88,-240.192,-38.09
102.91,-241.28,-38.502
102.94,-243.35,-38.708
102.98,-245.0,-38.983
103.01,-246.544,-39.613
103.04,-248.579,-39.923
103.07,-250.194,-39.968
103.11,-251.492,-40.175
103.14,-253.352,-40.392
103.17,-254.967,-40.495
103.2,-256.16,-40.816
103.24,-257.774,-41.114
103.27,-259.354,-41.297
103.3,-260.512,-41.469
103.33,-261.88,-41.503
103.37,-262.828,-41.458
103.4,-263.741,-41.584
103.43,-264.899,-41.744
103.46,-265.811,-42.202
103.5,-267.39,-42.672
103.53,-268.97,-42.981
103.56,-270.233,-43.256
103.59,-271.602,-43.348
103.63,-272.795,-43.302
103.66,-273.813,-43.439
103.69,-275.076,-43.646
103.72,-276.234,-43.978
103.76,-277.603,-44.31
103.79,-278.902,-44.436
103.82,-279.849,-44.516
103.85,-280.832,-44.425
103.89,-281.429,-44.241
103.92,-281.815,-44.173
103.95,-282.341,-44.047
103.98,-282.622,-44.173
104.02,-283.043,-44.47
104.05,-283.499,-44.459
104.08,-283.85,-44.436
104.11,-284.166,-44.539
104.15,-284.552,-44.528
104.18,-284.552,-44.31
104.21,-284.727,-44.299
104.25,-284.973,-44.241
104.28,-285.008,-44.493
104.31,-285.429,-44.654
104.34,-285.464,-44.413
104.38,-285.149,-44.195
104.41,-285.043,-43.966
104.44,-284.517,-43.623
104.47,-283.78,-43.382
104.51,-283.569,-43.382
104.54,-283.289,-43.474
104.57,-282.516,-43.439
104.6,-281.955,-43.142
104.64,-281.393,-42.672
104.67,-280.06,-42.351
104.7,-279.042,-41.962
104.73,-277.989,-41.584
104.77,-276.691,-41.698
104.8,-276.199,-41.721
104.83,-275.041,-41.458
104.86,-273.637,-41.217
104.9,-272.9,-40.713
104.93,-271.286,-40.232
104.96,-269.672,-39.888
104.99,-268.584,-39.625
105.03,-267.215,-39.613
105.06,-265.846,-39.728
105.09,-265.144,-39.522
105.12,-263.741,-39.327
105.16,-262.372,-39.041
105.19,-261.53,-38.376
105.22,-259.564,-37.975
105.25,-258.02,-37.826
105.29,-257.002,-37.368
105.32,-254.897,-37.185
105.35,-253.668,-37.07
105.38,-252.44,-36.646
105.42,-250.194,-36.268
105.45,-248.825,-35.879
105.48,-247.351,-35.443
105.52,-244.965,-35.237
105.55,-243.526,-34.974
105.58,-241.982,-34.481
105.61,-239.56,-34.332
105.65,-238.367,-34.126
105.68,-236.647,-33.599
105.71,-233.945,-33.462
105.74,-233.173,-33.187
105.78,-231.383,-32.958
105.81,-229.066,-32.912
105.84,-228.049,-32.431
105.87,-226.013,-32.041
105.91,-223.767,-31.938
105.94,-222.714,-31.285
105.97,-220.047,-30.735
106.0,-217.59,-30.563
106.04,-216.362,-30.025
106.07,-213.203,-29.532
106.1,-210.852,-29.383
106.13,-209.764,-29.212
106.17,-207.062,-29.097
106.2,-204.886,-28.719
106.23,-203.728,-28.02
106.26,-200.604,-28.009
106.3,-198.604,-27.848
106.33,-197.305,-27.287
106.36,-194.392,-27.379
106.39,-192.708,-27.195
106.43,-191.164,-26.474
106.46,-188.075,-26.13
106.49,-186.18,-25.534
106.52,-184.18,-24.687
106.56,-180.705,-24.423
106.59,-178.6,-24.045
106.62,-176.459,-23.541
106.66,-173.055,-23.358
106.69,-170.703,-22.625
106.72,-168.071,-21.857
106.75,-164.877,-21.571
106.79,-162.07,-20.952
106.82,-159.087,-20.265
106.85,-156.384,-20.219
106.88,-153.647,-20.116
106.92,-150.874,-19.119
106.95,-148.383,-18.581
106.98,-145.154,-18.306
107.01,-142.557,-17.882
107.05,-140.591,-17.481
107.08,-137.749,-17.183
107.11,-135.081,-16.931
107.14,-133.186,-16.221
107.18,-130.133,-15.671
107.21,-127.045,-15.144
107.24,-124.307,-14.251
107.27,-120.341,-13.529
107.31,-116.692,-13.014
107.34,-113.112,-12.498
107.37,-109.392,-12.235
107.4,-105.988,-11.994
107.44,-102.724,-11.513
107.47,-99.425,-10.963
107.5,-96.126,-10.23
107.53,-91.985,-9.485
107.57,-88.475,-8.649
107.6,-84.755,-7.893
107.63,-80.157,-7.561
107.66,-77.034,-7.045
107.7,-73.454,-6.461
107.73,-69.839,-6.106
107.76,-66.681,-5.579
107.79,-63.382,-4.949
107.83,-59.908,-4.468
107.86,-56.784,-4.067
107.89,-53.345,-3.574
107.93,-49.94,-3.082
107.96,-46.571,-2.589
107.99,-42.921,-2.154
108.02,-39.482,-1.512
108.06,-35.902,-0.882
108.09,-32.288,-0.458
108.12,-29.41,0.069
108.15,-26.181,0.642
108.19,-23.022,1.088
108.22,-20.32,1.627
108.25,-17.056,2.039
108.28,-13.301,2.314
108.32,-8.879,2.612
108.35,-4.001,2.795
108.38,0.912,2.738
108.41,5.65,2.566
108.45,9.897,2.257
108.48,13.547,1.913
108.51,16.249,2.039
108.54,19.022,2.463
108.58,21.97,2.772
108.61,24.847,2.91
108.64,26.918,3.391
108.67,29.796,4.204
108.71,32.99,4.926
108.74,36.464,5.487
108.77,40.219,5.705
108.8,43.939,6.071
108.84,48.712,6.243
108.87,52.397,6.312
108.9,55.275,6.656
108.93,58.995,6.873
108.97,61.311,7.332
109.0,63.487,8.122
109.03,67.172,8.511
109.06,69.418,9.371
109.1,72.366,10.344
109.13,76.472,10.745
109.16,79.385,11.662
109.2,83.035,12.59
109.23,87.282,12.991
109.26,90.721,13.655
109.29,94.231,14.319
109.33,97.951,14.732
109.36,101.706,15.167
109.39,104.408,15.706
109.42,107.286,16.404
109.46,111.778,16.737
109.49,114.165,17.424
109.52,117.429,18.168
109.55,122.377,18.088
109.59,124.237,18.776
109.62,127.431,19.211
109.65,132.379,19.016
109.68,133.572,19.978
109.72,137.503,20.368
109.75,141.399,20.253
109.78,142.487,21.479
109.81,144.522,21.8
109.85,145.961,22.098
109.88,147.856,23.381
109.91,150.067,24.206
109.94,152.419,24.927
109.98,155.647,25.832
110.01,157.964,26.898
110.04,161.473,27.7
110.07,165.369,27.952
110.11,167.439,28.616
110.14,171.194,28.948
110.17,174.388,28.971
110.2,176.494,29.716
110.24,180.179,30.311
110.27,183.197,30.529
110.3,185.478,31.308
110.34,189.339,31.915
110.37,192.181,32.202
110.4,194.357,32.74
110.43,198.077,32.969
110.47,200.534,33.107
110.5,202.605,33.416
110.53,205.518,33.29
110.56,207.202,33.255
110.6,208.641,33.656
110.63,211.343,33.851
110.66,212.923,34.229
110.69,214.783,34.939
110.73,217.625,35.283
110.76,219.521,35.627
110.79,221.696,36.108
110.82,224.504,36.383
110.86,226.469,36.749
110.89,228.329,36.738
110.92,230.119,36.406
110.95,231.348,36.452
110.99,232.962,36.875
111.02,234.436,37.036
111.05,235.384,37.127
111.08,236.823,37.265
111.12,238.051,37.425
111.15,238.928,37.517
111.18,240.157,37.689
111.21,241.701,38.09
111.25,243.28,38.628
111.28,244.649,39.075
111.31,246.509,39.373
111.34,248.264,39.728
111.38,249.913,40.152
111.41,251.598,40.14
111.44,252.931,40.266
111.47,254.686,40.621
111.51,256.406,41.045
111.54,258.125,41.549
111.57,259.88,41.87
111.61,261.705,42.088
111.64,263.109,42.088
111.67,264.127,41.836
111.7,265.215,41.698
111.74,266.197,41.95
111.77,267.32,42.443
111.8,268.724,42.786
111.83,269.917,43.027
111.87,271.181,43.21
111.9,272.304,43.21
111.93,273.216,43.142
111.96,274.023,43.256
112.0,275.006,43.52
112.03,276.129,43.795
112.06,277.287,44.195
112.09,278.656,44.551
112.13,279.919,44.642
112.16,280.621,44.654
112.19,281.604,44.436
112.22,282.095,44.184
112.26,282.306,44.264
112.29,282.903,44.253
112.32,283.253,44.436
112.35,283.85,44.711
112.39,284.341,44.642
112.42,284.482,44.482
112.45,284.657,44.413
112.48,284.833,44.322
112.52,284.833,44.241
112.55,285.008,44.425
112.58,285.57,44.642
112.61,285.815,44.871
112.65,286.131,44.894
112.68,286.307,44.619
112.71,286.237,44.448
112.74,285.254,43.703
112.78,280.06,39.235
112.81,271.426,33.152
112.84,264.513,30.861
112.88,258.511,31.95
112.91,251.913,33.278
112.94,248.123,33.874
112.97,246.895,35.558
113.01,247.246,38.766
113.04,250.299,41.206
113.07,253.668,43.004
113.1,258.687,45.146
113.14,264.934,46.418
113.17,269.145,46.807
113.2,273.111,46.475
113.23,276.41,45.249
113.27,277.147,43.772
113.3,276.761,42.466
113.33,276.55,41.137
113.36,274.339,40.266
113.4,272.093,39.659
113.43,270.163,38.857
113.46,267.285,38.548
113.49,265.109,38.25
113.53,263.109,37.62
113.56,260.512,37.574
113.59,259.038,37.826
113.62,257.95,37.597
113.66,255.704,37.54
113.69,254.861,37.597
113.72,254.124,37.219
113.75,251.773,36.852
113.79,250.51,36.417
113.82,249.527,35.879
113.85,247.07,35.799
113.88,245.667,35.512
113.92,244.263,34.848
113.95,241.911,34.802
113.98,240.718,34.733
114.02,239.069,34.206
114.05,236.507,33.84
114.08,235.349,33.542
114.11,233.664,33.175
114.15,230.997,33.038
114.18,229.874,32.522
114.21,227.838,32.064
114.24,225.101,31.904
114.28,223.767,31.377
114.31,221.24,30.804
114.34,218.608,30.632
114.37,217.239,30.334
114.41,214.607,30.117
114.44,212.572,30.048
114.47,211.238,29.613
114.5,208.852,29.349
114.54,206.535,28.834
114.57,204.71,28.009
114.6,202.043,27.654
114.63,199.516,27.574
114.67,197.34,27.207
114.7,194.778,27.069
114.73,192.778,27.058
114.76,191.234,26.703
114.8,188.637,26.245
114.83,186.566,25.695
114.86,184.531,25.156
114.89,181.758,24.881
114.93,179.617,24.332
114.96,177.231,23.85
114.99,174.564,23.576
115.02,172.072,22.991
115.06,169.405,22.35
115.09,166.597,21.857
115.12,163.649,21.193
115.15,160.49,20.62
115.19,157.788,20.208
115.22,154.735,19.749
115.25,151.436,19.257
115.29,148.769,18.604
115.32,145.75,18.077
115.35,142.416,17.607
115.38,139.574,16.897
115.42,136.626,16.255
115.45,133.186,15.889
115.48,130.344,15.476
115.51,127.817,15.03
115.55,124.658,14.766
115.58,121.815,14.423
115.61,119.394,13.781
115.64,115.955,13.334
115.68,112.761,13.105
115.71,110.41,12.658
115.74,106.935,12.246
115.77,103.741,11.845
115.81,101.039,11.078
115.84,97.108,10.344
115.87,93.037,9.703
115.9,89.879,8.821
115.94,85.843,8.111
115.97,81.667,7.836
116.0,78.438,7.286
116.03,74.928,6.656
116.07,71.454,6.266
116.1,68.19,5.774
116.13,64.961,5.132
116.16,61.592,4.662
116.2,58.223,4.319
116.23,54.994,3.964
116.26,51.941,3.517
116.29,48.817,3.036
116.33,45.308,2.577
116.36,42.255,2.016
116.39,38.71,1.294
116.42,34.814,0.836
116.46,31.796,0.206
116.49,28.322,-0.447
116.52,24.672,-0.962
116.56,21.724,-1.684
116.59,17.969,-2.44
116.62,13.336,-2.726
116.65,8.247,-2.875
116.69,2.878,-3.013
