Trigger_Date,2023/06/26
Trigger_Time,T 08:17:56.275 PDT
Samples_Per_Cycle,512
Microseconds_Per_Sample,32.545
Time (ms),Voltage (V),Current (A)
-16.66,-101.46,-2.039
-16.63,-105.251,-1.936
-16.6,-108.655,-1.638
-16.57,-111.778,-1.478
-16.53,-114.832,-1.661
-16.5,-118.201,-1.833
-16.47,-121.745,-1.799
-16.44,-125.325,-1.844
-16.4,-129.08,-1.993
-16.37,-132.695,-1.867
-16.34,-135.959,-1.535
-16.31,-138.907,-1.455
-16.27,-142.03,-1.684
-16.24,-145.364,-1.799
-16.21,-148.804,-1.718
-16.17,-152.208,-1.787
-16.14,-155.612,-1.799
-16.11,-158.771,-1.512
-16.08,-161.543,-1.272
-16.04,-164.175,-1.375
-16.01,-167.088,-1.65
-15.98,-170.493,-1.879
-15.95,-174.142,-1.913
-15.91,-177.722,-1.799
-15.88,-181.056,-1.695
-15.85,-183.934,-1.352
-15.82,-186.356,-1.077
-15.78,-187.128,-0.08
-15.75,-183.899,2.978
-15.72,-177.02,4.559
-15.69,-170.457,2.738
-15.65,-167.053,0.836
-15.62,-167.229,-0.733
-15.59,-171.124,-3.104
-15.56,-178.635,-4.777
-15.52,-188.356,-5.35
-15.49,-198.779,-5.476
-15.46,-208.887,-5.109
-15.43,-217.52,-4.032
-15.39,-223.767,-2.543
-15.36,-227.101,-1.031
-15.33,-228.014,0.126
-15.3,-227.101,0.848
-15.26,-225.346,1.042
-15.23,-223.907,0.584
-15.2,-223.662,-0.206
-15.17,-224.995,-1.077
-15.13,-227.838,-1.821
-15.1,-231.664,-2.188
-15.07,-235.84,-2.165
-15.04,-239.595,-1.81
-15.0,-242.438,-1.272
-14.97,-244.543,-0.848
-14.94,-245.772,-0.447
-14.91,-246.333,-0.137
-14.87,-246.754,-0.16
-14.84,-247.176,-0.321
-14.81,-247.878,-0.401
-14.78,-248.895,-0.607
-14.74,-250.545,-1.077
-14.71,-253.072,-1.546
-14.68,-256.371,-1.81
-14.65,-259.915,-1.867
-14.61,-263.319,-1.707
-14.58,-266.197,-1.352
-14.55,-268.233,-0.79
-14.52,-269.356,-0.389
-14.48,-269.812,-0.069
-14.45,-269.847,0.08
-14.42,-270.093,-0.195
-14.38,-270.9,-0.607
-14.35,-272.269,-0.813
-14.32,-273.883,-0.871
-14.29,-275.252,-0.653
-14.25,-276.34,-0.401
-14.22,-277.217,-0.458
-14.19,-278.375,-0.722
-14.16,-280.025,-0.939
-14.12,-281.99,-1.1
-14.09,-284.131,-1.157
-14.06,-286.307,-1.088
-14.03,-288.097,-0.79
-13.99,-289.29,-0.504
-13.96,-290.237,-0.424
-13.93,-291.15,-0.47
-13.9,-292.133,-0.55
-13.86,-293.256,-0.607
-13.83,-294.519,-0.63
-13.8,-295.607,-0.55
-13.77,-296.449,-0.344
-13.73,-296.906,-0.137
-13.7,-296.976,0.046
-13.67,-296.66,0.229
-13.64,-296.274,0.241
-13.6,-296.239,-0.126
-13.57,-296.695,-0.367
-13.54,-297.256,-0.286
-13.51,-297.748,-0.206
-13.47,-298.239,-0.241
-13.44,-298.52,-0.115
-13.41,-298.485,0.149
-13.38,-298.239,0.172
-13.34,-298.099,-0.069
-13.31,-298.309,-0.126
-13.28,-298.45,-0.046
-13.25,-298.52,0.011
-13.21,-298.415,0.092
-13.18,-298.099,0.286
-13.15,-297.432,0.378
-13.12,-297.046,0.126
-13.08,-297.116,-0.195
-13.05,-297.467,-0.218
-13.02,-297.678,0.011
-12.99,-297.256,0.378
-12.95,-295.923,0.905
-12.92,-293.782,1.283
-12.89,-291.36,1.34
-12.86,-289.255,0.962
-12.82,-287.991,0.447
-12.79,-287.395,0.149
-12.76,-287.184,0.046
-12.73,-286.903,0.206
-12.69,-286.026,0.63
-12.66,-284.412,1.008
-12.63,-282.446,1.088
-12.59,-280.727,0.836
-12.56,-279.358,0.584
-12.53,-278.375,0.412
-12.5,-277.744,0.252
-12.46,-277.077,0.355
-12.43,-275.954,0.825
-12.4,-274.059,1.157
-12.37,-271.918,1.146
-12.33,-269.777,1.042
-12.3,-267.812,0.997
-12.27,-266.092,0.848
-12.24,-264.688,0.63
-12.2,-263.319,0.687
-12.17,-261.565,1.1
-12.14,-259.319,1.26
-12.11,-256.967,1.168
-12.07,-254.861,1.077
-12.04,-252.861,1.008
-12.01,-251.141,0.813
-11.98,-249.738,0.596
-11.94,-248.509,0.653
-11.91,-246.93,0.939
-11.88,-245.0,1.123
-11.85,-242.719,1.191
-11.81,-240.402,1.249
-11.78,-237.946,1.306
-11.75,-235.489,1.249
-11.72,-233.348,1.031
-11.68,-231.383,0.939
-11.65,-229.242,1.249
-11.62,-227.101,1.157
-11.59,-225.206,0.756
-11.55,-223.557,0.894
-11.52,-221.556,1.157
-11.49,-219.415,1.134
-11.46,-217.485,0.859
-11.42,-215.59,1.031
-11.39,-213.168,1.443
-11.36,-210.255,1.684
-11.33,-207.483,1.283
-11.29,-205.132,1.042
-11.26,-203.166,1.042
-11.23,-201.271,0.962
-11.2,-199.411,0.905
-11.16,-197.305,1.18
-11.13,-194.849,1.443
-11.1,-192.041,1.443
-11.07,-188.847,1.833
-11.03,-185.443,1.833
-11.0,-182.53,1.226
-10.97,-180.354,0.951
-10.94,-178.038,1.409
-10.9,-175.336,1.443
-10.87,-172.493,1.478
-10.84,-169.756,1.443
-10.8,-166.878,1.443
-10.77,-164.0,1.592
-10.74,-161.087,1.489
-10.71,-158.315,1.398
-10.67,-155.507,1.466
-10.64,-152.489,1.638
-10.61,-149.049,1.879
-10.58,-145.224,2.096
-10.54,-141.188,2.131
-10.51,-137.292,1.936
-10.48,-133.748,1.707
-10.45,-130.695,1.501
-10.41,-128.027,1.329
-10.38,-125.43,1.272
-10.35,-122.833,1.409
-10.32,-119.955,1.604
-10.28,-116.692,1.753
-10.25,-113.287,1.799
-10.22,-109.813,1.799
-10.19,-106.198,1.902
-10.15,-102.548,1.959
-10.12,-98.618,2.051
-10.09,-94.441,2.268
-10.06,-89.949,2.417
-10.02,-85.422,2.348
-9.99,-81.105,2.142
-9.96,-77.174,1.925
-9.93,-73.665,1.707
-9.89,-70.682,1.443
-9.86,-67.909,1.352
-9.83,-65.277,1.466
-9.8,-62.224,1.615
-9.76,-59.065,1.707
-9.73,-55.766,1.695
-9.7,-52.432,1.764
-9.67,-48.817,1.902
-9.63,-45.168,1.913
-9.6,-41.553,1.867
-9.57,-37.868,1.902
-9.54,-34.358,1.833
-9.5,-30.884,1.73
-9.47,-27.585,1.707
-9.44,-24.286,1.718
-9.41,-20.811,1.833
-9.37,-17.056,2.039
-9.34,-12.845,2.28
-9.31,-8.318,2.44
-9.28,-3.615,2.429
-9.24,0.912,2.314
-9.21,5.089,2.051
-9.18,8.704,1.776
-9.15,11.932,1.558
-9.11,14.915,1.443
-9.08,17.688,1.489
-9.05,20.671,1.615
-9.01,23.9,1.741
-8.98,27.339,1.799
-8.95,30.849,1.833
-8.92,34.428,1.879
-8.88,38.148,1.959
-8.85,42.079,2.096
-8.82,46.22,2.188
-8.79,50.291,2.154
-8.75,54.433,2.085
-8.72,58.328,1.959
-8.69,62.013,1.913
-8.66,65.768,1.97
-8.62,69.418,1.867
-8.59,72.787,1.661
-8.56,75.911,1.535
-8.53,78.929,1.558
-8.49,81.912,1.558
-8.46,84.966,1.569
-8.43,88.124,1.707
-8.4,91.669,1.936
-8.36,95.494,2.062
-8.33,99.46,2.016
-8.3,103.075,1.81
-8.27,106.444,1.673
-8.23,109.602,1.535
-8.2,112.515,1.489
-8.17,115.358,1.489
-8.14,118.236,1.501
-8.1,121.465,1.764
-8.07,124.974,1.89
-8.04,128.659,1.913
-8.01,132.239,1.833
-7.97,135.608,1.718
-7.94,138.977,1.684
-7.91,142.171,1.673
-7.88,145.505,1.787
-7.84,149.225,2.016
-7.81,153.085,2.016
-7.78,156.7,1.764
-7.75,159.929,1.638
-7.71,162.982,1.569
-7.68,165.895,1.42
-7.65,168.633,1.363
-7.62,171.405,1.478
-7.58,174.213,1.512
-7.55,177.161,1.546
-7.52,180.074,1.501
-7.49,182.776,1.352
-7.45,185.197,1.18
-7.42,187.654,1.26
-7.39,190.251,1.466
-7.36,193.269,1.615
-7.32,196.393,1.661
-7.29,199.551,1.661
-7.26,202.534,1.466
-7.22,205.026,1.18
-7.19,207.062,0.939
-7.16,208.887,0.871
-7.13,210.571,0.882
-7.09,212.291,0.916
-7.06,214.081,0.928
-7.03,215.941,0.997
-7.0,217.836,0.974
-6.96,219.485,0.779
-6.93,220.959,0.745
-6.9,222.644,0.928
-6.87,224.644,1.168
-6.83,227.031,1.34
-6.8,229.733,1.478
-6.77,232.681,1.615
-6.74,235.559,1.432
-6.7,237.805,0.962
-6.67,239.525,0.733
-6.64,240.929,0.733
-6.61,242.403,0.756
-6.57,243.842,0.733
-6.54,245.351,0.859
-6.51,247.176,1.042
-6.48,249.211,1.065
-6.44,250.896,0.768
-6.41,252.405,0.733
-6.38,254.089,1.031
-6.35,256.09,1.02
-6.31,257.95,0.962
-6.28,259.775,0.951
-6.25,261.88,1.168
-6.22,263.986,1.146
-6.18,265.881,0.848
-6.15,267.39,0.699
-6.12,268.864,0.756
-6.09,270.303,0.836
-6.05,272.023,0.905
-6.02,273.848,0.974
-5.99,275.392,0.745
-5.96,276.445,0.332
-5.92,277.112,0.321
-5.89,277.603,0.252
-5.86,278.165,0.344
-5.83,279.358,0.802
-5.79,281.148,1.111
-5.76,283.218,1.1
-5.73,285.324,1.088
-5.7,287.184,0.939
-5.66,288.658,0.584
-5.63,289.571,0.378
-5.6,290.413,0.435
-5.57,291.396,0.561
-5.53,292.519,0.642
-5.5,293.747,0.676
-5.47,294.975,0.619
-5.44,295.853,0.401
-5.4,296.449,0.183
-5.37,296.695,0.092
-5.34,296.87,0.069
-5.3,297.046,0.103
-5.27,297.607,0.47
-5.24,298.485,0.481
-5.21,299.011,0.115
-5.17,299.397,0.241
-5.14,299.924,0.321
-5.11,300.45,0.424
-5.08,300.906,0.321
-5.04,301.328,0.195
-5.01,301.714,0.321
-4.98,302.065,0.367
-4.95,301.959,0.195
-4.91,301.573,-0.241
-4.88,300.731,-0.733
-4.85,299.081,-0.951
-4.82,297.221,-0.997
-4.78,295.712,-0.699
-4.75,294.975,-0.069
-4.72,295.256,0.367
-4.69,295.888,0.355
-4.65,296.133,0.023
-4.62,295.677,-0.424
-4.59,294.344,-0.894
-4.56,292.203,-1.272
-4.52,289.922,-1.237
-4.49,287.921,-0.836
-4.46,286.623,-0.515
-4.43,285.71,-0.389
-4.39,284.903,-0.389
-4.36,284.061,-0.447
-4.33,283.008,-0.63
-4.3,281.674,-0.733
-4.26,280.446,-0.607
-4.23,279.533,-0.367
-4.2,278.796,-0.321
-4.17,278.059,-0.412
-4.13,277.007,-0.619
-4.1,275.497,-0.939
-4.07,273.462,-1.168
-4.04,271.216,-1.18
-4.0,269.005,-1.1
-3.97,267.004,-0.985
-3.94,265.25,-0.825
-3.91,263.705,-0.71
-3.87,262.091,-0.894
-3.84,260.091,-1.157
-3.81,257.845,-1.226
-3.78,255.634,-1.134
-3.74,253.387,-1.077
-3.71,251.492,-0.974
-3.68,250.229,-0.401
-3.65,249.562,-0.172
-3.61,248.685,-0.63
-3.58,247.035,-1.054
-3.55,244.965,-1.146
-3.51,242.543,-1.272
-3.48,239.876,-1.478
-3.45,237.138,-1.386
-3.42,234.787,-1.1
-3.38,232.857,-0.882
-3.35,231.102,-0.848
-3.32,229.453,-0.882
-3.29,227.768,-0.848
-3.25,226.048,-0.882
-3.22,224.294,-0.962
-3.19,222.398,-0.997
-3.16,220.328,-1.042
-3.12,218.222,-1.146
-3.09,215.765,-1.317
-3.06,213.063,-1.512
-3.03,210.08,-1.535
-2.99,207.272,-1.42
-2.96,204.745,-1.226
-2.93,202.57,-1.008
-2.9,200.815,-0.756
-2.86,199.516,-0.619
-2.83,198.042,-0.79
-2.8,196.112,-1.168
-2.77,193.761,-1.249
-2.73,190.742,-1.787
-2.7,187.268,-1.925
-2.67,184.109,-1.409
-2.64,181.548,-1.111
-2.6,178.951,-1.501
-2.57,176.108,-1.535
-2.54,173.405,-1.283
-2.51,170.844,-1.226
-2.47,167.79,-1.787
-2.44,164.211,-2.039
-2.41,160.736,-1.65
-2.38,157.648,-1.478
-2.34,155.051,-1.283
-2.31,152.734,-1.042
-2.28,150.523,-1.191
-2.25,147.856,-1.455
-2.21,144.803,-1.661
-2.18,141.399,-1.867
-2.15,137.679,-2.005
-2.12,133.818,-1.97
-2.08,130.063,-1.913
-2.05,126.448,-1.844
-2.02,122.903,-1.81
-1.99,119.464,-1.741
-1.95,116.13,-1.684
-1.92,113.042,-1.546
-1.89,110.129,-1.409
-1.86,107.321,-1.466
-1.82,104.163,-1.718
-1.79,100.513,-2.039
-1.76,96.196,-2.325
-1.72,91.493,-2.52
-1.69,86.615,-2.589
-1.66,81.842,-2.36
-1.63,77.982,-1.753
-1.59,75.174,-1.191
-1.56,72.998,-0.962
-1.53,70.927,-1.134
-1.5,68.471,-1.409
-1.46,65.312,-1.707
-1.43,61.417,-2.257
-1.4,56.609,-2.704
-1.37,51.45,-2.681
-1.33,46.571,-2.417
-1.3,42.009,-2.314
-1.27,37.727,-2.142
-1.24,33.797,-1.902
-1.2,30.287,-1.776
-1.17,26.848,-1.753
-1.14,23.549,-1.661
-1.11,20.461,-1.512
-1.07,17.653,-1.363
-1.04,15.126,-1.26
-1.01,12.704,-1.26
-0.98,10.072,-1.398
-0.94,7.159,-1.558
-0.91,3.931,-1.776
-0.88,0.211,-2.016
-0.85,-3.931,-2.245
-0.81,-8.282,-2.245
-0.78,-12.459,-2.108
-0.75,-16.53,-2.051
-0.72,-20.566,-2.142
-0.68,-24.707,-2.165
-0.65,-28.778,-2.051
-0.62,-32.674,-1.97
-0.59,-36.499,-1.982
-0.55,-40.254,-1.902
-0.52,-43.764,-1.764
-0.49,-47.133,-1.73
-0.46,-50.537,-1.73
-0.42,-53.731,-1.638
-0.39,-56.784,-1.512
-0.36,-59.767,-1.535
-0.33,-62.891,-1.673
-0.29,-66.19,-1.707
-0.26,-69.524,-1.73
-0.23,-73.068,-1.867
-0.2,-76.718,-1.925
-0.16,-80.333,-1.821
-0.13,-83.842,-1.81
-0.1,-87.492,-1.936
-0.07,-91.318,-1.982
-0.03,-95.143,-1.947
0.0,-98.898,-1.936
0.03,-102.583,-1.89
0.07,-106.058,-1.741
0.1,-109.216,-1.524
0.13,-112.129,-1.443
0.16,-114.972,-1.466
0.2,-117.955,-1.604
0.23,-121.219,-1.753
0.26,-124.869,-1.982
0.29,-128.764,-2.062
0.33,-132.765,-2.096
0.36,-136.52,-1.799
0.39,-140.065,-1.741
0.42,-143.645,-2.005
0.46,-147.119,-1.65
0.49,-150.278,-1.535
0.52,-153.506,-1.787
0.55,-156.595,-1.524
0.59,-159.543,-1.317
0.62,-162.315,-1.546
0.65,-165.369,-1.638
0.68,-168.492,-1.558
0.72,-171.581,-1.615
0.75,-174.669,-1.581
0.78,-177.406,-1.317
0.81,-179.512,-0.928
0.85,-180.951,-0.504
0.88,-181.723,-0.286
0.91,-182.355,-0.344
0.94,-183.653,-0.825
0.98,-186.075,-1.581
1.01,-189.865,-2.314
1.04,-194.638,-2.681
1.07,-199.727,-2.635
1.11,-204.43,-2.325
1.14,-208.571,-1.902
1.17,-211.729,-1.466
1.2,-214.362,-1.191
1.24,-216.608,-1.088
1.27,-218.573,-0.951
1.3,-220.293,-0.79
1.33,-221.626,-0.664
1.37,-222.82,-0.493
1.4,-223.592,-0.355
1.43,-224.504,-0.493
1.46,-225.768,-0.768
1.5,-227.452,-0.951
1.53,-229.453,-1.134
1.56,-231.804,-1.317
1.59,-234.19,-1.168
1.63,-236.331,-0.974
1.66,-237.875,-0.722
1.69,-239.139,-0.527
1.72,-240.508,-0.779
1.76,-242.017,-0.813
1.79,-243.771,-0.928
1.82,-245.982,-1.306
1.86,-248.65,-1.466
1.89,-251.212,-1.249
1.92,-253.493,-1.1
1.95,-255.598,-1.088
1.99,-257.529,-0.928
2.02,-259.108,-0.733
2.05,-260.582,-0.745
2.08,-262.196,-0.836
2.12,-263.67,-0.768
2.15,-265.004,-0.607
2.18,-266.162,-0.561
2.21,-267.32,-0.653
2.25,-268.689,-0.745
2.28,-270.338,-0.848
2.31,-272.058,-0.951
2.34,-273.918,-0.997
2.38,-275.462,-0.687
2.41,-276.48,-0.321
2.44,-277.182,-0.332
2.47,-278.094,-0.573
2.51,-279.463,-0.79
2.54,-281.183,-0.997
2.57,-283.289,-1.168
2.6,-285.464,-1.157
2.64,-287.36,-0.848
2.67,-288.623,-0.481
2.7,-289.5,-0.367
2.73,-290.273,-0.412
2.77,-291.22,-0.504
2.8,-292.343,-0.642
2.83,-293.677,-0.699
2.86,-294.905,-0.596
2.9,-295.677,-0.298
2.93,-296.133,-0.115
2.96,-296.204,-0.023
2.99,-296.169,0.069
3.03,-296.169,0.034
3.06,-296.66,-0.458
3.09,-297.467,-0.527
3.12,-297.888,0.103
3.16,-297.923,-0.023
3.19,-298.204,-0.332
3.22,-298.941,-0.367
3.25,-299.748,-0.481
3.29,-300.555,-0.412
3.32,-301.328,-0.493
3.35,-302.029,-0.573
3.38,-302.17,-0.699
3.42,-301.994,-0.63
3.45,-301.678,-0.195
3.48,-301.468,0.321
3.51,-300.485,0.71
3.55,-299.187,0.745
3.58,-298.029,0.493
3.61,-297.362,0.275
3.65,-296.765,0.275
3.68,-296.028,0.447
3.71,-294.905,0.687
3.74,-293.431,0.894
3.78,-291.606,1.02
3.81,-289.851,0.859
3.84,-288.623,0.435
3.87,-288.062,0.183
3.91,-287.605,0.206
3.94,-286.974,0.424
3.97,-285.745,0.768
4.0,-283.99,1.065
4.04,-281.885,1.168
4.07,-279.919,0.962
4.1,-278.41,0.63
4.13,-277.463,0.424
4.17,-276.726,0.309
4.2,-276.024,0.355
4.23,-274.866,0.722
4.26,-273.181,1.077
4.3,-270.97,1.203
4.33,-268.759,1.168
4.36,-266.583,1.088
4.39,-264.653,0.939
4.43,-262.933,0.836
4.46,-261.249,0.894
4.49,-259.143,1.249
4.52,-256.757,1.283
4.56,-254.686,0.905
4.59,-252.931,0.905
4.62,-251.212,0.916
4.65,-249.878,0.573
4.69,-249.001,0.252
4.72,-248.299,0.412
4.75,-247.141,0.779
4.78,-245.421,0.997
4.82,-243.35,1.111
4.85,-240.999,1.306
4.88,-238.261,1.501
4.91,-235.454,1.466
4.95,-232.892,1.26
4.98,-230.505,1.146
5.01,-228.4,1.065
5.04,-226.434,0.939
5.08,-224.785,0.859
5.11,-223.17,0.802
5.14,-221.732,0.722
5.17,-220.363,0.699
5.21,-218.889,0.779
5.24,-217.064,1.042
5.27,-214.748,1.352
5.3,-211.94,1.558
5.34,-208.852,1.661
5.37,-205.728,1.615
5.4,-202.956,1.34
5.44,-200.639,1.088
5.47,-198.639,0.997
5.5,-196.568,1.077
5.53,-194.357,1.191
5.57,-192.041,1.283
5.6,-189.339,1.455
5.63,-186.566,1.478
5.66,-184.004,1.214
5.7,-181.653,1.123
5.73,-179.442,1.237
5.76,-176.915,1.386
5.79,-174.178,1.466
5.83,-171.124,1.627
5.86,-167.86,1.776
5.89,-164.702,1.627
5.92,-161.929,1.272
5.96,-159.648,1.042
5.99,-157.051,1.535
6.02,-153.822,1.867
6.05,-149.927,2.096
6.09,-146.136,1.947
6.12,-142.662,1.627
6.15,-139.503,1.661
6.18,-136.24,1.695
6.22,-133.221,1.524
6.25,-130.344,1.386
6.28,-127.536,1.524
6.31,-124.307,1.764
6.35,-120.798,1.947
6.38,-116.937,2.039
6.41,-113.042,1.993
6.44,-109.427,1.787
6.48,-106.058,1.695
6.51,-102.724,1.73
6.54,-99.284,1.821
6.57,-95.529,2.016
6.61,-91.423,2.222
6.64,-87.106,2.291
6.67,-82.825,2.188
6.7,-78.754,2.039
6.74,-74.998,1.856
6.77,-71.7,1.604
6.8,-68.822,1.398
6.83,-66.084,1.375
6.87,-63.347,1.489
6.9,-60.364,1.604
6.93,-57.24,1.592
6.96,-54.047,1.707
7.0,-50.502,1.959
7.03,-46.712,2.051
7.06,-42.816,1.97
7.09,-39.061,1.959
7.13,-35.165,2.016
7.16,-31.235,2.073
7.19,-27.234,2.131
7.22,-23.022,2.188
7.26,-18.811,2.211
7.29,-14.6,2.177
7.32,-10.493,2.085
7.36,-6.563,1.993
7.39,-2.808,1.879
7.42,0.562,1.673
7.45,3.58,1.443
7.49,6.317,1.386
7.52,8.984,1.386
7.55,11.827,1.501
7.58,14.915,1.707
7.62,18.425,1.913
7.65,22.25,2.085
7.68,26.462,2.234
7.71,30.743,2.257
7.75,34.885,2.131
7.78,38.991,2.062
7.81,42.921,2.005
7.84,46.466,1.741
7.88,49.8,1.65
7.91,53.029,1.73
7.94,56.293,1.65
7.97,59.451,1.592
8.01,62.785,1.81
8.04,66.47,2.028
8.07,70.296,2.005
8.1,74.051,1.879
8.14,77.631,1.856
8.17,81.105,1.776
8.2,84.404,1.661
8.23,87.668,1.673
8.27,91.037,1.81
8.3,94.582,1.879
8.33,98.196,1.867
8.36,101.706,1.787
8.4,105.11,1.718
8.43,108.339,1.673
8.46,111.497,1.638
8.49,114.761,1.707
8.53,118.271,1.902
8.56,122.061,2.016
8.59,125.851,1.97
8.62,129.326,1.741
8.66,132.52,1.524
8.69,135.503,1.546
8.72,138.416,1.466
8.75,141.504,1.673
8.79,144.662,1.684
8.82,147.926,1.673
8.85,151.085,1.684
8.88,154.173,1.501
8.92,156.981,1.398
8.95,159.824,1.524
8.98,163.087,1.821
9.01,166.667,1.947
9.05,170.387,1.947
9.08,174.107,1.879
9.11,177.512,1.695
9.15,180.424,1.398
9.18,182.846,1.111
9.21,184.846,1.008
9.24,187.022,1.134
9.28,189.444,1.363
9.31,192.252,1.558
9.34,195.41,1.741
9.37,198.779,1.764
9.41,202.008,1.592
9.44,204.64,1.237
9.47,206.711,0.928
9.5,208.325,0.722
9.54,209.764,0.733
9.57,211.273,0.859
9.6,213.028,0.974
9.63,214.958,1.065
9.67,217.064,1.1
9.7,219.029,0.985
9.73,220.854,0.916
9.76,222.749,1.02
9.8,224.925,1.214
9.83,227.417,1.329
9.86,229.839,1.306
9.89,232.33,1.214
9.93,234.436,1.042
9.96,236.156,0.802
9.99,237.63,0.664
10.02,238.963,0.722
10.06,240.508,0.859
10.09,242.262,0.985
10.12,244.228,1.031
10.15,246.404,1.226
10.19,248.755,1.249
10.22,250.896,0.962
10.25,252.615,0.802
10.28,254.23,0.916
10.32,256.055,1.008
10.35,258.02,0.985
10.38,259.915,1.02
10.41,261.74,0.882
10.45,263.319,0.756
10.48,264.653,0.653
10.51,265.881,0.607
10.54,267.075,0.596
10.58,268.338,0.733
10.61,269.917,0.951
10.64,271.953,1.1
10.67,274.023,1.1
10.71,275.638,0.779
10.74,276.796,0.378
10.77,277.638,0.389
10.8,278.516,0.607
10.84,279.849,0.745
10.87,281.393,0.836
10.9,283.078,0.962
10.94,285.043,1.031
10.97,286.763,0.859
11.0,288.062,0.515
11.03,289.009,0.401
11.07,289.781,0.447
11.1,290.729,0.561
11.13,291.922,0.664
11.16,293.256,0.745
11.2,294.659,0.687
11.23,295.712,0.481
11.26,296.414,0.252
11.29,296.765,0.103
11.33,296.906,0.046
11.36,297.046,0.115
11.39,297.537,0.344
11.42,298.309,0.504
11.46,299.187,0.447
11.49,299.924,0.298
11.52,300.415,0.195
11.55,300.906,0.355
11.59,301.292,0.355
11.62,301.328,-0.183
11.65,301.257,-0.046
11.68,302.065,0.768
11.72,301.924,0.596
11.75,301.573,0.0
11.78,301.117,-0.653
11.81,299.959,-0.63
11.85,298.59,-0.699
11.88,297.081,-0.882
11.91,296.028,-0.389
11.94,295.853,0.195
11.98,296.063,0.16
12.01,295.888,-0.229
12.04,295.151,-0.515
12.07,293.887,-0.745
12.11,292.238,-0.974
12.14,290.483,-0.916
12.17,289.114,-0.515
12.2,288.307,-0.263
12.24,287.711,-0.286
12.27,287.044,-0.389
12.3,286.061,-0.607
12.33,284.552,-0.905
12.37,282.727,-1.054
12.4,280.797,-0.905
12.43,279.323,-0.63
12.46,278.27,-0.458
12.5,277.428,-0.389
12.53,276.585,-0.447
12.56,275.427,-0.687
12.59,273.743,-0.985
12.63,271.742,-1.134
12.66,269.601,-1.111
12.69,267.531,-1.042
12.73,265.671,-0.928
12.76,264.021,-0.745
12.79,262.477,-0.756
12.82,260.757,-0.985
12.86,258.757,-1.1
12.89,256.757,-1.031
12.92,254.826,-0.916
12.95,252.931,-1.031
12.99,251.071,-0.928
13.02,249.387,-0.733
13.05,247.737,-0.905
13.08,245.491,-1.375
13.12,242.999,-1.363
13.15,240.858,-0.848
13.18,239.279,-0.699
13.21,237.91,-0.756
13.25,236.647,-0.584
13.28,235.629,-0.401
13.31,234.576,-0.63
13.34,232.997,-0.985
13.38,230.821,-1.226
13.41,228.259,-1.409
13.44,225.381,-1.581
13.47,222.363,-1.512
13.51,219.591,-1.306
13.54,217.274,-1.123
13.57,215.099,-1.088
13.6,212.958,-1.123
13.64,210.782,-1.123
13.67,208.676,-1.088
13.7,206.676,-0.997
13.73,204.886,-0.848
13.77,203.307,-0.756
13.8,201.727,-0.79
13.83,199.902,-1.054
13.86,197.516,-1.398
13.9,194.498,-1.673
13.93,191.164,-1.81
13.96,187.654,-1.81
13.99,184.425,-1.524
14.03,181.863,-1.214
14.06,179.512,-1.157
14.09,176.985,-1.363
14.12,174.213,-1.524
14.16,171.194,-1.604
14.19,168.001,-1.707
14.22,164.702,-1.673
14.25,161.508,-1.604
14.29,158.174,-1.821
14.32,155.016,-1.524
14.35,152.173,-1.317
14.38,149.751,-1.237
14.42,147.119,-1.386
14.45,144.347,-1.535
14.48,141.574,-1.306
14.52,138.977,-1.352
14.55,136.134,-1.512
14.58,133.046,-1.707
14.61,129.607,-1.833
14.65,125.851,-1.982
14.68,121.921,-2.096
14.71,117.85,-2.096
14.74,113.954,-1.959
14.78,110.374,-1.787
14.81,106.865,-1.753
14.84,103.426,-1.799
14.87,99.776,-1.89
14.91,95.985,-2.039
14.94,91.949,-2.108
14.97,87.843,-2.142
15.0,83.772,-2.085
15.04,79.877,-1.902
15.07,76.367,-1.753
15.1,73.103,-1.638
15.13,69.98,-1.604
15.17,66.821,-1.627
15.2,63.698,-1.638
15.23,60.504,-1.65
15.26,57.24,-1.695
15.3,53.906,-1.776
15.33,50.327,-1.844
15.36,46.712,-1.902
15.39,42.921,-2.028
15.43,38.815,-2.154
15.46,34.534,-2.257
15.49,30.147,-2.245
15.52,25.97,-2.096
15.56,22.25,-1.81
15.59,19.022,-1.524
15.62,16.284,-1.306
15.65,13.757,-1.237
15.69,11.301,-1.34
15.72,8.458,-1.489
15.75,5.37,-1.695
15.78,1.72,-1.982
15.82,-2.246,-2.199
15.85,-6.528,-2.234
15.88,-10.915,-2.268
15.91,-15.266,-2.268
15.95,-19.548,-2.188
15.98,-23.619,-2.016
16.01,-27.304,-1.787
16.04,-30.708,-1.695
16.08,-33.972,-1.673
16.11,-37.201,-1.661
16.14,-40.43,-1.65
16.17,-43.694,-1.684
16.21,-47.098,-1.776
16.24,-50.537,-1.844
16.27,-54.117,-1.844
16.31,-57.732,-1.867
16.34,-61.382,-1.902
16.37,-65.031,-1.89
16.4,-68.646,-1.844
16.44,-72.226,-1.821
16.47,-75.771,-1.879
16.5,-79.42,-1.913
16.53,-83.035,-1.799
16.57,-86.51,-1.753
16.6,-89.984,-1.821
16.63,-93.529,-1.879
16.66,-97.108,-1.81
16.7,-100.618,-1.81
16.73,-104.198,-1.821
16.76,-107.672,-1.787
16.79,-111.111,-1.741
16.83,-114.551,-1.787
16.86,-118.06,-1.821
16.89,-121.605,-1.844
16.92,-125.185,-1.821
16.96,-128.694,-1.81
16.99,-132.063,-1.684
17.02,-135.362,-1.707
17.05,-138.521,-1.569
17.09,-141.574,-1.546
17.12,-144.733,-1.695
17.15,-148.137,-1.81
17.18,-151.787,-1.925
17.22,-155.507,-1.936
17.25,-158.525,-1.306
17.28,-160.912,-1.1
17.31,-163.438,-1.432
17.35,-166.141,-1.443
17.38,-168.808,-1.294
17.41,-171.616,-1.512
17.44,-174.774,-1.833
17.48,-178.038,-1.615
17.51,-180.67,-1.168
17.54,-182.846,-0.974
17.57,-184.811,-1.008
17.61,-187.057,-1.237
17.64,-189.935,-1.707
17.67,-193.69,-2.131
17.7,-197.902,-2.314
17.74,-202.184,-2.131
17.77,-206.114,-1.925
17.8,-209.589,-1.73
17.83,-212.08,-0.951
17.87,-213.449,-0.401
17.9,-214.326,-0.458
17.93,-215.344,-0.584
17.96,-216.502,-0.596
18.0,-217.766,-0.699
18.03,-219.205,-0.836
18.06,-220.924,-0.848
18.1,-222.714,-0.962
18.13,-224.715,-1.157
18.16,-227.066,-1.283
18.19,-229.382,-1.146
18.23,-231.769,-1.237
18.26,-234.331,-1.443
18.29,-236.787,-1.191
18.32,-238.823,-0.859
18.36,-240.437,-0.79
18.39,-242.017,-0.825
18.42,-243.526,-0.745
18.45,-244.965,-0.745
18.49,-246.509,-0.825
18.52,-248.018,-0.79
18.55,-249.632,-0.813
18.58,-251.212,-0.836
18.62,-252.966,-0.928
18.65,-254.826,-1.02
18.68,-256.967,-1.134
18.71,-259.248,-1.203
18.75,-261.6,-1.249
18.78,-263.811,-1.1
18.81,-265.565,-0.768
18.84,-266.794,-0.47
18.88,-267.671,-0.378
18.91,-268.443,-0.424
18.94,-269.426,-0.561
18.97,-270.724,-0.745
19.01,-272.374,-0.939
19.04,-274.059,-0.928
19.07,-275.462,-0.584
19.1,-276.515,-0.412
19.14,-277.498,-0.55
19.17,-278.726,-0.722
19.2,-280.341,-0.928
19.23,-282.306,-1.1
19.27,-284.517,-1.146
19.3,-286.517,-0.997
19.33,-288.167,-0.71
19.36,-289.325,-0.458
19.4,-290.167,-0.378
19.43,-290.904,-0.412
19.46,-291.922,-0.584
19.49,-293.15,-0.699
19.53,-294.414,-0.642
19.56,-295.432,-0.447
19.59,-296.028,-0.218
19.62,-296.344,-0.069
19.66,-296.379,0.069
19.69,-296.344,0.023
19.72,-296.66,-0.321
19.75,-297.537,-0.561
19.79,-298.45,-0.447
19.82,-299.152,-0.321
19.85,-299.678,-0.206
19.88,-299.924,-0.057
19.92,-299.854,0.137
19.95,-299.818,-0.046
19.98,-300.064,-0.206
20.02,-300.45,-0.172
20.05,-300.731,-0.195
20.08,-300.836,0.0
20.11,-300.38,0.389
20.15,-299.397,0.664
20.18,-298.029,0.768
20.21,-296.695,0.71
20.24,-295.712,0.321
20.28,-295.607,-0.183
20.31,-296.028,-0.321
20.34,-296.274,-0.046
20.37,-295.958,0.378
20.41,-294.8,0.802
20.44,-292.94,1.134
20.47,-290.799,1.157
20.5,-289.114,0.745
20.54,-288.026,0.321
20.57,-287.535,0.183
20.6,-287.044,0.275
20.63,-286.237,0.538
20.67,-284.833,0.894
20.7,-282.938,1.111
20.73,-280.937,1.008
20.76,-279.463,0.642
20.8,-278.516,0.355
20.83,-277.989,0.218
20.86,-277.533,0.195
20.89,-276.831,0.458
20.93,-275.462,0.905
20.96,-273.497,1.191
20.99,-271.181,1.203
21.02,-269.04,1.1
21.06,-267.004,1.042
21.09,-265.285,0.779
21.12,-263.951,0.584
21.15,-262.477,0.871
21.19,-260.406,1.306
21.22,-257.88,1.306
21.25,-255.598,1.077
21.28,-253.493,1.065
21.32,-251.457,1.1
21.35,-249.632,0.848
21.38,-248.123,0.71
21.41,-246.544,0.871
21.45,-244.754,1.042
21.48,-242.789,1.008
21.51,-240.823,0.962
21.54,-239.034,0.939
21.58,-237.103,1.042
21.61,-235.313,0.882
21.64,-233.734,0.745
21.67,-232.12,0.882
21.71,-230.119,1.146
21.74,-227.698,1.398
21.77,-225.311,1.18
21.81,-223.276,0.951
21.84,-221.416,0.939
21.87,-219.626,0.962
21.9,-217.766,0.951
21.94,-215.555,1.226
21.97,-212.923,1.546
22.0,-209.834,1.661
22.03,-206.676,1.615
22.07,-203.728,1.443
22.1,-201.376,1.123
22.13,-199.446,0.894
22.16,-197.726,0.848
22.2,-195.866,1.02
22.23,-193.69,1.226
22.26,-191.129,1.432
22.29,-188.181,1.604
22.33,-185.233,1.512
22.36,-182.6,1.294
22.39,-180.109,1.26
22.42,-177.406,1.409
22.46,-174.564,1.592
22.49,-171.405,1.707
22.52,-167.966,1.833
22.55,-164.351,1.925
22.59,-161.052,1.592
22.62,-158.56,1.008
22.65,-156.033,1.42
22.68,-153.191,1.661
22.72,-150.067,1.524
22.75,-147.084,1.65
22.78,-144.136,1.466
22.81,-141.153,1.546
22.85,-138.205,1.546
22.88,-135.222,1.489
22.91,-132.274,1.546
22.94,-129.185,1.673
22.98,-125.887,1.764
23.01,-122.412,1.833
23.04,-118.762,1.913
23.07,-115.112,1.913
23.11,-111.568,1.741
23.14,-108.199,1.718
23.17,-104.689,1.879
23.2,-101.004,2.005
23.24,-97.038,2.073
23.27,-92.967,2.177
23.3,-88.721,2.28
23.33,-84.369,2.222
23.37,-80.298,2.051
23.4,-76.437,1.902
23.43,-72.928,1.764
23.46,-69.734,1.569
23.5,-66.646,1.546
23.53,-63.593,1.65
23.56,-60.294,1.776
23.6,-56.889,1.707
23.63,-53.731,1.627
23.66,-50.537,1.638
23.69,-47.343,1.707
23.73,-43.974,1.753
23.76,-40.535,1.81
23.79,-37.096,1.81
23.82,-33.551,1.799
23.86,-30.042,1.833
23.89,-26.357,1.947
23.92,-22.496,2.085
23.95,-18.355,2.188
23.99,-14.143,2.211
24.02,-9.897,2.211
24.05,-5.65,2.177
24.08,-1.614,2.051
24.12,2.176,1.913
24.15,5.791,1.799
24.18,9.23,1.753
24.21,12.529,1.695
24.25,15.652,1.558
24.28,18.6,1.524
24.31,21.724,1.638
24.34,24.988,1.718
24.38,28.252,1.741
24.41,31.656,1.787
24.44,35.271,1.856
24.47,38.78,1.89
24.51,42.5,1.913
24.54,46.185,1.97
24.57,50.011,1.993
24.6,53.801,1.97
24.64,57.626,1.936
24.67,61.311,1.947
24.7,65.031,1.913
24.73,68.681,1.89
24.77,72.296,1.833
24.8,75.806,1.799
24.83,79.245,1.776
24.86,82.614,1.753
24.9,86.018,1.741
24.93,89.458,1.799
24.96,92.862,1.741
24.99,96.336,1.799
25.03,99.881,1.913
25.06,103.496,1.867
25.09,106.935,1.753
25.12,110.374,1.707
25.16,113.638,1.718
25.19,117.078,1.833
25.22,120.657,1.936
25.25,124.448,1.959
25.29,128.168,1.959
25.32,131.853,1.833
25.35,135.187,1.65
25.39,138.275,1.558
25.42,141.364,1.569
25.45,144.522,1.684
25.48,147.926,1.913
25.52,151.717,2.005
25.55,155.016,1.546
25.58,157.788,1.283
25.61,160.49,1.501
25.65,163.158,1.352
25.68,165.614,1.191
25.71,168.176,1.375
25.74,171.159,1.684
25.78,174.248,1.65
25.81,177.336,1.558
25.84,180.249,1.489
25.87,182.951,1.294
25.91,185.268,1.111
25.94,187.514,1.203
25.97,190.076,1.42
26.0,192.989,1.627
26.04,196.252,1.764
26.07,199.762,1.867
26.1,203.131,1.661
26.13,205.869,1.26
26.17,208.009,0.928
26.2,209.694,0.825
26.23,211.273,0.859
26.26,213.028,0.951
26.3,214.958,1.031
26.33,217.064,1.146
26.36,219.029,1.02
26.39,220.714,0.733
26.43,222.118,0.699
26.46,223.662,0.859
26.49,225.592,1.111
26.52,227.803,1.226
26.56,230.365,1.398
26.59,233.348,1.707
26.62,236.366,1.535
26.65,239.034,1.272
26.69,241.034,0.802
26.72,242.227,0.435
26.75,243.069,0.493
26.78,244.403,0.779
26.82,246.228,1.123
26.85,248.264,1.065
26.88,250.089,0.848
26.91,251.633,0.779
26.95,253.177,0.836
26.98,254.791,0.859
27.01,256.476,0.882
27.04,258.336,1.02
27.08,260.406,1.146
27.11,262.617,1.18
27.14,264.583,0.928
27.18,266.022,0.584
27.21,267.075,0.504
27.24,268.233,0.653
27.27,269.601,0.768
27.31,271.216,0.928
27.34,273.181,1.111
27.37,275.146,0.997
27.4,276.585,0.55
27.44,277.428,0.344
27.47,278.305,0.515
27.5,279.533,0.699
27.53,280.867,0.768
27.57,282.552,0.905
27.6,284.341,1.02
27.63,286.131,0.951
27.66,287.675,0.676
27.7,288.728,0.458
27.73,289.606,0.412
27.76,290.483,0.458
27.79,291.466,0.55
27.83,292.659,0.664
27.86,293.887,0.71
27.89,295.186,0.607
27.92,296.098,0.412
27.96,296.66,0.229
27.99,296.976,0.103
28.02,297.151,0.069
28.05,297.432,0.195
28.09,297.993,0.412
28.12,298.766,0.458
28.15,299.538,0.332
28.18,300.064,0.229
28.22,300.415,0.241
28.25,300.591,0.115
28.28,300.626,-0.057
28.31,300.555,-0.069
28.35,300.591,0.103
28.38,300.731,0.115
28.41,300.871,0.126
28.44,300.871,-0.023
28.48,300.906,-0.069
28.51,300.485,-0.16
28.54,299.538,-0.779
28.57,298.134,-0.813
28.61,297.362,-0.057
28.64,297.537,0.332
28.67,297.537,-0.206
28.7,296.8,-0.573
28.74,295.326,-0.894
28.77,293.396,-1.111
28.8,291.045,-1.34
28.83,288.869,-1.031
28.87,287.43,-0.435
28.9,286.833,-0.16
28.93,286.377,-0.252
28.97,285.71,-0.424
29.0,284.622,-0.664
29.03,283.078,-0.882
29.06,281.288,-0.985
29.1,279.568,-0.825
29.13,278.235,-0.573
29.16,277.287,-0.401
29.19,276.585,-0.344
29.23,275.743,-0.458
29.26,274.515,-0.733
29.29,272.9,-0.974
29.32,270.935,-1.054
29.36,268.9,-1.02
29.39,266.899,-0.997
29.42,265.144,-0.848
29.45,263.6,-0.733
29.49,262.021,-0.848
29.52,260.336,-0.894
29.55,258.511,-0.951
29.58,256.721,-0.939
29.62,254.686,-1.031
29.65,252.615,-1.146
29.68,250.439,-1.157
29.71,248.193,-1.111
29.75,245.982,-1.18
29.78,243.456,-1.443
29.81,241.174,-1.054
29.84,239.56,-0.561
29.88,238.507,-0.458
29.91,237.63,-0.481
29.94,236.787,-0.378
29.97,235.805,-0.504
30.01,234.366,-0.974
30.04,232.085,-1.363
30.07,229.347,-1.489
30.1,226.329,-1.546
30.14,223.451,-1.489
30.17,220.819,-1.272
30.2,218.538,-1.02
30.23,216.678,-0.928
30.27,214.677,-1.031
30.3,212.502,-1.168
30.33,210.22,-1.214
30.36,207.869,-1.214
30.4,205.588,-1.134
30.43,203.587,-0.928
30.46,201.903,-0.813
30.49,200.183,-0.894
30.53,198.112,-1.191
30.56,195.515,-1.478
30.59,192.497,-1.615
30.62,189.268,-1.73
30.66,186.005,-1.695
30.69,182.986,-1.455
30.72,180.319,-1.26
30.76,177.792,-1.294
30.79,175.09,-1.443
30.82,172.318,-1.455
30.85,169.405,-1.512
30.89,166.422,-1.581
30.92,163.614,-1.398
30.95,161.052,-1.203
30.98,158.63,-1.272
31.02,155.788,-1.569
31.05,152.629,-1.764
31.08,149.19,-1.73
31.11,145.364,-2.142
31.15,141.118,-2.291
31.18,136.942,-2.062
31.21,133.362,-1.707
31.24,130.344,-1.398
31.28,127.852,-1.18
31.31,125.606,-1.077
31.34,123.325,-1.226
31.37,120.728,-1.455
31.41,117.674,-1.673
31.44,114.34,-1.764
31.47,110.831,-1.89
31.5,107.005,-2.051
31.54,102.829,-2.199
31.57,98.512,-2.325
31.6,93.81,-2.486
31.63,89.037,-2.497
31.67,84.369,-2.36
31.7,80.263,-2.005
31.73,76.718,-1.581
31.76,73.84,-1.398
31.8,71.068,-1.409
31.83,68.295,-1.466
31.86,65.417,-1.512
31.89,62.294,-1.673
31.93,58.855,-1.833
31.96,55.275,-1.89
31.99,51.555,-1.902
32.02,47.835,-1.936
32.06,44.115,-1.936
32.09,40.359,-1.89
32.12,36.745,-1.867
32.15,33.095,-1.902
32.19,29.41,-1.879
32.22,25.935,-1.776
32.25,22.496,-1.684
32.28,19.337,-1.638
32.32,16.179,-1.638
32.35,12.88,-1.695
32.38,9.441,-1.833
32.41,5.721,-1.982
32.45,1.825,-2.073
32.48,-2.246,-2.131
32.51,-6.387,-2.096
32.54,-10.248,-1.959
32.58,-13.863,-1.764
32.61,-17.267,-1.741
32.64,-20.706,-1.833
32.68,-24.321,-1.879
32.71,-27.866,-1.821
32.74,-31.375,-1.799
32.77,-34.92,-1.833
32.81,-38.499,-1.833
32.84,-42.044,-1.821
32.87,-45.659,-1.867
32.9,-49.309,-1.902
32.94,-52.994,-1.879
32.97,-56.538,-1.833
33.0,-60.118,-1.799
33.03,-63.557,-1.776
33.07,-66.997,-1.753
33.1,-70.436,-1.799
33.13,-73.981,-1.844
33.16,-77.525,-1.821
33.2,-80.965,-1.718
33.23,-84.264,-1.695
33.26,-87.598,-1.753
33.29,-91.107,-1.844
33.33,-94.792,-1.936
33.36,-98.512,-1.959
33.39,-102.232,-1.913
33.42,-105.847,-1.799
33.46,-109.251,-1.718
33.49,-112.656,-1.764
33.52,-116.095,-1.821
33.55,-119.675,-1.844
33.59,-123.325,-1.879
33.62,-126.939,-1.89
33.65,-130.414,-1.764
33.68,-133.783,-1.695
33.72,-137.117,-1.73
33.75,-140.346,-1.604
33.78,-143.61,-1.73
33.81,-147.119,-1.844
33.85,-150.594,-1.821
33.88,-154.173,-1.833
33.91,-157.507,-1.707
33.94,-160.21,-1.157
33.98,-162.491,-1.042
34.01,-164.772,-1.294
34.04,-167.474,-1.466
34.07,-170.352,-1.535
34.11,-173.686,-1.81
34.14,-177.266,-1.913
34.17,-180.635,-1.638
34.2,-183.408,-1.283
34.24,-185.759,-1.134
34.27,-188.04,-1.157
34.3,-190.532,-1.363
34.33,-193.515,-1.684
34.37,-196.989,-1.902
34.4,-200.569,-1.89
34.43,-203.938,-1.661
34.47,-207.202,-1.65
34.5,-210.01,-1.386
34.53,-211.87,-0.584
34.56,-212.888,-0.367
34.6,-213.8,-0.55
34.63,-214.993,-0.687
34.66,-216.432,-0.756
34.69,-218.187,-0.985
34.73,-220.363,-1.237
34.76,-222.855,-1.375
34.79,-225.732,-1.569
34.82,-228.926,-1.741
34.86,-232.225,-1.661
34.89,-235.208,-1.455
34.92,-237.875,-1.317
34.95,-240.262,-1.191
34.99,-242.403,-1.008
35.02,-244.333,-0.916
35.05,-246.123,-0.928
35.08,-247.948,-0.951
35.12,-249.843,-0.962
35.15,-251.738,-0.997
35.18,-253.844,-1.123
35.21,-256.055,-1.214
35.25,-258.371,-1.214
35.28,-260.547,-1.077
35.31,-262.231,-0.722
35.34,-263.319,-0.367
35.38,-263.776,-0.16
35.41,-263.951,0.011
35.44,-263.916,0.046
35.47,-264.091,-0.115
35.51,-264.548,-0.367
35.54,-265.565,-0.619
35.57,-267.11,-0.962
35.6,-269.25,-1.272
35.64,-271.918,-1.489
35.67,-274.585,-1.363
35.7,-276.55,-0.768
35.73,-277.989,-0.607
35.77,-279.288,-0.733
35.8,-280.762,-0.733
35.83,-282.271,-0.745
35.86,-283.92,-0.985
35.9,-285.886,-1.042
35.93,-287.675,-0.836
35.96,-289.044,-0.63
35.99,-290.132,-0.493
36.03,-290.904,-0.309
36.06,-291.431,-0.229
36.09,-292.027,-0.332
36.12,-292.87,-0.493
36.16,-293.922,-0.596
36.19,-295.116,-0.653
36.22,-296.204,-0.527
36.26,-296.976,-0.298
36.29,-297.467,-0.126
36.32,-297.643,-0.057
36.35,-297.678,-0.034
36.39,-297.923,-0.149
36.42,-298.485,-0.389
36.45,-299.327,-0.47
36.48,-299.959,-0.263
36.52,-300.169,-0.092
36.55,-300.415,-0.046
36.58,-300.275,0.069
36.61,-300.134,0.137
36.65,-300.134,-0.092
36.68,-300.626,-0.412
36.71,-301.222,-0.47
36.74,-301.643,-0.252
36.78,-301.643,-0.046
36.81,-301.328,0.252
36.84,-300.555,0.63
36.87,-299.362,0.722
36.91,-298.239,0.435
36.94,-297.783,0.069
36.97,-297.748,-0.069
37.0,-297.502,0.218
37.04,-296.625,0.687
37.07,-295.01,1.031
37.1,-292.834,1.168
37.13,-290.799,1.065
37.17,-289.325,0.596
37.2,-288.728,0.057
37.23,-288.693,-0.149
37.26,-288.623,0.172
37.3,-287.711,0.733
37.33,-286.026,1.031
37.36,-282.622,2.119
37.39,-272.935,6.976
37.43,-256.055,10.952
37.46,-238.121,8.729
37.49,-226.364,3.895
37.52,-221.977,0.642
37.56,-223.767,-2.199
37.59,-231.348,-5.464
37.62,-243.526,-7.4
37.65,-257.353,-7.24
37.69,-269.952,-6.037
37.72,-279.358,-4.009
37.75,-284.061,-1.123
37.78,-283.604,1.512
37.82,-278.937,3.322
37.85,-271.356,4.559
37.88,-262.582,4.754
37.91,-254.791,3.631
37.95,-249.527,1.982
37.98,-247.07,0.619
38.01,-246.86,-0.367
38.05,-248.158,-1.088
38.08,-250.089,-1.042
38.11,-251.071,-0.137
38.14,-250.334,0.836
38.18,-248.228,1.409
38.21,-245.105,1.821
38.24,-241.385,2.073
38.27,-237.524,1.993
38.31,-234.05,1.684
38.34,-230.997,1.432
38.37,-228.4,1.283
38.4,-226.154,1.065
38.44,-224.504,0.71
38.47,-223.346,0.47
38.5,-222.469,0.447
38.53,-221.556,0.504
38.57,-220.398,0.63
38.6,-218.819,0.974
38.63,-216.467,1.409
38.66,-213.449,1.718
38.7,-210.185,1.776
38.73,-206.956,1.604
38.76,-204.114,1.329
38.79,-201.762,1.146
38.83,-199.692,1.02
38.86,-197.586,1.065
38.89,-195.34,1.249
38.92,-192.813,1.409
38.96,-190.041,1.455
38.99,-187.338,1.386
39.02,-184.917,1.157
39.05,-182.706,1.123
39.09,-180.389,1.249
39.12,-177.722,1.466
39.15,-174.669,1.718
39.18,-171.124,1.925
39.22,-167.264,2.062
39.25,-163.474,1.959
39.28,-160.104,1.592
39.31,-157.262,1.352
39.35,-154.665,1.294
39.38,-152.068,1.363
39.41,-149.19,1.661
39.44,-145.645,1.947
39.48,-141.82,2.051
39.51,-138.029,1.947
39.54,-134.555,1.718
39.57,-131.432,1.501
39.61,-128.729,1.294
39.64,-126.308,1.214
39.67,-123.746,1.352
39.7,-120.903,1.569
39.74,-117.85,1.695
39.77,-114.551,1.684
39.8,-111.287,1.673
39.84,-108.023,1.764
39.87,-104.549,1.833
39.9,-100.864,1.97
39.93,-96.687,2.268
39.97,-92.02,2.555
40.0,-87.177,2.566
40.03,-82.474,2.303
40.06,-78.333,2.016
40.1,-74.718,1.776
40.13,-71.559,1.489
40.16,-68.857,1.294
40.19,-66.225,1.398
40.23,-63.417,1.546
40.26,-60.258,1.65
40.29,-57.135,1.673
40.32,-53.801,1.753
40.36,-50.221,1.89
40.39,-46.606,1.947
40.42,-42.746,2.016
40.45,-38.78,2.165
40.49,-34.569,2.154
40.52,-30.568,2.028
40.55,-26.743,1.913
40.58,-23.198,1.81
40.62,-19.829,1.695
40.65,-16.565,1.661
40.68,-13.336,1.695
40.71,-9.862,1.867
40.75,-6.107,2.039
40.78,-2.071,2.142
40.81,2.036,2.096
40.84,5.931,1.982
40.88,9.616,1.867
40.91,13.196,1.776
40.94,16.495,1.661
40.97,19.724,1.684
41.01,23.093,1.799
41.04,26.637,1.879
41.07,30.182,1.867
41.1,33.797,1.856
41.14,37.482,1.947
41.17,41.237,2.016
41.2,45.168,2.016
41.23,49.133,2.085
41.27,53.064,2.016
41.3,56.714,1.799
41.33,60.118,1.718
41.36,63.522,1.776
41.4,66.962,1.799
41.43,70.366,1.776
41.46,73.77,1.73
41.49,77.209,1.787
41.53,80.614,1.787
41.56,84.018,1.707
41.59,87.352,1.753
41.63,90.826,1.821
41.66,94.266,1.799
41.69,97.775,1.799
41.72,101.144,1.707
41.76,104.619,1.856
41.79,108.093,1.856
41.82,111.568,1.73
41.85,114.867,1.684
41.89,118.411,1.925
41.92,122.272,2.096
41.95,126.167,1.982
41.98,129.747,1.776
42.02,132.906,1.546
42.05,135.748,1.375
42.08,138.345,1.306
42.11,140.907,1.329
42.15,143.68,1.535
42.18,147.049,1.879
42.21,150.874,2.131
42.24,154.77,1.993
42.28,158.35,1.695
42.31,161.473,1.546
42.34,164.316,1.443
42.37,166.913,1.294
42.41,169.51,1.352
42.44,172.247,1.489
42.47,175.16,1.535
42.5,178.038,1.512
42.54,180.951,1.455
42.57,183.618,1.398
42.6,186.391,1.386
42.63,189.198,1.558
42.67,192.427,1.753
42.7,195.831,1.833
42.73,199.341,1.787
42.76,202.534,1.604
42.8,205.237,1.249
42.83,207.307,0.928
42.86,208.887,0.722
42.89,210.291,0.733
42.93,211.87,0.825
42.96,213.484,0.928
42.99,215.414,1.042
43.02,217.52,1.18
43.06,219.661,1.065
43.09,221.556,0.939
43.12,223.416,1.008
43.15,225.557,1.157
43.19,227.838,1.214
43.22,230.154,1.214
43.25,232.576,1.249
43.28,234.857,1.203
43.32,236.717,0.836
43.35,238.051,0.538
43.38,239.279,0.642
43.42,240.718,0.882
43.45,242.578,1.088
43.48,244.824,1.146
43.51,247.281,1.42
43.55,250.089,1.535
43.58,252.58,1.146
43.61,254.335,0.722
43.64,255.809,0.745
43.68,257.388,0.905
43.71,259.038,0.813
43.74,260.547,0.768
43.77,262.196,0.928
43.81,263.881,0.882
43.84,265.425,0.745
43.87,266.653,0.515
43.9,267.566,0.401
43.94,268.619,0.664
43.97,270.268,0.962
44.0,272.058,0.985
44.03,273.848,0.905
44.07,275.392,0.699
44.1,276.445,0.424
44.13,277.287,0.424
44.16,278.375,0.63
44.2,279.779,0.836
44.23,281.464,0.962
44.26,283.359,0.985
44.29,285.289,0.997
44.33,287.009,0.859
44.36,288.448,0.619
44.39,289.465,0.504
44.42,290.448,0.493
44.46,291.536,0.573
44.49,292.694,0.642
44.52,293.887,0.676
44.55,295.116,0.619
44.59,296.169,0.458
44.62,296.765,0.275
44.65,297.116,0.092
44.68,297.116,-0.08
44.72,296.87,-0.149
44.75,297.081,0.195
44.78,297.818,0.653
44.81,298.555,0.275
44.85,299.081,0.183
44.88,299.538,0.298
44.91,300.029,0.298
44.94,300.485,0.206
44.98,300.731,0.057
45.01,300.871,0.115
45.04,301.047,0.149
45.07,301.117,0.011
45.11,300.906,-0.183
45.14,300.31,-0.378
45.17,299.432,-0.527
45.2,298.274,-0.642
45.24,297.186,-0.527
45.27,296.625,-0.115
45.3,296.66,0.206
45.34,296.976,0.172
45.37,296.976,-0.126
45.4,296.309,-0.515
45.43,294.94,-0.916
45.47,292.87,-1.214
45.5,290.623,-1.191
45.53,288.799,-0.733
45.56,287.851,-0.298
45.6,287.289,-0.16
45.63,286.903,-0.206
45.66,286.201,-0.447
45.69,284.938,-0.79
45.73,283.148,-1.054
45.76,281.148,-0.985
45.79,279.604,-0.699
45.82,278.41,-0.504
45.86,277.463,-0.447
45.89,276.445,-0.493
45.92,275.217,-0.756
45.95,273.357,-1.077
45.99,271.216,-1.18
46.02,269.145,-1.042
46.05,267.18,-0.939
46.08,265.39,-0.848
46.12,263.916,-0.699
46.15,262.617,-0.619
46.18,261.214,-0.779
46.21,259.424,-1.02
46.25,257.423,-1.077
46.28,255.423,-0.974
46.31,253.528,-0.997
46.34,251.738,-0.871
46.38,250.194,-0.687
46.41,248.65,-0.825
46.44,246.86,-1.042
46.47,244.789,-1.123
46.51,242.719,-0.985
46.54,240.823,-1.008
46.57,238.823,-1.042
46.6,236.752,-1.042
46.64,234.682,-1.054
46.67,232.857,-0.894
46.7,231.102,-0.882
46.73,229.137,-1.088
46.77,226.961,-1.157
46.8,224.89,-1.031
46.83,222.925,-0.985
46.86,220.959,-1.008
46.9,219.029,-0.974
46.93,217.029,-1.054
46.96,214.713,-1.317
46.99,211.975,-1.501
47.03,209.132,-1.466
47.06,206.395,-1.398
47.09,203.938,-1.18
47.13,201.938,-0.871
47.16,200.359,-0.756
47.19,198.709,-0.894
47.22,196.674,-1.146
47.26,194.252,-1.386
47.29,191.339,-1.569
47.32,188.145,-1.73
47.35,184.917,-1.638
47.39,182.039,-1.409
47.42,179.301,-1.352
47.45,176.599,-1.409
47.48,173.827,-1.443
47.52,170.984,-1.501
47.55,167.825,-1.73
47.58,164.491,-1.776
47.61,161.122,-1.695
47.65,157.893,-1.65
47.68,154.875,-1.432
47.71,152.103,-1.398
47.74,149.4,-1.455
47.78,146.558,-1.455
47.81,143.715,-1.489
47.84,140.732,-1.569
47.87,137.643,-1.604
47.91,134.52,-1.615
47.94,131.361,-1.65
47.97,128.098,-1.707
48.0,124.693,-1.776
48.04,121.149,-1.879
48.07,117.464,-1.925
48.1,113.849,-1.844
48.13,110.515,-1.604
48.17,107.532,-1.478
48.2,104.514,-1.581
48.23,101.18,-1.81
48.26,97.389,-2.085
48.3,92.967,-2.371
48.33,88.194,-2.543
48.36,83.351,-2.543
48.39,78.789,-2.222
48.43,74.823,-1.844
48.46,71.559,-1.558
48.49,68.576,-1.455
48.52,65.839,-1.42
48.56,62.996,-1.489
48.59,60.013,-1.569
48.62,56.819,-1.673
48.65,53.59,-1.695
48.69,50.291,-1.73
48.72,46.817,-1.821
48.75,42.992,-2.016
48.78,39.026,-2.142
48.82,34.92,-2.154
48.85,30.849,-2.062
48.88,27.023,-1.936
48.92,23.444,-1.707
48.95,20.355,-1.501
48.98,17.583,-1.375
49.01,14.88,-1.375
49.05,12.283,-1.317
49.08,9.581,-1.443
49.11,6.387,-1.776
49.14,2.527,-2.165
49.18,-1.895,-2.417
49.21,-6.668,-2.532
49.24,-11.476,-2.497
49.27,-16.039,-2.257
49.31,-20.18,-2.039
49.34,-24.04,-1.89
49.37,-27.585,-1.821
49.4,-31.024,-1.753
49.44,-34.393,-1.695
49.47,-37.622,-1.65
49.5,-40.851,-1.638
49.53,-44.009,-1.707
49.57,-47.519,-1.821
49.6,-51.099,-1.913
49.63,-54.784,-1.902
49.66,-58.434,-1.833
49.7,-61.943,-1.787
49.73,-65.347,-1.764
49.76,-68.752,-1.73
49.79,-72.191,-1.741
49.83,-75.56,-1.764
49.86,-79.034,-1.787
49.89,-82.404,-1.753
49.92,-85.913,-1.787
49.96,-89.493,-1.89
49.99,-93.283,-2.005
50.02,-97.144,-2.028
50.05,-101.004,-1.982
50.09,-104.689,-1.833
50.12,-108.128,-1.684
50.15,-111.287,-1.581
50.18,-114.445,-1.661
50.22,-117.709,-1.707
50.25,-121.114,-1.764
50.28,-124.623,-1.89
50.31,-128.273,-1.936
50.35,-131.853,-1.776
50.38,-135.432,-1.844
50.41,-138.907,-1.787
50.44,-142.276,-1.673
50.48,-145.54,-1.718
50.51,-148.944,-1.787
50.54,-152.454,-1.821
50.57,-155.928,-1.787
50.61,-158.701,-1.203
50.64,-160.736,-0.768
50.67,-162.701,-1.18
50.71,-165.298,-1.501
50.74,-168.246,-1.569
50.77,-171.475,-1.741
50.8,-175.266,-2.096
50.84,-179.091,-1.993
50.87,-182.53,-1.581
50.9,-185.338,-1.272
50.93,-187.689,-1.168
50.97,-189.935,-1.123
51.0,-192.357,-1.317
51.03,-195.164,-1.581
51.06,-198.358,-1.718
51.1,-201.517,-1.615
51.13,-204.5,-1.466
51.16,-207.062,-1.214
51.19,-209.238,-1.031
51.23,-211.343,-1.088
51.26,-214.186,-1.661
51.29,-217.731,-2.108
51.32,-221.661,-2.016
51.36,-224.89,-1.466
51.39,-227.101,-0.779
51.42,-227.979,-0.16
51.45,-228.014,0.206
51.49,-227.663,0.172
51.52,-227.628,-0.069
51.55,-228.259,-0.515
51.58,-229.733,-0.951
51.62,-231.804,-1.191
51.65,-234.401,-1.432
51.68,-237.138,-1.478
51.71,-239.735,-1.226
51.75,-241.595,-0.779
51.78,-242.929,-0.55
51.81,-243.596,-0.218
51.84,-243.666,0.183
51.88,-243.596,-0.034
51.91,-244.122,-0.47
51.94,-245.245,-0.687
51.97,-246.895,-0.951
52.01,-249.246,-1.409
52.04,-252.299,-1.741
52.07,-255.774,-1.844
52.1,-259.319,-1.867
52.14,-262.758,-1.73
52.17,-265.706,-1.386
52.2,-267.952,-0.962
52.23,-269.531,-0.63
52.27,-270.444,-0.378
52.3,-271.146,-0.298
52.33,-271.848,-0.389
52.36,-272.9,-0.664
52.4,-274.339,-0.79
52.43,-275.673,-0.653
52.46,-276.866,-0.561
52.5,-278.094,-0.664
52.53,-279.428,-0.733
52.56,-280.937,-0.813
52.59,-282.587,-0.916
52.63,-284.377,-0.962
52.66,-286.131,-0.871
52.69,-287.64,-0.71
52.72,-288.904,-0.607
52.76,-290.027,-0.55
52.79,-290.974,-0.47
52.82,-291.957,-0.504
52.85,-293.045,-0.573
52.89,-294.133,-0.573
52.92,-295.186,-0.493
52.95,-295.993,-0.424
52.98,-296.8,-0.401
53.02,-297.467,-0.309
53.05,-297.818,-0.08
53.08,-298.134,-0.115
53.11,-298.415,-0.229
53.15,-298.871,-0.218
53.18,-299.152,-0.103
53.21,-299.608,-0.241
53.24,-300.134,-0.435
53.28,-300.415,-0.057
53.31,-300.415,0.16
53.34,-300.345,-0.092
53.37,-300.52,-0.195
53.41,-300.661,0.046
53.44,-300.52,0.137
53.47,-300.31,0.069
53.5,-300.029,0.195
53.54,-299.292,0.504
53.57,-298.274,0.63
53.6,-297.256,0.481
53.63,-296.519,0.309
53.67,-296.028,0.206
53.7,-295.642,0.183
53.73,-295.045,0.367
53.76,-294.063,0.619
53.8,-292.694,0.813
53.83,-291.045,0.939
53.86,-289.29,0.871
53.89,-288.026,0.584
53.93,-286.974,0.412
53.96,-285.851,0.687
53.99,-283.78,1.34
54.02,-280.656,1.879
54.06,-277.112,1.936
54.09,-273.883,1.524
54.12,-271.672,0.836
54.15,-270.935,0.057
54.19,-271.461,-0.607
54.22,-272.935,-0.939
54.25,-274.445,-0.733
54.29,-275.252,-0.172
54.32,-275.146,0.252
54.35,-274.62,0.378
54.38,-273.848,0.412
54.42,-272.9,0.55
54.45,-271.672,0.699
54.48,-270.268,0.779
54.51,-268.198,1.203
54.55,-265.39,1.741
54.58,-262.126,1.73
54.61,-258.827,1.695
54.64,-255.353,1.821
54.68,-251.913,1.764
54.71,-249.036,1.294
54.74,-246.825,0.962
54.77,-244.965,0.974
54.81,-243.034,0.985
54.84,-241.315,0.848
54.87,-239.735,0.813
54.9,-238.086,0.882
54.94,-236.366,0.905
54.97,-234.752,0.825
55.0,-233.067,0.916
55.03,-231.242,0.997
55.07,-229.031,1.203
55.1,-226.61,1.386
55.13,-224.364,0.997
55.16,-222.749,0.687
55.2,-221.346,0.722
55.23,-219.872,0.825
55.26,-218.292,0.825
55.29,-216.397,1.088
55.33,-213.905,1.501
55.36,-210.817,1.707
55.39,-207.553,1.73
55.42,-204.395,1.592
55.46,-201.622,1.294
55.49,-199.341,1.077
55.52,-197.34,0.997
55.55,-195.305,1.1
55.59,-193.059,1.214
55.62,-190.602,1.363
55.65,-187.83,1.524
55.68,-184.952,1.478
55.72,-182.355,1.26
55.75,-179.898,1.214
55.78,-177.406,1.398
55.81,-174.634,1.512
55.85,-171.651,1.512
55.88,-168.562,1.65
55.91,-165.298,1.799
55.94,-162.035,1.627
55.98,-159.508,1.042
56.01,-157.016,1.352
56.04,-153.963,1.856
56.08,-150.629,1.684
56.11,-147.365,1.707
56.14,-144.382,1.466
56.17,-141.434,1.501
56.21,-138.451,1.604
56.24,-135.397,1.535
56.27,-132.414,1.592
56.3,-129.256,1.707
56.34,-125.851,1.799
56.37,-122.342,1.867
56.4,-118.727,1.89
56.43,-115.147,1.867
56.47,-111.708,1.718
56.5,-108.479,1.627
56.53,-105.251,1.707
56.56,-101.776,1.879
56.6,-97.916,2.085
56.63,-93.634,2.325
56.66,-89.001,2.486
56.69,-84.334,2.429
56.73,-79.877,2.245
56.76,-75.735,2.039
56.79,-72.086,1.776
56.82,-68.962,1.512
56.86,-66.084,1.386
56.89,-63.522,1.34
56.92,-60.89,1.352
56.95,-58.223,1.409
56.99,-55.31,1.558
57.02,-52.187,1.753
57.05,-48.642,1.89
57.08,-44.922,1.97
57.12,-41.026,2.085
57.15,-36.885,2.188
57.18,-32.533,2.28
57.21,-28.252,2.257
57.25,-23.935,2.188
57.28,-19.934,2.016
57.31,-16.214,1.856
57.34,-12.775,1.741
57.38,-9.441,1.65
57.41,-6.282,1.661
57.44,-2.878,1.81
57.47,0.807,2.005
57.51,4.562,1.97
57.54,8.212,1.821
57.57,11.687,1.764
57.6,15.126,1.764
57.64,18.53,1.741
57.67,21.829,1.73
57.7,25.023,1.569
57.73,28.076,1.592
57.77,31.34,1.753
57.8,34.779,1.879
57.83,38.464,1.913
57.86,42.184,1.982
57.9,46.08,2.039
57.93,50.046,2.062
57.96,53.976,2.051
58.0,57.942,2.005
58.03,61.697,1.936
58.06,65.382,1.89
58.09,68.962,1.856
58.13,72.437,1.787
58.16,75.946,1.787
58.19,79.42,1.799
58.22,82.755,1.718
58.26,86.053,1.661
58.29,89.317,1.73
58.32,92.757,1.821
58.35,96.301,1.856
58.39,99.811,1.833
58.42,103.25,1.753
58.45,106.549,1.695
58.48,109.848,1.695
58.52,113.182,1.776
58.55,116.692,1.902
58.58,120.482,1.97
58.61,124.307,2.016
58.65,128.238,2.028
58.68,131.923,1.913
58.71,135.327,1.65
58.74,138.451,1.569
58.78,141.539,1.604
58.81,144.803,1.73
58.84,148.067,1.695
58.87,151.787,2.062
58.91,155.577,2.005
58.94,158.595,1.237
58.97,160.912,1.065
59.0,163.017,1.18
59.04,165.369,1.26
59.07,167.896,1.26
59.1,170.668,1.627
59.13,173.967,1.821
59.17,177.406,1.753
59.2,180.53,1.569
59.23,183.408,1.42
59.26,185.97,1.226
59.3,188.356,1.214
59.33,190.813,1.352
59.36,193.69,1.604
59.39,196.919,1.764
59.43,200.218,1.741
59.46,203.342,1.535
59.49,205.939,1.226
59.52,207.974,0.916
59.56,209.624,0.768
59.59,211.203,0.836
59.62,212.923,0.928
59.65,214.713,0.974
59.69,216.713,1.077
59.72,218.748,1.077
59.75,220.573,0.882
59.79,222.223,0.813
59.82,223.907,0.916
59.85,225.838,1.1
59.88,228.084,1.214
59.92,230.435,1.237
59.95,232.822,1.272
59.98,235.033,1.1
60.01,236.752,0.733
60.05,238.156,0.653
60.08,239.665,0.871
60.11,241.42,0.997
60.14,243.666,1.272
60.18,246.123,1.34
60.21,248.404,1.088
60.24,250.404,0.997
60.27,252.335,0.951
60.31,253.984,0.825
60.34,255.528,0.733
60.37,257.037,0.859
60.4,258.722,0.894
60.44,260.336,0.813
60.47,261.986,0.859
60.5,263.635,0.894
60.53,265.074,0.664
60.57,266.267,0.584
60.6,267.636,0.756
60.63,269.286,0.974
60.66,271.251,1.077
60.7,273.392,1.168
60.73,275.392,1.02
60.76,276.866,0.561
60.79,277.779,0.332
60.83,278.551,0.458
60.86,279.604,0.63
60.89,280.867,0.722
60.92,282.481,0.882
60.96,284.271,1.065
60.99,286.307,1.031
61.02,287.956,0.756
61.05,289.114,0.493
61.09,289.992,0.389
61.12,290.764,0.389
61.15,291.606,0.447
61.18,292.589,0.584
61.22,293.747,0.653
61.25,294.94,0.596
61.28,295.853,0.412
61.31,296.484,0.241
61.35,296.8,0.137
61.38,297.116,0.115
61.41,297.432,0.195
61.44,297.993,0.389
61.48,298.801,0.493
61.51,299.643,0.389
61.54,300.134,0.252
61.58,300.591,0.309
61.61,301.152,0.481
61.64,301.678,0.401
61.67,301.749,0.092
61.71,301.889,0.069
61.74,302.205,0.412
61.77,301.819,0.241
61.8,301.503,-0.286
61.84,300.485,-0.825
61.87,299.187,-0.63
61.9,297.923,-0.596
61.93,296.73,-0.687
61.97,295.958,-0.229
62.0,295.923,0.229
62.03,296.133,0.115
62.06,295.888,-0.263
62.1,295.081,-0.573
62.13,293.782,-0.79
62.16,291.992,-1.031
62.19,290.132,-0.928
62.23,288.799,-0.504
62.26,287.991,-0.286
62.29,287.289,-0.344
62.32,286.482,-0.47
62.36,285.324,-0.664
62.39,283.815,-0.905
62.42,281.885,-1.042
62.45,280.06,-0.916
62.49,278.621,-0.653
62.52,277.393,-0.493
62.55,276.515,-0.435
62.58,275.533,-0.493
62.62,274.374,-0.687
62.65,272.795,-0.905
62.68,270.935,-1.031
62.71,268.864,-1.088
62.75,266.864,-1.054
62.78,264.934,-0.962
62.81,263.179,-0.848
62.84,261.389,-0.916
62.88,259.705,-0.859
62.91,258.02,-0.79
62.94,256.195,-1.1
62.97,254.019,-1.18
63.01,251.808,-1.111
63.04,249.983,-0.813
63.07,248.544,-0.653
63.1,247.035,-0.825
63.14,245.0,-1.237
63.17,242.543,-1.386
63.2,240.192,-1.042
63.23,238.402,-0.825
63.27,236.893,-0.722
63.3,235.559,-0.664
63.33,234.436,-0.515
63.37,233.383,-0.504
63.4,232.05,-0.813
63.43,230.049,-1.146
63.46,227.698,-1.317
63.5,225.136,-1.398
63.53,222.363,-1.409
63.56,219.766,-1.306
63.59,217.31,-1.18
63.63,214.888,-1.226
63.66,212.431,-1.352
63.69,209.799,-1.363
63.72,207.307,-1.249
63.76,205.026,-1.134
63.79,203.096,-0.871
63.82,201.552,-0.687
63.85,200.078,-0.733
63.89,198.323,-1.031
63.92,195.972,-1.398
63.95,192.989,-1.627
63.98,189.725,-1.787
64.02,186.25,-1.833
64.05,182.916,-1.604
64.08,180.074,-1.352
64.11,177.547,-1.294
64.15,174.879,-1.363
64.18,172.282,-1.398
64.21,169.475,-1.443
64.24,166.457,-1.661
64.28,163.368,-1.627
64.31,160.069,-1.638
64.34,156.841,-1.776
64.37,153.857,-1.352
64.41,151.331,-1.191
64.44,149.014,-1.168
64.47,146.347,-1.489
64.5,143.294,-1.753
64.54,139.89,-1.73
64.57,136.555,-1.73
64.6,133.186,-1.73
64.63,129.747,-1.81
64.67,126.273,-1.833
64.7,122.763,-1.787
64.73,119.324,-1.73
64.76,115.99,-1.73
64.8,112.761,-1.673
64.83,109.462,-1.65
64.86,106.163,-1.764
64.89,102.548,-1.947
64.93,98.582,-2.131
64.96,94.266,-2.314
64.99,89.703,-2.348
65.02,85.246,-2.314
65.06,80.93,-2.165
65.09,76.964,-1.925
65.12,73.489,-1.695
65.16,70.331,-1.524
65.19,67.558,-1.375
65.22,64.961,-1.317
65.25,62.259,-1.42
65.29,59.311,-1.558
65.32,56.187,-1.684
65.35,52.888,-1.695
65.38,49.519,-1.753
65.42,45.975,-1.902
65.45,42.114,-2.051
65.48,38.184,-2.039
65.51,34.323,-1.982
65.55,30.533,-1.913
65.58,26.883,-1.833
65.61,23.373,-1.776
65.64,19.864,-1.821
65.68,16.284,-1.879
65.71,12.494,-1.982
65.74,8.528,-2.131
65.77,4.317,-2.245
65.81,0.035,-2.222
65.84,-4.176,-2.096
65.87,-8.002,-1.879
65.9,-11.441,-1.684
65.94,-14.635,-1.535
65.97,-17.618,-1.558
66.0,-20.741,-1.638
66.03,-23.9,-1.661
66.07,-27.058,-1.627
66.1,-30.322,-1.673
66.13,-33.691,-1.821
66.16,-37.271,-1.925
66.2,-41.061,-1.936
66.23,-44.817,-1.97
66.26,-48.712,-2.016
66.29,-52.608,-2.016
66.33,-56.503,-1.947
66.36,-60.188,-1.902
66.39,-63.838,-1.867
66.42,-67.383,-1.833
66.46,-70.963,-1.799
66.49,-74.367,-1.741
66.52,-77.771,-1.73
66.55,-81.14,-1.764
66.59,-84.474,-1.73
66.62,-87.843,-1.741
66.65,-91.353,-1.844
66.68,-95.038,-1.947
66.72,-98.758,-1.947
66.75,-102.478,-1.902
66.78,-106.023,-1.764
66.81,-109.322,-1.65
66.85,-112.585,-1.627
66.88,-115.779,-1.707
66.91,-119.113,-1.753
66.95,-122.623,-1.844
66.98,-126.308,-1.936
67.01,-129.958,-1.89
67.04,-133.432,-1.741
67.08,-136.977,-1.821
67.11,-140.276,-1.695
67.14,-143.68,-1.695
67.17,-147.014,-1.776
67.21,-150.488,-1.833
67.24,-154.068,-1.879
67.27,-157.507,-1.707
67.3,-160.034,-0.985
67.34,-162.0,-0.894
67.37,-164.175,-1.363
67.4,-167.018,-1.546
67.43,-170.001,-1.546
67.47,-173.335,-1.844
67.5,-177.161,-2.108
67.53,-180.951,-1.902
67.56,-184.215,-1.501
67.6,-186.917,-1.283
67.63,-189.339,-1.18
67.66,-191.655,-1.157
67.69,-194.077,-1.352
67.73,-196.919,-1.569
67.76,-199.937,-1.581
67.79,-202.956,-1.455
67.82,-205.553,-1.306
67.86,-207.834,-1.042
67.89,-209.624,-0.836
67.92,-211.414,-0.894
67.95,-213.519,-1.272
67.99,-216.222,-1.489
68.02,-218.889,-1.363
68.05,-221.1,-0.939
68.08,-222.574,-0.607
68.12,-223.627,-0.447
68.15,-224.434,-0.424
68.18,-225.417,-0.504
68.21,-226.715,-0.756
68.25,-228.505,-1.077
68.28,-230.751,-1.283
68.31,-233.138,-1.214
68.34,-235.313,-1.042
68.38,-237.279,-0.951
68.41,-239.139,-1.042
68.44,-240.858,-0.745
68.47,-242.508,-0.848
68.51,-244.298,-1.02
68.54,-246.298,-1.008
68.57,-248.369,-1.111
68.6,-250.58,-1.191
68.64,-252.721,-1.054
68.67,-254.651,-0.928
68.7,-256.546,-0.985
68.74,-258.476,-0.985
68.77,-260.266,-0.905
68.8,-262.056,-0.916
68.83,-263.811,-0.939
68.87,-265.46,-0.779
68.9,-266.899,-0.664
68.93,-268.268,-0.676
68.96,-269.566,-0.745
69.0,-271.075,-0.779
69.03,-272.725,-0.882
69.06,-274.445,-0.894
69.09,-275.813,-0.596
69.13,-276.796,-0.412
69.16,-277.708,-0.481
69.19,-278.726,-0.573
69.22,-279.919,-0.607
69.26,-281.218,-0.768
69.29,-282.867,-0.951
69.32,-284.798,-1.008
69.35,-286.588,-0.882
69.39,-288.026,-0.687
69.42,-289.325,-0.584
69.45,-290.413,-0.515
69.48,-291.431,-0.504
69.52,-292.554,-0.596
69.55,-293.677,-0.607
69.58,-294.8,-0.55
69.61,-295.712,-0.389
69.65,-296.274,-0.252
69.68,-296.625,-0.137
69.71,-296.73,0.023
69.74,-296.765,0.046
69.78,-296.976,-0.206
69.81,-297.432,-0.321
69.84,-297.958,-0.263
69.87,-298.415,-0.206
69.91,-299.187,-0.47
69.94,-299.854,-0.355
69.97,-300.064,0.126
70.0,-300.064,0.011
70.04,-300.345,-0.309
70.07,-300.731,-0.229
70.1,-300.871,0.023
70.13,-300.801,0.08
70.17,-300.591,0.16
70.2,-299.889,0.493
70.23,-298.625,0.813
70.26,-297.256,0.756
70.3,-296.098,0.435
70.33,-295.572,0.137
70.36,-295.432,0.023
70.39,-295.361,0.034
70.43,-295.01,0.275
70.46,-294.203,0.573
70.49,-292.799,0.859
70.52,-291.115,0.939
70.56,-289.606,0.733
70.59,-288.412,0.47
70.62,-287.535,0.401
70.66,-286.517,0.607
70.69,-284.833,1.065
70.72,-282.411,1.443
70.75,-279.744,1.432
70.79,-277.533,0.974
70.82,-276.34,0.286
70.85,-276.445,-0.298
70.88,-277.217,-0.55
70.92,-278.024,-0.412
70.95,-278.2,0.16
70.98,-277.252,0.813
71.01,-275.322,1.203
71.05,-272.865,1.352
71.08,-270.303,1.375
71.11,-267.741,1.34
71.14,-265.39,1.1
71.18,-263.284,1.1
71.21,-260.828,1.398
71.24,-258.125,1.455
71.27,-255.634,1.214
71.31,-253.387,1.031
71.34,-251.492,0.928
71.37,-250.018,0.699
71.4,-248.895,0.493
71.44,-247.772,0.596
71.47,-246.298,0.894
71.5,-244.438,1.031
71.53,-242.473,1.077
71.57,-240.402,1.088
71.6,-238.086,1.26
71.63,-235.805,1.214
71.66,-234.015,0.733
71.7,-232.611,0.619
71.73,-231.067,0.962
71.76,-229.031,1.168
71.79,-226.82,1.146
71.83,-224.504,1.272
71.86,-221.907,1.386
71.89,-219.38,1.283
71.92,-216.994,1.168
71.96,-214.783,1.134
71.99,-212.537,1.191
72.02,-210.22,1.226
72.05,-207.799,1.26
72.09,-205.447,1.226
72.12,-203.342,1.008
72.15,-201.517,0.859
72.18,-199.832,0.882
72.22,-197.972,1.031
72.25,-195.691,1.306
72.28,-192.813,1.604
72.31,-189.619,1.764
72.35,-186.215,1.776
72.38,-183.162,1.501
72.41,-180.495,1.214
72.45,-178.143,1.168
72.48,-175.757,1.283
72.51,-173.195,1.409
72.54,-170.387,1.501
72.58,-167.299,1.65
72.61,-164.035,1.764
72.64,-161.122,1.42
72.67,-158.56,1.123
72.71,-155.647,1.753
72.74,-152.348,1.856
72.77,-148.874,1.695
72.8,-145.786,1.615
72.84,-142.802,1.398
72.87,-139.995,1.546
72.9,-137.012,1.524
72.93,-134.134,1.455
72.97,-131.186,1.558
73.0,-127.992,1.741
73.03,-124.518,1.879
73.06,-120.833,1.959
73.1,-117.043,1.959
73.13,-113.358,1.89
73.16,-109.743,1.821
73.19,-106.233,1.81
73.23,-102.689,1.833
73.26,-99.074,1.925
73.29,-95.143,2.119
73.32,-90.932,2.268
73.36,-86.615,2.257
73.39,-82.368,2.131
73.42,-78.368,2.039
73.45,-74.648,1.879
73.49,-71.278,1.65
73.52,-68.295,1.466
73.55,-65.453,1.455
73.58,-62.575,1.489
73.62,-59.627,1.592
73.65,-56.538,1.638
73.68,-53.275,1.707
73.71,-49.94,1.799
73.75,-46.361,1.913
73.78,-42.606,1.959
73.81,-38.815,1.982
73.84,-35.025,1.936
73.88,-31.235,1.982
73.91,-27.374,2.028
73.94,-23.479,2.039
73.97,-19.548,2.016
74.01,-15.652,2.028
74.04,-11.757,2.016
74.07,-7.826,2.028
74.1,-4.001,1.993
74.14,-0.211,1.947
74.17,3.474,1.833
74.2,6.984,1.776
74.24,10.248,1.65
74.27,13.406,1.558
74.3,16.425,1.592
74.33,19.618,1.718
74.37,22.847,1.695
74.4,26.041,1.615
74.43,29.375,1.764
74.46,32.954,1.959
74.5,36.745,1.993
74.53,40.605,2.005
74.56,44.571,2.051
74.59,48.502,2.062
74.63,52.362,2.028
74.66,56.258,1.959
74.69,59.978,1.925
74.72,63.593,1.902
74.76,67.278,1.89
74.79,70.857,1.821
74.82,74.297,1.741
74.85,77.56,1.661
74.89,80.754,1.627
74.92,83.737,1.592
74.95,86.931,1.638
74.98,90.195,1.764
75.02,93.704,1.856
75.05,97.424,1.947
75.08,101.18,1.982
75.11,104.9,1.959
75.15,108.655,1.936
75.18,112.375,1.902
75.21,115.99,1.856
75.24,119.464,1.81
75.28,122.903,1.73
75.31,126.237,1.707
75.34,129.677,1.833
75.37,133.011,1.695
75.41,136.169,1.546
75.44,139.223,1.615
75.47,142.451,1.73
75.5,145.68,1.684
75.54,149.049,1.73
75.57,152.383,1.856
75.6,155.682,1.627
75.63,158.736,1.478
75.67,161.543,1.432
75.7,164.211,1.409
75.73,166.843,1.294
75.76,169.44,1.375
75.8,172.247,1.558
75.83,175.336,1.65
75.86,178.459,1.604
75.89,181.407,1.501
75.93,184.145,1.352
75.96,186.636,1.272
75.99,189.233,1.409
76.03,192.181,1.627
76.06,195.515,1.833
76.09,199.025,1.833
76.12,202.359,1.684
76.16,205.237,1.352
76.19,207.378,0.951
76.22,208.957,0.676
76.25,210.326,0.664
76.29,211.729,0.813
76.32,213.519,0.951
76.35,215.414,1.042
76.38,217.52,1.157
76.42,219.556,1.031
76.45,221.346,0.813
76.48,222.925,0.802
76.51,224.609,0.985
76.55,226.715,1.168
76.58,228.996,1.272
76.61,231.488,1.283
76.64,233.875,1.237
76.68,235.91,0.951
76.71,237.489,0.699
76.74,238.893,0.733
76.77,240.472,0.882
76.81,242.297,1.008
76.84,244.438,1.157
76.87,246.825,1.306
76.9,249.281,1.34
76.94,251.527,1.077
76.97,253.352,0.802
77.0,254.897,0.756
77.03,256.371,0.779
77.07,257.915,0.768
77.1,259.424,0.813
77.13,261.108,0.951
77.16,262.968,0.997
77.2,264.618,0.813
77.23,266.057,0.664
77.26,267.461,0.768
77.29,269.075,0.916
77.33,270.865,0.962
77.36,272.795,1.042
77.39,274.76,0.997
77.42,276.27,0.664
77.46,277.287,0.367
77.49,278.024,0.378
77.52,278.937,0.538
77.55,280.025,0.642
77.59,281.393,0.745
77.62,283.008,0.928
77.65,284.868,1.02
77.68,286.658,0.916
77.72,288.167,0.642
77.75,289.149,0.458
77.78,290.027,0.435
77.82,290.939,0.481
77.85,291.887,0.55
77.88,293.115,0.664
77.91,294.308,0.653
77.95,295.432,0.538
77.98,296.239,0.344
78.01,296.73,0.172
78.04,296.906,0.034
78.08,296.941,0.023
78.11,297.221,0.206
78.14,297.853,0.47
78.17,298.66,0.435
78.21,299.467,0.344
78.24,299.959,0.252
78.27,300.626,0.47
78.3,301.012,0.367
78.34,301.257,-0.046
78.37,301.363,0.069
78.4,301.959,0.493
78.43,301.749,0.355
78.47,301.398,-0.263
78.5,300.52,-0.756
78.53,299.081,-0.79
78.56,297.748,-0.584
78.6,296.449,-0.687
78.63,295.572,-0.378
78.66,295.432,0.218
78.69,295.993,0.435
78.73,296.379,0.126
78.76,296.239,-0.263
78.79,295.326,-0.63
78.82,293.747,-0.962
78.86,291.711,-1.168
78.89,289.816,-0.916
78.92,288.342,-0.561
78.95,287.36,-0.435
78.99,286.377,-0.493
79.02,285.289,-0.619
79.05,283.92,-0.779
79.08,282.236,-0.951
79.12,280.411,-0.939
79.15,278.902,-0.642
79.18,277.849,-0.401
79.21,277.147,-0.321
79.25,276.48,-0.367
79.28,275.427,-0.596
79.31,273.988,-0.928
79.34,271.988,-1.111
79.38,269.847,-1.1
79.41,267.847,-1.008
79.44,265.916,-0.939
79.47,264.302,-0.756
79.51,262.793,-0.722
79.54,261.143,-0.951
79.57,259.143,-1.111
79.61,257.002,-1.054
79.64,255.107,-0.939
79.67,253.247,-0.985
79.7,251.282,-1.054
79.74,249.527,-0.79
79.77,247.913,-0.71
79.8,246.263,-0.974
79.83,244.193,-1.146
79.87,242.192,-0.974
79.9,240.332,-0.916
79.93,238.647,-0.859
79.96,237.033,-0.813
80.0,235.349,-0.882
80.03,233.664,-0.871
80.06,231.909,-0.939
80.09,229.839,-1.191
80.13,227.347,-1.352
80.16,224.82,-1.294
80.19,222.469,-1.168
80.22,220.222,-1.111
80.26,218.257,-0.985
80.29,216.327,-0.951
80.32,214.221,-1.157
80.35,211.8,-1.352
80.39,209.167,-1.352
80.42,206.676,-1.272
80.45,204.43,-1.111
80.48,202.359,-0.916
80.52,200.674,-0.813
80.55,198.955,-0.905
80.58,196.919,-1.168
80.61,194.392,-1.443
80.65,191.409,-1.65
80.68,188.075,-1.776
80.71,184.776,-1.661
80.74,182.004,-1.317
80.78,179.407,-1.191
80.81,176.915,-1.398
80.84,174.107,-1.501
80.87,171.23,-1.455
80.91,168.282,-1.604
80.94,165.018,-1.73
80.97,161.964,-1.524
81.0,158.771,-1.638
81.04,155.928,-1.443
81.07,153.296,-1.168
81.1,150.98,-1.237
81.13,148.418,-1.34
81.17,145.399,-1.753
81.2,141.96,-1.879
81.23,138.31,-1.867
81.26,134.766,-1.81
81.3,131.291,-1.787
81.33,127.817,-1.787
81.36,124.377,-1.753
81.4,121.043,-1.718
81.43,117.674,-1.718
81.46,114.34,-1.718
81.49,111.111,-1.65
81.53,107.883,-1.65
81.56,104.514,-1.787
81.59,100.899,-1.97
81.62,96.898,-2.177
81.66,92.476,-2.337
81.69,87.949,-2.371
81.72,83.421,-2.314
81.75,79.21,-2.062
81.79,75.49,-1.776
81.82,72.331,-1.524
81.85,69.489,-1.398
81.88,66.821,-1.352
81.92,64.084,-1.455
81.95,61.101,-1.581
81.98,57.837,-1.741
82.01,54.468,-1.776
82.05,50.993,-1.764
82.08,47.554,-1.787
82.11,43.974,-1.902
82.14,40.254,-1.959
82.18,36.464,-1.97
82.21,32.603,-1.959
82.24,28.848,-1.947
82.27,25.198,-1.833
82.31,21.654,-1.787
82.34,18.285,-1.718
82.37,14.915,-1.718
82.4,11.441,-1.81
82.44,7.721,-2.016
82.47,3.72,-2.177
82.5,-0.456,-2.142
82.53,-4.562,-2.062
82.57,-8.458,-2.005
82.6,-12.213,-1.902
82.63,-15.828,-1.799
82.66,-19.302,-1.799
82.7,-22.812,-1.787
82.73,-26.181,-1.764
82.76,-29.585,-1.684
82.79,-32.849,-1.718
82.83,-36.288,-1.81
82.86,-39.868,-1.833
82.89,-43.378,-1.821
82.92,-46.957,-1.844
82.96,-50.467,-1.833
82.99,-54.082,-1.799
83.02,-57.591,-1.833
83.05,-61.241,-1.913
83.09,-65.031,-1.97
83.12,-68.787,-1.959
83.15,-72.542,-1.925
83.18,-76.157,-1.81
83.22,-79.561,-1.73
83.25,-82.93,-1.695
83.28,-86.264,-1.741
83.32,-89.598,-1.741
83.35,-93.002,-1.753
83.38,-96.477,-1.799
83.41,-100.021,-1.913
83.45,-103.706,-1.925
83.48,-107.356,-1.81
83.51,-110.796,-1.718
83.54,-114.165,-1.764
83.58,-117.569,-1.787
83.61,-121.149,-1.81
83.64,-124.623,-1.833
83.67,-128.168,-1.844
83.71,-131.537,-1.684
83.74,-134.906,-1.695
83.77,-138.17,-1.707
83.8,-141.328,-1.581
83.84,-144.557,-1.707
83.87,-147.997,-1.81
83.9,-151.611,-1.902
83.93,-155.331,-1.959
83.97,-158.455,-1.455
84.0,-160.771,-0.859
84.03,-162.807,-1.157
84.06,-165.404,-1.478
84.1,-168.282,-1.501
84.13,-171.335,-1.627
84.16,-174.879,-2.028
84.19,-178.81,-2.039
84.23,-182.32,-1.695
84.26,-185.303,-1.375
84.29,-187.83,-1.237
84.32,-190.146,-1.157
84.36,-192.532,-1.237
84.39,-195.2,-1.478
84.42,-198.183,-1.627
84.45,-201.201,-1.524
84.49,-203.938,-1.352
84.52,-206.36,-1.134
84.55,-208.255,-0.894
84.58,-209.904,-0.745
84.62,-211.554,-0.882
84.65,-213.519,-1.123
84.68,-215.765,-1.237
84.71,-218.117,-1.203
84.75,-220.293,-1.088
84.78,-222.047,-0.825
84.81,-223.451,-0.596
84.84,-224.75,-0.653
84.88,-226.224,-0.848
84.91,-228.049,-1.008
84.94,-230.154,-1.168
84.97,-232.506,-1.249
85.01,-234.787,-1.157
85.04,-237.173,-1.249
85.07,-239.384,-1.077
85.11,-240.964,-0.642
85.14,-242.403,-0.722
85.17,-244.122,-1.031
85.2,-246.193,-1.134
85.24,-248.299,-1.054
85.27,-250.299,-0.997
85.3,-252.159,-0.894
85.33,-253.809,-0.813
85.37,-255.353,-0.768
85.4,-256.897,-0.859
85.43,-258.652,-0.939
85.46,-260.617,-1.042
85.5,-262.617,-1.077
85.53,-264.583,-0.939
85.56,-266.127,-0.733
85.59,-267.531,-0.653
85.63,-268.794,-0.642
85.66,-270.128,-0.699
85.69,-271.602,-0.79
85.72,-273.251,-0.905
85.76,-274.831,-0.779
85.79,-275.989,-0.447
85.82,-276.796,-0.344
85.85,-277.638,-0.47
85.89,-278.691,-0.607
85.92,-280.025,-0.756
85.95,-281.744,-0.962
85.98,-283.71,-1.088
86.02,-285.71,-1.02
86.05,-287.465,-0.79
86.08,-288.799,-0.596
86.11,-289.886,-0.493
86.15,-290.834,-0.47
86.18,-291.887,-0.55
86.21,-292.94,-0.619
86.24,-294.133,-0.607
86.28,-295.116,-0.47
86.31,-295.888,-0.286
86.34,-296.309,-0.149
86.37,-296.484,-0.023
86.41,-296.379,0.103
86.44,-296.484,-0.069
86.47,-296.835,-0.332
86.5,-297.502,-0.367
86.54,-298.064,-0.252
86.57,-298.73,-0.344
86.6,-299.608,-0.573
86.63,-300.134,-0.126
86.67,-300.204,0.126
86.7,-300.31,-0.16
86.73,-300.696,-0.355
86.76,-300.941,-0.115
86.8,-301.012,0.092
86.83,-300.766,0.183
86.86,-300.169,0.424
86.9,-298.976,0.768
86.93,-297.572,0.825
86.96,-296.379,0.481
86.99,-295.853,0.069
87.03,-295.888,-0.137
87.06,-296.133,-0.126
87.09,-296.098,0.137
87.12,-295.361,0.538
87.16,-293.993,0.894
87.19,-292.168,1.077
87.22,-290.273,0.928
87.25,-288.869,0.573
87.29,-287.956,0.344
87.32,-287.43,0.286
87.35,-286.588,0.481
87.38,-285.219,0.894
87.42,-283.253,1.18
87.45,-281.042,1.123
87.48,-279.358,0.722
87.51,-278.445,0.332
87.55,-277.989,0.092
87.58,-277.884,0.0
87.61,-277.568,0.241
87.64,-276.55,0.825
87.68,-274.585,1.191
87.71,-272.163,1.329
87.74,-269.742,1.283
87.77,-267.215,1.26
87.81,-265.144,1.042
87.84,-263.319,0.745
87.87,-261.565,0.939
87.9,-259.529,1.237
87.94,-257.248,1.18
87.97,-255.142,0.997
88.0,-253.247,0.997
88.03,-251.492,0.905
88.07,-250.159,0.504
88.1,-249.738,-0.046
88.13,-250.299,-0.561
88.16,-251.282,-0.504
88.2,-251.352,0.275
88.23,-249.667,1.386
88.26,-246.228,2.245
88.29,-241.631,2.566
88.33,-236.787,2.497
88.36,-232.365,2.188
88.39,-228.786,1.592
88.42,-226.61,0.802
88.46,-225.592,0.195
88.49,-225.452,-0.057
88.52,-225.487,-0.034
88.55,-225.276,0.172
88.59,-224.609,0.515
88.62,-223.065,0.974
88.65,-221.03,1.214
88.69,-218.854,1.123
88.72,-216.818,1.008
88.75,-214.783,1.065
88.78,-212.537,1.226
88.82,-209.975,1.443
88.85,-206.886,1.707
88.88,-203.236,2.051
88.91,-199.025,2.348
88.95,-194.673,2.234
88.98,-190.672,1.913
89.01,-187.198,1.695
89.04,-184.32,1.386
89.08,-182.144,0.894
89.11,-180.389,0.882
89.14,-178.143,1.34
89.17,-175.23,1.741
89.21,-171.861,1.799
89.24,-168.282,1.89
89.27,-164.526,2.028
89.3,-160.982,1.764
89.34,-158.315,1.088
89.37,-156.279,0.905
89.4,-154.208,1.214
89.43,-151.682,1.443
89.47,-148.804,1.524
89.5,-145.786,1.65
89.53,-142.627,1.65
89.56,-139.574,1.489
89.6,-136.871,1.363
89.63,-134.029,1.524
89.66,-130.589,1.993
89.69,-126.343,2.36
89.73,-121.745,2.474
89.76,-116.937,2.474
89.79,-112.375,2.383
89.82,-108.199,2.016
89.86,-104.865,1.489
89.89,-102.057,1.306
89.92,-99.249,1.535
89.95,-95.915,1.902
89.99,-91.985,2.119
90.02,-87.703,2.325
90.05,-83.035,2.497
90.08,-78.438,2.36
90.12,-74.332,1.97
90.15,-70.892,1.627
90.18,-67.769,1.592
90.21,-64.716,1.627
90.25,-61.662,1.546
90.28,-58.644,1.558
90.31,-55.45,1.707
90.34,-52.081,1.741
90.38,-48.853,1.65
90.41,-45.659,1.627
90.44,-42.255,1.89
90.48,-38.359,2.142
90.51,-34.218,2.199
90.54,-30.042,2.165
90.57,-25.865,2.165
90.61,-21.899,2.039
90.64,-18.25,1.764
90.67,-14.951,1.604
90.7,-11.652,1.787
90.74,-8.002,2.016
90.77,-4.141,1.947
90.8,-0.316,1.947
90.83,3.65,2.211
90.87,7.967,2.383
90.9,11.757,1.695
90.93,14.459,1.088
90.96,16.53,0.997
91.0,18.109,0.745
91.03,19.829,0.848
91.06,22.356,1.638
91.09,25.865,2.085
91.13,29.936,2.165
91.16,34.323,2.383
91.19,38.921,2.451
91.22,43.202,2.039
91.26,46.782,1.673
91.29,50.011,1.673
91.32,53.099,1.604
91.35,56.117,1.512
91.39,59.276,1.661
91.42,62.75,1.959
91.45,66.751,2.165
91.48,70.822,2.131
91.52,74.823,2.016
91.55,78.683,2.005
91.58,82.368,1.867
91.61,85.667,1.592
91.65,88.615,1.443
91.68,91.599,1.615
91.71,94.827,1.764
91.74,98.232,1.73
91.78,101.425,1.604
91.81,104.514,1.638
91.84,107.672,1.684
91.87,110.831,1.615
91.91,114.095,1.684
91.94,117.674,1.982
91.97,121.57,2.119
92.0,125.465,1.993
92.04,129.185,1.902
92.07,132.8,1.821
92.1,136.24,1.753
92.13,139.433,1.615
92.17,142.522,1.546
92.2,145.715,1.73
92.23,149.225,1.925
92.27,152.945,1.97
92.3,156.665,1.913
92.33,160.21,1.776
92.36,163.368,1.558
92.4,166.071,1.272
92.43,168.422,1.146
92.46,170.738,1.214
92.49,173.125,1.26
92.53,175.546,1.283
92.56,178.038,1.329
92.59,180.67,1.386
92.62,183.443,1.432
92.66,186.25,1.524
92.69,189.374,1.73
92.72,192.918,1.902
92.75,196.498,1.879
92.79,199.902,1.707
92.82,202.85,1.432
92.85,205.307,1.111
92.88,207.132,0.825
92.92,208.641,0.687
92.95,210.01,0.733
92.98,211.624,0.894
93.01,213.484,1.008
93.05,215.52,1.134
93.08,217.696,1.168
93.11,219.661,0.962
93.14,221.416,0.871
93.18,223.206,0.939
93.21,225.136,1.077
93.24,227.347,1.168
93.27,229.663,1.26
93.31,232.295,1.432
93.34,234.927,1.409
93.37,237.244,1.031
93.4,239.104,0.894
93.44,240.823,0.916
93.47,242.578,0.916
93.5,244.263,0.848
93.53,245.982,0.894
93.57,247.807,1.02
93.6,249.738,1.031
93.63,251.562,0.871
93.66,253.282,0.859
93.7,255.107,1.02
93.73,257.072,1.077
93.76,259.143,1.123
93.79,261.319,1.146
93.83,263.39,1.031
93.86,265.144,0.825
93.89,266.513,0.607
93.92,267.566,0.504
93.96,268.654,0.596
93.99,270.058,0.825
94.02,271.777,0.985
94.06,273.743,1.065
94.09,275.462,0.813
94.12,276.515,0.355
94.15,277.112,0.206
94.19,277.708,0.401
94.22,278.621,0.607
94.25,279.99,0.756
94.28,281.639,0.951
94.32,283.604,1.1
94.35,285.57,1.031
94.38,287.219,0.745
94.41,288.412,0.458
94.45,289.22,0.367
94.48,289.957,0.389
94.51,290.904,0.493
94.54,291.922,0.664
94.58,293.361,0.745
94.61,294.624,0.653
94.64,295.642,0.447
94.67,296.344,0.275
94.71,296.695,0.137
94.74,296.8,0.011
94.77,296.87,0.046
94.8,297.256,0.275
94.84,297.853,0.412
94.87,298.555,0.355
94.9,299.222,0.332
94.93,299.854,0.344
94.97,300.38,0.286
95.0,300.731,0.183
95.03,301.012,0.218
95.06,301.573,0.435
95.1,301.994,0.481
95.13,302.065,0.493
95.16,301.819,0.321
95.19,301.538,-0.137
95.23,300.836,-0.676
95.26,299.257,-0.928
95.29,297.713,-0.756
95.32,296.66,-0.355
95.36,296.309,-0.046
95.39,296.204,0.034
95.42,296.028,-0.172
95.45,295.291,-0.55
95.49,293.852,-0.894
95.52,291.922,-1.054
95.55,290.132,-0.916
95.58,288.799,-0.481
95.62,288.097,-0.206
95.65,287.605,-0.195
95.68,287.044,-0.378
95.71,285.921,-0.699
95.75,284.201,-1.077
95.78,281.955,-1.249
95.81,279.849,-1.02
95.84,278.27,-0.63
95.88,277.252,-0.389
95.91,276.55,-0.263
95.94,275.954,-0.321
95.98,274.971,-0.664
96.01,273.251,-1.008
96.04,271.251,-1.1
96.07,269.25,-1.031
96.11,267.215,-1.008
96.14,265.46,-0.894
96.17,263.881,-0.642
96.2,262.688,-0.573
96.24,261.354,-0.733
96.27,259.775,-0.916
96.3,258.02,-0.939
96.33,256.16,-0.928
96.37,254.265,-1.02
96.4,252.335,-1.008
96.43,250.475,-0.882
96.46,248.72,-0.894
96.5,246.754,-1.111
96.53,244.473,-1.226
96.56,242.368,-1.031
96.59,240.437,-0.882
96.63,238.718,-0.916
96.66,236.893,-0.939
96.69,234.998,-1.031
96.72,232.787,-1.18
96.76,230.33,-1.363
96.79,227.557,-1.466
96.82,224.715,-1.478
96.85,221.977,-1.352
96.89,219.731,-1.088
96.92,217.906,-0.825
96.95,216.362,-0.733
96.98,214.818,-0.79
97.02,213.028,-0.985
97.05,210.992,-1.146
97.08,208.711,-1.191
97.11,206.465,-1.134
97.15,204.395,-0.951
97.18,202.429,-1.02
97.21,200.113,-1.375
97.24,197.656,-1.214
97.28,195.41,-1.054
97.31,193.234,-1.111
97.34,190.602,-1.604
97.37,187.619,-1.615
97.41,184.917,-1.157
97.44,182.706,-1.111
97.47,180.319,-1.26
97.5,177.687,-1.466
97.54,174.879,-1.42
97.57,171.581,-1.844
97.6,167.615,-2.371
97.63,163.403,-2.051
97.67,159.859,-1.604
97.7,156.946,-1.363
97.73,154.559,-1.168
97.77,152.454,-1.02
97.8,150.348,-1.077
97.83,148.032,-1.272
97.86,145.154,-1.627
97.9,141.679,-2.005
97.93,137.608,-2.177
97.96,133.467,-2.142
97.99,129.501,-1.993
98.03,125.851,-1.81
98.06,122.412,-1.718
98.09,119.113,-1.673
98.12,115.849,-1.661
98.16,112.761,-1.581
98.19,109.848,-1.42
98.22,107.076,-1.432
98.25,104.092,-1.615
98.29,100.583,-1.913
98.32,96.477,-2.291
98.35,91.739,-2.623
98.38,86.545,-2.761
98.42,81.421,-2.589
98.45,76.859,-2.188
98.48,73.033,-1.741
98.51,70.015,-1.386
98.55,67.453,-1.226
98.58,64.996,-1.272
98.61,62.329,-1.455
98.64,59.346,-1.615
98.68,56.187,-1.707
98.71,52.818,-1.753
98.74,49.344,-1.787
98.77,45.869,-1.81
98.81,42.325,-1.867
98.84,38.605,-1.925
98.87,34.85,-1.982
98.9,30.989,-1.982
98.94,27.199,-1.97
98.97,23.373,-1.959
99.0,19.583,-1.959
99.03,15.793,-1.959
99.07,11.967,-1.97
99.1,8.177,-1.947
99.13,4.492,-1.867
99.16,1.123,-1.684
99.2,-2.0,-1.512
99.23,-4.878,-1.455
99.26,-7.651,-1.409
99.29,-10.388,-1.42
99.33,-13.371,-1.604
99.36,-16.811,-1.913
99.39,-20.706,-2.154
99.42,-25.128,-2.348
99.46,-29.796,-2.463
99.49,-34.569,-2.463
99.52,-39.131,-2.314
99.56,-43.483,-2.188
99.59,-47.765,-2.199
99.62,-51.836,-2.039
99.65,-55.45,-1.718
99.69,-58.574,-1.501
99.72,-61.557,-1.489
99.75,-64.575,-1.604
99.78,-67.699,-1.673
99.82,-70.927,-1.65
99.85,-74.051,-1.569
99.88,-76.999,-1.489
99.91,-79.877,-1.455
99.95,-82.719,-1.501
99.98,-85.808,-1.604
100.01,-89.177,-1.867
100.04,-93.037,-2.096
100.08,-97.144,-2.177
100.11,-101.215,-2.073
100.14,-105.04,-1.925
100.17,-108.374,-1.546
100.21,-111.462,-1.546
100.24,-114.621,-1.718
100.27,-118.166,-1.913
100.3,-121.815,-1.879
100.34,-125.536,-1.959
100.37,-129.431,-2.051
100.4,-133.151,-1.833
100.43,-136.626,-1.73
100.47,-139.96,-1.753
100.5,-143.259,-1.695
100.53,-146.487,-1.581
100.56,-149.681,-1.707
100.6,-152.84,-1.65
100.63,-155.647,-1.226
100.66,-157.964,-1.111
100.69,-160.35,-1.317
100.73,-163.087,-1.501
100.76,-166.246,-1.707
100.79,-169.861,-2.028
100.82,-173.792,-2.073
100.86,-177.512,-1.799
100.89,-180.635,-1.512
100.92,-183.372,-1.283
100.95,-185.654,-1.1
100.99,-187.689,-0.985
101.02,-189.865,-1.123
101.05,-192.392,-1.489
101.08,-195.515,-1.776
101.12,-198.955,-1.776
101.15,-202.148,-1.558
101.18,-204.886,-1.306
101.21,-207.167,-1.088
101.25,-209.027,-0.871
101.28,-210.677,-0.756
101.31,-212.326,-0.894
101.35,-214.186,-1.042
101.38,-216.187,-1.054
101.41,-218.117,-0.916
101.44,-219.801,-0.813
101.48,-221.381,-0.79
101.51,-222.995,-0.894
101.54,-224.925,-1.008
101.57,-226.961,-1.146
101.61,-229.312,-1.272
101.64,-231.839,-1.363
101.67,-234.366,-1.26
101.7,-236.612,-1.1
101.74,-238.577,-0.939
101.77,-240.367,-0.859
101.8,-241.982,-0.825
101.83,-243.526,-0.79
101.87,-245.105,-0.825
101.9,-246.719,-0.79
101.93,-248.474,-1.008
101.96,-250.685,-1.26
102.0,-253.001,-1.18
102.03,-255.037,-0.939
102.06,-256.862,-0.882
102.09,-258.652,-0.939
102.13,-260.371,-0.882
102.16,-262.056,-0.825
102.19,-263.6,-0.79
102.22,-264.969,-0.642
102.26,-266.022,-0.47
102.29,-267.039,-0.504
102.32,-268.163,-0.642
102.35,-269.672,-0.825
102.39,-271.391,-1.02
102.42,-273.532,-1.157
102.45,-275.392,-0.882
102.48,-276.62,-0.389
102.52,-277.357,-0.332
102.55,-278.27,-0.527
102.58,-279.393,-0.676
102.61,-280.867,-0.779
102.65,-282.587,-0.997
102.68,-284.657,-1.157
102.71,-286.623,-0.928
102.74,-288.097,-0.584
102.78,-289.149,-0.493
102.81,-290.132,-0.504
102.84,-291.08,-0.481
102.87,-292.027,-0.561
102.91,-293.291,-0.664
102.94,-294.519,-0.619
102.97,-295.396,-0.355
103.0,-295.888,-0.172
103.04,-296.169,-0.069
103.07,-296.204,0.046
103.1,-295.993,0.16
103.14,-296.169,-0.183
103.17,-296.73,-0.493
103.2,-297.502,-0.298
103.23,-297.923,-0.126
103.27,-298.45,-0.321
103.3,-298.906,-0.206
103.33,-299.503,-0.332
103.36,-300.31,-0.561
103.4,-301.012,-0.447
103.43,-301.608,-0.309
103.46,-301.819,-0.298
103.49,-301.643,-0.241
103.53,-301.222,0.298
103.56,-300.31,0.768
103.59,-298.73,0.905
103.62,-297.081,0.859
103.66,-295.782,0.596
103.69,-295.116,0.126
103.72,-295.116,-0.149
103.75,-295.326,-0.115
103.79,-295.291,0.206
103.82,-294.519,0.515
103.85,-293.256,0.813
103.88,-291.676,0.882
103.92,-290.167,0.71
103.95,-289.009,0.493
103.98,-288.097,0.435
104.01,-287.254,0.515
104.05,-285.851,0.825
104.08,-283.955,1.123
104.11,-281.779,1.237
104.14,-279.709,0.985
104.18,-278.27,0.538
104.21,-277.568,0.172
104.24,-277.393,0.011
104.27,-277.322,0.046
104.31,-276.726,0.504
104.34,-275.182,1.065
104.37,-272.9,1.352
104.4,-270.233,1.443
104.44,-267.461,1.432
104.47,-264.899,1.26
104.5,-262.758,0.985
104.53,-261.073,0.733
104.57,-259.494,0.882
104.6,-257.739,0.997
104.63,-256.195,0.687
104.66,-255.107,0.424
104.7,-254.405,0.355
104.73,-253.738,0.286
104.76,-252.966,0.458
104.79,-251.598,0.928
104.83,-249.422,1.306
104.86,-246.825,1.42
104.89,-243.631,1.764
104.93,-239.876,2.188
104.96,-236.191,1.81
104.99,-233.699,0.882
105.02,-232.646,0.172
105.06,-232.33,0.092
105.09,-231.979,0.298
105.12,-230.962,0.676
105.15,-229.102,1.18
105.19,-226.329,1.695
105.22,-222.784,2.005
105.25,-218.889,2.062
105.28,-215.028,1.936
105.32,-211.554,1.718
105.35,-208.466,1.535
105.38,-205.553,1.478
105.41,-202.71,1.443
105.45,-200.008,1.375
105.48,-197.762,1.031
105.51,-196.323,0.561
105.54,-195.691,0.069
105.58,-195.551,0.011
105.61,-195.164,0.344
105.64,-194.217,0.664
105.67,-192.427,1.077
105.71,-189.83,1.604
105.74,-186.601,1.764
105.77,-183.302,1.718
105.8,-180.074,1.65
105.84,-176.95,1.65
105.87,-173.862,1.524
105.9,-170.808,1.638
105.93,-167.334,1.879
105.97,-163.333,2.245
106.0,-159.297,2.062
106.03,-155.823,1.592
106.06,-153.226,1.157
106.1,-151.401,0.802
106.13,-149.681,0.882
106.16,-147.786,1.065
106.19,-145.47,1.306
106.23,-142.592,1.673
106.26,-139.153,1.947
106.29,-135.292,2.028
106.32,-131.502,1.993
106.36,-127.641,1.925
106.39,-123.921,1.993
106.42,-120.131,1.947
106.45,-116.551,1.776
106.49,-112.936,1.902
106.52,-109.286,1.947
106.55,-105.812,1.695
106.58,-102.478,1.695
106.62,-98.969,1.947
106.65,-95.213,2.028
106.68,-91.353,1.925
106.72,-87.563,1.97
106.75,-83.667,2.073
106.78,-79.736,2.062
106.81,-75.841,1.959
106.85,-72.226,1.799
106.88,-68.962,1.638
106.91,-65.874,1.569
106.94,-62.75,1.615
106.98,-59.697,1.592
107.01,-56.714,1.512
107.04,-53.625,1.615
107.07,-50.397,1.787
107.11,-46.887,1.833
107.14,-43.378,1.867
107.17,-39.552,2.028
107.2,-35.587,2.131
107.24,-31.551,2.073
107.27,-27.585,2.028
107.3,-23.724,2.005
107.33,-19.934,1.925
107.37,-16.319,1.833
107.4,-12.74,1.833
107.43,-8.949,2.051
107.46,-4.738,2.28
107.5,-0.386,2.325
107.53,3.931,2.165
107.56,7.826,1.913
107.59,11.195,1.615
107.63,13.722,1.146
107.66,15.196,0.435
107.69,15.968,0.241
107.72,17.056,0.722
107.76,18.916,1.26
107.79,21.724,1.615
107.82,25.444,2.154
107.85,30.287,2.841
107.89,36.324,3.391
107.92,43.062,3.608
107.95,49.695,3.379
107.98,55.626,2.864
108.02,60.68,2.429
108.05,64.891,1.913
108.08,67.979,1.352
108.11,70.331,1.077
108.15,72.437,1.088
108.18,74.612,1.157
108.21,76.929,1.237
108.24,79.456,1.375
108.28,82.263,1.535
108.31,85.387,1.673
108.34,88.931,1.982
108.37,92.897,2.199
108.41,96.968,2.051
108.44,100.793,1.936
108.47,104.408,1.821
108.5,107.707,1.65
108.54,110.796,1.512
108.57,113.779,1.592
108.6,116.972,1.695
108.64,120.412,1.856
108.67,124.097,2.005
108.7,128.098,2.142
108.73,131.853,1.879
108.77,135.292,1.627
108.8,138.731,1.925
108.83,142.522,2.005
108.86,146.452,2.096
108.9,149.786,1.524
108.93,152.91,1.524
108.96,155.928,1.695
108.99,158.841,1.409
109.03,160.982,0.882
109.06,162.737,0.836
109.09,164.667,1.18
109.12,167.159,1.409
109.16,170.247,1.73
109.19,173.651,1.89
109.22,177.266,1.89
109.25,180.811,1.764
109.29,184.039,1.638
109.32,187.163,1.569
109.35,190.146,1.569
109.38,193.129,1.535
109.42,196.112,1.512
109.45,198.92,1.443
109.48,201.587,1.306
109.51,203.938,1.157
109.55,206.079,1.077
109.58,208.29,1.168
109.61,210.431,1.134
109.64,212.326,0.871
109.68,213.905,0.768
109.71,215.45,0.802
109.74,216.783,0.676
109.77,217.941,0.55
109.81,219.135,0.653
109.84,220.609,0.848
109.87,222.433,1.031
109.9,224.644,1.272
109.94,227.277,1.432
109.97,230.119,1.535
110.0,233.173,1.627
110.03,235.98,1.398
110.07,238.226,0.962
110.1,239.911,0.768
110.13,241.315,0.687
110.16,242.648,0.676
110.2,243.982,0.676
110.23,245.842,1.157
110.26,248.579,1.718
110.29,251.633,1.604
110.33,253.879,0.871
110.36,255.212,0.401
110.39,256.09,0.493
110.43,257.037,0.481
110.46,257.95,0.458
110.49,259.108,0.699
110.52,261.108,1.306
110.56,263.705,1.478
110.59,266.267,1.249
110.62,268.443,1.031
110.65,270.198,0.836
110.69,271.497,0.573
110.72,272.585,0.481
110.75,273.637,0.607
110.78,274.76,0.596
110.82,275.533,0.332
110.85,276.27,0.321
110.88,277.112,0.538
110.91,278.305,0.722
110.95,279.849,0.871
110.98,281.709,1.042
111.01,283.85,1.214
111.04,286.026,1.1
111.08,287.675,0.71
111.11,288.834,0.47
111.14,289.746,0.458
111.17,290.623,0.435
111.21,291.501,0.504
111.24,292.589,0.63
111.27,293.712,0.63
111.3,294.8,0.504
111.34,295.642,0.389
111.37,296.309,0.309
111.4,296.73,0.195
111.43,297.081,0.115
111.47,297.397,0.229
111.5,297.643,0.069
111.53,298.169,0.367
111.56,299.117,0.687
111.6,300.204,0.493
111.63,301.047,0.515
111.66,301.433,0.286
111.69,301.608,-0.046
111.73,301.784,0.149
111.76,301.994,0.378
111.79,301.924,0.378
111.82,301.749,0.149
111.86,301.608,-0.126
111.89,301.012,-0.47
111.92,299.573,-0.916
111.95,297.853,-0.997
111.99,296.484,-0.493
112.02,295.888,-0.08
112.05,295.747,-0.034
112.08,295.572,-0.069
112.12,295.186,-0.309
112.15,294.203,-0.653
112.18,292.729,-0.905
112.22,290.869,-0.974
112.25,289.325,-0.699
112.28,288.307,-0.355
112.31,287.711,-0.229
112.35,287.009,-0.389
112.38,285.886,-0.676
112.41,284.306,-0.962
112.44,282.236,-1.168
112.48,279.955,-1.203
112.51,278.024,-0.905
112.54,276.656,-0.504
112.57,275.813,-0.321
112.61,275.182,-0.298
112.64,274.374,-0.458
112.67,273.146,-0.745
112.7,271.461,-1.008
112.74,269.426,-1.1
112.77,267.285,-1.1
112.8,265.179,-1.031
112.83,263.425,-0.882
112.87,261.81,-0.722
112.9,260.301,-0.779
112.93,258.617,-0.916
112.96,256.862,-0.951
113.0,255.002,-0.939
113.03,253.036,-0.997
113.06,251.176,-0.985
113.09,249.527,-0.756
113.13,248.65,-0.218
113.16,248.123,-0.137
113.19,247.211,-0.699
113.22,245.07,-1.443
113.26,242.087,-1.753
113.29,238.788,-1.684
113.32,235.629,-1.581
113.35,232.681,-1.455
113.39,230.19,-1.123
113.42,228.259,-0.916
113.45,226.434,-0.916
113.48,224.82,-0.779
113.52,223.416,-0.607
113.55,222.223,-0.596
113.58,221.03,-0.63
113.61,219.766,-0.664
113.65,218.398,-0.733
113.68,216.502,-1.1
113.71,214.081,-1.466
113.74,211.168,-1.569
113.78,208.15,-1.489
113.81,205.447,-1.317
113.84,203.271,-0.985
113.87,201.236,-0.951
113.91,199.376,-1.008
113.94,197.446,-0.985
113.97,195.164,-1.272
114.01,192.252,-1.707
114.04,188.882,-1.821
114.07,185.443,-1.753
114.1,182.144,-1.65
114.14,179.161,-1.443
114.17,176.353,-1.398
114.2,173.546,-1.501
114.23,170.844,-1.294
114.27,168.282,-1.249
114.3,165.404,-1.707
114.33,162.491,-1.455
114.36,159.859,-1.146
114.4,157.613,-1.191
114.43,155.226,-1.272
114.46,152.664,-1.34
114.49,150.032,-1.352
114.53,146.873,-1.81
114.56,143.259,-1.993
114.59,139.363,-2.016
114.62,135.538,-1.959
114.66,131.853,-1.867
114.69,128.273,-1.833
114.72,124.763,-1.799
114.75,121.289,-1.764
114.79,117.709,-1.89
114.82,113.989,-1.982
114.85,110.374,-1.73
114.88,107.321,-1.455
114.92,104.443,-1.478
114.95,101.39,-1.615
114.98,98.021,-1.867
115.01,93.95,-2.257
115.05,89.247,-2.577
115.08,84.264,-2.635
115.11,79.456,-2.406
115.14,75.174,-1.993
115.18,71.664,-1.638
115.21,68.822,-1.317
115.24,66.365,-1.18
115.27,64.049,-1.191
115.31,61.662,-1.294
115.34,58.925,-1.478
115.37,55.872,-1.65
115.4,52.502,-1.776
115.44,48.993,-1.867
115.47,45.413,-1.879
115.5,41.728,-1.925
115.53,37.833,-2.062
115.57,33.762,-2.165
115.6,29.691,-2.085
115.63,25.865,-1.89
115.66,22.25,-1.81
115.7,18.671,-1.867
115.73,14.986,-1.925
115.76,11.23,-1.959
115.8,7.37,-1.982
115.83,3.615,-1.925
115.86,-0.035,-1.867
115.89,-3.685,-1.89
115.93,-7.335,-1.902
115.96,-10.95,-1.821
115.99,-14.635,-1.959
116.02,-18.495,-2.039
116.06,-22.356,-1.97
116.09,-26.181,-1.947
116.12,-29.901,-1.947
116.15,-33.691,-1.936
116.19,-37.376,-1.925
116.22,-41.096,-1.867
116.25,-44.606,-1.787
116.28,-48.01,-1.684
116.32,-51.099,-1.569
116.35,-54.187,-1.569
116.38,-57.24,-1.546
116.41,-60.364,-1.627
116.45,-63.733,-1.821
116.48,-67.278,-1.879
116.51,-70.857,-1.799
116.54,-74.402,-1.81
116.58,-77.841,-1.799
116.61,-81.281,-1.73
