Trigger_Date,2023/06/26
Trigger_Time,T 10:12:04.484 PDT
Samples_Per_Cycle,512
Microseconds_Per_Sample,32.557
Time (ms),Voltage (V),Current (A)
-16.67,-4.913,-2.692
-16.64,-9.335,-2.28
-16.6,-13.091,-1.902
-16.57,-15.512,-1.684
-16.54,-17.548,-1.753
-16.51,-19.934,-1.97
-16.47,-22.25,-2.371
-16.44,-24.426,-3.07
-16.41,-27.62,-3.792
-16.38,-30.428,-4.399
-16.34,-33.621,-5.247
-16.31,-37.517,-6.037
-16.28,-42.325,-6.404
-16.25,-47.624,-6.369
-16.21,-51.52,-6.575
-16.18,-55.31,-6.736
-16.15,-58.82,-6.61
-16.12,-60.539,-7.045
-16.08,-62.961,-7.572
-16.05,-65.593,-7.939
-16.02,-67.207,-8.901
-15.99,-70.612,-9.806
-15.95,-74.016,-10.447
-15.92,-76.859,-11.49
-15.89,-81.105,-12.12
-15.86,-85.176,-12.624
-15.82,-88.51,-13.414
-15.79,-92.265,-13.907
-15.76,-96.021,-14.297
-15.72,-99.144,-14.812
-15.69,-101.811,-15.305
-15.66,-105.566,-15.751
-15.63,-108.83,-16.267
-15.59,-111.076,-17.103
-15.56,-115.428,-17.516
-15.53,-119.218,-17.882
-15.5,-121.149,-18.627
-15.46,-125.676,-18.569
-15.43,-129.01,-18.925
-15.4,-130.94,-19.91
-15.37,-135.818,-19.818
-15.33,-138.872,-20.208
-15.3,-141.083,-21.25
-15.27,-143.259,-21.536
-15.24,-145.119,-21.96
-15.2,-146.768,-22.968
-15.17,-149.12,-23.759
-15.14,-151.436,-24.492
-15.11,-153.963,-25.489
-15.07,-156.595,-26.451
-15.04,-160.175,-27.218
-15.01,-163.298,-27.791
-14.98,-165.895,-28.49
-14.94,-169.861,-28.685
-14.91,-172.493,-28.925
-14.88,-174.915,-29.418
-14.85,-178.494,-29.681
-14.81,-180.881,-30.151
-14.78,-183.372,-30.804
-14.75,-186.671,-30.987
-14.72,-188.531,-31.239
-14.68,-190.813,-31.583
-14.65,-193.515,-31.571
-14.62,-194.884,-31.732
-14.59,-197.095,-32.087
-14.55,-199.551,-32.27
-14.52,-200.815,-32.637
-14.49,-203.061,-32.877
-14.46,-205.272,-32.82
-14.42,-206.36,-33.061
-14.39,-208.22,-33.267
-14.36,-210.045,-33.336
-14.32,-211.308,-33.84
-14.29,-213.379,-34.412
-14.26,-215.45,-34.813
-14.23,-217.415,-35.34
-14.19,-219.801,-35.799
-14.16,-221.942,-36.131
-14.13,-224.153,-36.394
-14.1,-226.364,-36.692
-14.06,-228.47,-36.91
-14.03,-230.33,-37.013
-14.0,-232.05,-37.173
-13.97,-233.804,-37.368
-13.93,-235.349,-37.471
-13.9,-236.858,-37.643
-13.87,-238.261,-37.815
-13.84,-239.525,-37.929
-13.8,-241.104,-38.273
-13.77,-242.613,-38.708
-13.74,-244.298,-39.098
-13.71,-245.912,-39.384
-13.67,-247.527,-39.636
-13.64,-249.176,-39.751
-13.61,-250.545,-39.934
-13.58,-252.019,-40.209
-13.54,-253.703,-40.495
-13.51,-255.142,-40.793
-13.48,-256.721,-41.114
-13.45,-258.195,-41.343
-13.41,-259.669,-41.412
-13.38,-260.793,-41.412
-13.35,-261.705,-41.469
-13.32,-262.828,-41.538
-13.28,-263.986,-41.755
-13.25,-265.144,-42.294
-13.22,-266.583,-42.764
-13.19,-267.987,-42.993
-13.15,-269.215,-43.073
-13.12,-270.268,-43.084
-13.09,-271.497,-43.096
-13.06,-272.339,-43.245
-13.02,-273.497,-43.623
-12.99,-274.866,-43.84
-12.96,-275.813,-44.173
-12.93,-277.042,-44.379
-12.89,-278.2,-44.241
-12.86,-278.867,-44.253
-12.83,-279.639,-44.241
-12.79,-280.2,-44.001
-12.76,-280.481,-44.195
-12.73,-281.113,-44.104
-12.7,-281.604,-44.161
-12.66,-281.99,-44.608
-12.63,-282.692,-44.665
-12.6,-283.359,-44.585
-12.57,-283.289,-44.459
-12.53,-283.71,-44.39
-12.5,-284.026,-44.379
-12.47,-284.166,-44.677
-12.44,-284.412,-44.631
-12.4,-284.482,-44.367
-12.37,-284.201,-44.161
-12.34,-284.061,-43.875
-12.31,-283.464,-43.428
-12.27,-282.727,-43.222
-12.24,-282.376,-43.313
-12.21,-281.99,-43.508
-12.18,-281.674,-43.588
-12.14,-281.429,-43.508
-12.11,-281.007,-43.153
-12.08,-279.955,-42.786
-12.05,-279.288,-42.282
-12.01,-278.165,-41.87
-11.98,-276.866,-41.87
-11.95,-276.55,-41.801
-11.92,-275.217,-41.664
-11.88,-274.023,-41.469
-11.85,-273.216,-40.873
-11.82,-271.391,-40.232
-11.79,-269.672,-39.785
-11.75,-268.233,-39.315
-11.72,-266.302,-39.178
-11.69,-264.969,-39.224
-11.66,-263.811,-39.086
-11.62,-262.196,-39.018
-11.59,-261.038,-38.754
-11.56,-259.775,-38.193
-11.53,-257.774,-37.826
-11.49,-256.651,-37.551
-11.46,-255.283,-37.265
-11.43,-253.247,-37.196
-11.39,-252.335,-36.956
-11.36,-250.966,-36.589
-11.33,-248.895,-36.429
-11.3,-247.807,-35.902
-11.26,-246.017,-35.386
-11.23,-243.842,-35.352
-11.2,-242.824,-35.134
-11.17,-240.964,-34.699
-11.13,-239.069,-34.573
-11.1,-238.086,-34.378
-11.07,-235.98,-33.851
-11.04,-233.629,-33.37
-11.0,-232.471,-32.82
-10.97,-230.119,-32.625
-10.94,-227.979,-32.58
-10.91,-226.61,-31.961
-10.87,-224.118,-31.778
-10.84,-222.433,-31.755
-10.81,-220.924,-31.193
-10.78,-218.082,-30.884
-10.74,-216.257,-30.357
-10.71,-214.713,-29.968
-10.68,-212.396,-30.197
-10.65,-210.957,-30.117
-10.61,-209.413,-29.601
-10.58,-207.237,-29.532
-10.55,-205.833,-29.143
-10.52,-203.973,-28.387
-10.48,-201.271,-28.043
-10.45,-199.376,-27.608
-10.42,-197.13,-27.195
-10.39,-194.427,-27.138
-10.35,-192.497,-26.852
-10.32,-190.532,-26.508
-10.29,-188.11,-26.199
-10.26,-186.075,-25.557
-10.22,-183.583,-24.95
-10.19,-180.916,-24.595
-10.16,-178.74,-24.068
-10.13,-176.108,-23.77
-10.09,-173.616,-23.518
-10.06,-171.335,-22.911
-10.03,-168.492,-22.43
-9.99,-165.825,-21.972
-9.96,-163.193,-21.342
-9.93,-160.139,-20.78
-9.9,-157.472,-20.276
-9.86,-154.77,-20.162
-9.83,-151.787,-19.497
-9.8,-149.084,-18.569
-9.77,-145.996,-18.168
-9.73,-142.732,-17.79
-9.7,-140.451,-17.47
-9.67,-137.924,-16.954
-9.64,-134.766,-16.542
-9.6,-132.133,-16.072
-9.57,-129.887,-15.408
-9.54,-126.413,-15.041
-9.51,-123.465,-14.537
-9.47,-120.798,-13.678
-9.44,-116.692,-13.197
-9.41,-113.322,-12.876
-9.38,-110.585,-12.326
-9.34,-106.514,-12.109
-9.31,-103.426,-11.753
-9.28,-100.653,-10.952
-9.25,-96.582,-10.436
-9.21,-93.178,-9.932
-9.18,-89.879,-9.027
-9.15,-85.983,-8.431
-9.12,-82.333,-8.065
-9.08,-79.175,-7.549
-9.05,-75.981,-7.206
-9.02,-73.103,-6.942
-8.99,-70.261,-6.381
-8.95,-67.313,-5.613
-8.92,-63.908,-4.926
-8.89,-60.258,-4.319
-8.86,-56.433,-3.62
-8.82,-52.502,-2.933
-8.79,-48.396,-2.394
-8.76,-44.08,-2.073
-8.73,-40.71,-1.604
-8.69,-36.99,-1.1
-8.66,-33.411,-0.871
-8.63,-30.919,-0.389
-8.59,-27.795,0.206
-8.56,-24.496,0.745
-8.53,-21.935,1.546
-8.5,-18.39,2.245
-8.46,-14.108,2.623
-8.43,-9.125,2.887
-8.4,-3.825,2.978
-8.37,1.299,2.772
-8.33,5.931,2.451
-8.3,9.967,2.165
-8.27,13.406,1.787
-8.24,15.688,1.673
-8.2,17.899,1.879
-8.17,20.39,2.28
-8.14,23.303,2.704
-8.11,25.655,3.437
-8.07,28.848,4.227
-8.04,32.217,4.857
-8.01,35.832,5.682
-7.98,39.798,6.094
-7.94,43.974,6.266
-7.91,49.063,6.312
-7.88,52.643,6.449
-7.85,55.591,6.518
-7.81,58.82,6.461
-7.78,60.469,6.965
-7.75,62.294,7.687
-7.72,65.417,8.065
-7.68,67.383,9.073
-7.65,70.471,10.092
-7.62,74.542,10.447
-7.59,77.42,11.318
-7.55,81.07,12.235
-7.52,85.422,12.624
-7.49,88.756,13.369
-7.46,92.265,13.987
-7.42,96.021,14.342
-7.39,99.6,14.858
-7.36,102.092,15.408
-7.33,105.496,15.877
-7.29,109.602,16.324
-7.26,111.778,17.195
-7.23,115.358,17.71
-7.2,119.815,17.813
-7.16,121.921,18.615
-7.13,125.5,19.039
-7.1,129.852,18.799
-7.06,131.607,19.669
-7.03,135.292,20.059
-7.0,139.188,19.944
-6.97,141.223,20.964
-6.93,142.662,21.571
-6.9,144.908,21.903
-6.87,146.803,22.888
-6.84,148.944,23.839
-6.8,151.576,24.458
-6.77,154.208,25.454
-6.74,156.56,26.439
-6.71,159.789,27.115
-6.67,162.982,27.447
-6.64,164.983,27.803
-6.61,167.825,27.7
-6.58,170.071,27.562
-6.54,171.686,28.066
-6.51,174.529,28.65
-6.48,176.95,29.223
-6.45,179.231,30.128
-6.41,182.951,30.838
-6.38,185.864,31.491
-6.35,188.882,32.224
-6.32,192.427,32.58
-6.28,195.27,32.946
-6.25,198.253,33.381
-6.22,201.447,33.507
-6.19,203.763,33.565
-6.15,206.079,33.702
-6.12,208.15,33.588
-6.09,209.624,33.37
-6.06,210.887,33.37
-6.02,212.396,33.565
-5.99,213.66,33.886
-5.96,214.958,34.183
-5.93,216.573,34.458
-5.89,218.117,34.905
-5.86,219.907,35.26
-5.83,221.451,35.375
-5.8,223.135,35.627
-5.76,224.96,35.902
-5.73,226.575,36.326
-5.7,228.329,36.543
-5.66,230.119,36.818
-5.63,232.225,37.494
-5.6,234.225,37.815
-5.57,235.805,37.861
-5.53,237.735,38.044
-5.5,239.63,38.433
-5.47,241.35,38.8
-5.44,243.14,38.972
-5.4,244.93,39.212
-5.37,246.579,39.59
-5.34,248.334,39.819
-5.31,249.773,39.888
-5.27,250.861,39.751
-5.24,252.194,39.854
-5.21,253.598,40.301
-5.18,254.897,40.747
-5.14,256.406,40.942
-5.11,257.809,41.16
-5.08,259.003,41.412
-5.05,260.371,41.481
-5.01,261.565,41.469
-4.98,262.442,41.733
-4.95,263.881,41.973
-4.92,265.109,42.248
-4.88,266.373,42.855
-4.85,268.163,43.21
-4.82,269.426,43.233
-4.79,270.584,43.256
-4.75,271.812,43.279
-4.72,273.006,43.359
-4.69,273.953,43.691
-4.66,275.287,44.058
-4.62,276.585,44.253
-4.59,277.673,44.402
-4.56,278.586,44.322
-4.53,279.358,44.161
-4.49,279.849,44.069
-4.46,280.481,43.943
-4.43,280.832,44.047
-4.4,281.358,44.379
-4.36,282.06,44.448
-4.33,282.376,44.493
-4.3,282.867,44.493
-4.26,283.429,44.562
-4.23,284.026,44.78
-4.2,284.096,44.654
-4.17,284.657,44.619
-4.13,285.359,45.009
-4.1,285.57,44.963
-4.07,285.57,44.574
-4.04,285.57,44.31
-4.0,285.289,44.161
-3.97,284.798,43.691
-3.94,283.92,43.359
-3.91,283.534,43.52
-3.87,283.464,43.646
-3.84,282.481,43.646
-3.81,282.236,43.428
-3.78,281.815,42.924
-3.74,280.376,42.603
-3.71,279.463,42.191
-3.68,278.375,41.652
-3.65,276.831,41.618
-3.61,276.094,41.664
-3.58,274.936,41.412
-3.55,273.392,41.16
-3.52,272.444,40.713
-3.48,270.935,40.243
-3.45,269.145,39.945
-3.42,267.952,39.522
-3.39,266.338,39.35
-3.35,264.864,39.476
-3.32,264.162,39.247
-3.29,262.477,39.052
-3.26,261.284,38.892
-3.22,260.371,38.399
-3.19,258.406,38.09
-3.16,257.072,37.906
-3.13,256.195,37.494
-3.09,254.195,37.311
-3.06,252.721,37.208
-3.03,251.808,36.669
-3.0,249.422,36.222
-2.96,247.667,35.821
-2.93,246.158,35.088
-2.9,243.42,34.79
-2.86,241.631,34.527
-2.83,240.016,34.092
-2.8,237.489,34.023
-2.77,236.05,33.794
-2.73,234.401,33.404
-2.7,232.085,33.359
-2.67,230.891,33.141
-2.64,229.207,32.763
-2.6,227.066,32.717
-2.57,226.013,32.328
-2.54,224.048,31.812
-2.51,221.872,31.789
-2.47,220.679,31.342
-2.44,218.257,30.575
-2.41,216.151,30.678
-2.38,215.204,30.689
-2.34,213.414,30.426
-2.31,211.414,30.266
-2.28,210.466,30.094
-2.25,208.887,29.807
-2.21,206.746,29.349
-2.18,205.061,28.616
-2.15,202.78,28.009
-2.12,200.043,27.619
-2.08,197.832,27.218
-2.05,195.375,27.001
-2.02,192.953,26.863
-1.99,190.988,26.508
-1.95,188.567,26.107
-1.92,186.25,25.592
-1.89,183.899,25.088
-1.86,181.337,24.607
-1.82,178.951,24.171
-1.79,176.424,23.885
-1.76,174.072,23.53
-1.73,171.545,22.945
-1.69,168.773,22.419
-1.66,166.386,21.892
-1.63,163.474,21.284
-1.6,160.245,20.723
-1.56,157.718,20.242
-1.53,154.91,19.933
-1.5,151.787,19.578
-1.47,149.014,18.89
-1.43,146.558,18.249
-1.4,143.329,17.962
-1.37,139.925,17.229
-1.33,137.854,16.565
-1.3,134.801,16.278
-1.27,131.221,16.095
-1.24,129.536,15.385
-1.2,126.483,14.904
-1.17,122.833,14.72
-1.14,120.868,13.896
-1.11,117.253,13.197
-1.07,113.147,13.059
-1.04,110.971,12.464
-1.01,107.04,11.891
-0.98,103.11,11.73
-0.94,100.793,11.02
-0.91,96.793,10.333
-0.88,93.002,9.932
-0.85,90.054,9.153
-0.81,86.089,8.385
-0.78,82.333,7.973
-0.75,78.999,7.435
-0.72,75.56,6.839
-0.68,72.226,6.427
-0.65,68.892,6.037
-0.62,65.768,5.499
-0.59,62.68,4.949
-0.55,59.346,4.502
-0.52,56.223,4.124
-0.49,53.169,3.712
-0.46,50.081,3.253
-0.42,46.606,2.738
-0.39,43.413,2.165
-0.36,40.079,1.501
-0.33,35.973,1.02
-0.29,32.744,0.367
-0.26,29.445,-0.367
-0.23,25.584,-0.733
-0.2,22.707,-1.294
-0.16,19.548,-2.062
-0.13,15.372,-2.555
-0.1,10.458,-2.898
-0.07,4.984,-3.104
-0.03,-0.562,-3.001
0.0,-5.615,-2.623
0.03,-9.897,-2.188
0.07,-13.547,-1.902
0.1,-16.109,-1.902
0.13,-18.495,-2.073
0.16,-20.847,-2.325
0.2,-23.795,-2.623
0.23,-26.041,-3.276
0.26,-28.638,-4.158
0.29,-32.007,-4.72
0.33,-35.165,-5.132
0.36,-38.921,-5.522
0.39,-42.29,-6.049
0.42,-47.063,-6.255
0.46,-51.169,-6.22
0.49,-54.117,-6.644
0.52,-57.837,-6.885
0.55,-60.609,-7.068
0.59,-62.469,-7.824
0.62,-65.874,-8.328
0.65,-68.26,-8.89
0.68,-70.647,-9.921
0.72,-74.648,-10.447
0.75,-77.806,-11.146
0.78,-80.824,-12.086
0.81,-84.93,-12.555
0.85,-88.58,-13.208
0.88,-91.879,-13.941
0.91,-95.459,-14.319
0.94,-99.179,-14.697
0.98,-101.987,-15.247
1.01,-104.654,-15.912
1.04,-108.865,-16.29
1.07,-111.813,-16.931
1.11,-114.551,-17.848
1.14,-119.394,-18.042
1.17,-122.588,-18.443
1.2,-125.079,-19.154
1.24,-129.817,-19.016
1.27,-132.484,-19.474
1.3,-135.187,-20.334
1.33,-139.363,-20.609
1.37,-142.276,-20.964
1.4,-143.504,-21.72
1.43,-145.189,-21.972
1.47,-147.26,-22.441
1.5,-149.049,-23.931
1.53,-151.611,-24.79
1.56,-154.489,-25.5
1.6,-157.297,-26.497
1.63,-160.245,-27.539
1.66,-164.07,-28.089
1.69,-166.878,-28.501
1.73,-169.931,-28.925
1.76,-173.3,-29.074
1.79,-175.722,-29.349
1.82,-178.564,-29.899
1.86,-181.688,-30.277
1.89,-183.899,-30.735
1.92,-186.601,-31.079
1.95,-189.128,-31.216
1.99,-191.164,-31.445
2.02,-193.234,-31.594
2.05,-195.094,-31.663
2.08,-196.919,-31.984
2.12,-199.095,-32.396
2.15,-201.06,-32.648
2.18,-203.061,-32.728
2.21,-204.781,-32.82
2.25,-206.29,-32.923
2.28,-207.764,-33.107
2.31,-209.308,-33.37
2.34,-210.992,-33.782
2.38,-212.817,-34.309
2.41,-214.958,-34.768
2.44,-216.853,-35.249
2.47,-219.064,-35.638
2.51,-221.17,-35.821
2.54,-223.206,-36.005
2.57,-225.206,-36.348
2.6,-227.206,-36.704
2.64,-229.312,-37.001
2.67,-231.207,-37.242
2.7,-233.243,-37.666
2.73,-235.384,-38.113
2.77,-237.244,-38.158
2.8,-238.823,-38.193
2.83,-240.543,-38.388
2.86,-242.227,-38.617
2.9,-243.526,-38.834
2.93,-244.894,-38.857
2.96,-246.333,-38.995
3.0,-247.562,-39.384
3.03,-248.895,-39.556
3.06,-250.089,-39.671
3.09,-251.527,-40.026
3.13,-253.352,-40.461
3.16,-254.721,-40.828
3.19,-256.265,-41.206
3.22,-258.266,-41.412
3.26,-259.459,-41.515
3.29,-260.582,-41.618
3.32,-262.056,-41.458
3.35,-262.758,-41.515
3.39,-263.881,-42.007
3.42,-265.46,-42.237
3.45,-266.443,-42.695
3.48,-267.952,-43.142
3.52,-269.531,-42.993
3.55,-270.268,-43.073
3.58,-271.637,-43.176
3.61,-272.655,-43.119
3.65,-273.462,-43.565
3.68,-274.936,-43.852
3.71,-276.059,-43.978
3.74,-276.901,-44.184
3.78,-277.989,-44.138
3.81,-278.656,-43.955
3.84,-278.972,-43.989
3.87,-279.568,-43.852
3.91,-280.06,-43.909
3.94,-280.411,-44.31
3.97,-281.183,-44.459
4.0,-281.744,-44.39
4.04,-282.201,-44.665
4.07,-283.183,-44.848
4.1,-283.324,-44.528
4.13,-283.604,-44.47
4.17,-284.201,-44.608
4.2,-284.587,-44.757
4.23,-284.692,-44.711
4.26,-285.043,-44.505
4.3,-284.973,-44.322
4.33,-284.412,-44.104
4.36,-284.096,-43.565
4.4,-283.324,-43.256
4.43,-282.587,-43.405
4.46,-282.692,-43.462
4.49,-281.92,-43.417
4.53,-281.358,-43.439
4.56,-281.253,-43.004
4.59,-279.955,-42.557
4.62,-278.937,-42.225
4.66,-278.094,-41.813
4.69,-276.796,-41.744
4.72,-275.989,-41.767
4.75,-275.182,-41.549
4.79,-273.743,-41.309
4.82,-272.585,-40.954
4.85,-271.461,-40.289
4.88,-269.321,-39.865
4.92,-267.952,-39.579
4.95,-266.689,-39.304
4.98,-264.723,-39.396
5.01,-263.881,-39.384
5.05,-262.933,-39.075
5.08,-261.073,-38.914
5.11,-260.126,-38.456
5.14,-258.652,-37.906
5.18,-256.827,-37.723
5.21,-255.704,-37.505
5.24,-254.124,-37.185
5.27,-252.44,-37.036
5.31,-251.387,-36.749
5.34,-249.667,-36.291
5.37,-247.632,-35.925
5.4,-246.368,-35.386
5.44,-244.157,-34.985
5.47,-242.157,-34.859
5.5,-240.718,-34.493
5.53,-238.367,-34.126
5.57,-236.752,-33.92
5.6,-235.068,-33.588
5.63,-232.857,-33.324
5.66,-231.313,-33.003
5.7,-229.628,-32.728
5.73,-227.628,-32.545
5.76,-225.908,-32.247
5.8,-224.364,-31.915
5.83,-222.398,-31.686
5.86,-220.573,-31.354
5.89,-218.643,-30.953
5.93,-216.502,-30.403
5.96,-214.677,-30.174
5.99,-213.028,-30.14
6.02,-210.992,-29.945
6.06,-209.203,-29.59
6.09,-207.378,-29.326
6.12,-205.588,-28.925
6.15,-203.412,-28.352
6.19,-201.06,-27.974
6.22,-199.025,-27.608
6.25,-196.603,-27.379
6.28,-194.463,-27.207
6.32,-192.497,-26.966
6.35,-190.427,-26.737
6.38,-188.321,-26.268
6.41,-186.391,-25.649
6.45,-183.794,-25.145
6.48,-181.302,-24.561
6.51,-178.986,-24.034
6.54,-176.213,-23.896
6.58,-173.967,-23.427
6.61,-171.44,-22.762
6.64,-168.282,-22.338
6.67,-165.86,-21.754
6.71,-163.087,-21.147
6.74,-159.683,-20.689
6.77,-156.981,-20.185
6.8,-154.805,-19.875
6.84,-151.646,-19.612
6.87,-148.593,-19.108
6.9,-146.452,-18.329
6.93,-143.75,-17.745
6.97,-140.065,-17.687
7.0,-138.065,-16.931
7.03,-135.889,-16.21
7.06,-131.572,-16.187
7.1,-129.466,-15.408
7.13,-127.185,-14.423
7.16,-122.377,-14.4
7.2,-119.955,-13.896
7.23,-117.288,-12.83
7.26,-112.059,-12.819
7.29,-109.848,-12.693
7.33,-107.181,-11.914
7.36,-102.443,-11.811
7.39,-100.478,-11.364
7.42,-97.389,-10.356
7.46,-92.932,-9.966
7.49,-90.195,-9.302
7.52,-86.615,-8.42
7.55,-82.79,-7.893
7.59,-79.35,-7.332
7.62,-75.525,-6.747
7.65,-72.086,-6.243
7.68,-68.646,-5.785
7.72,-65.172,-5.407
7.75,-62.329,-4.857
7.78,-58.89,-4.399
7.81,-55.521,-3.987
7.85,-52.257,-3.379
7.88,-48.888,-2.738
7.91,-44.957,-2.303
7.94,-41.167,-1.833
7.98,-38.113,-1.042
8.01,-34.007,-0.619
8.04,-30.498,-0.298
8.07,-27.831,0.561
8.11,-24.04,1.134
8.14,-20.952,1.524
8.17,-17.899,2.051
8.2,-14.073,2.348
8.24,-9.686,2.543
8.27,-4.948,2.681
8.3,-0.316,2.623
8.33,4.247,2.44
8.37,8.318,2.257
8.4,12.213,2.039
8.43,15.337,2.051
8.46,18.144,2.36
8.5,20.847,2.681
8.53,24.005,2.956
8.56,26.707,3.265
8.59,28.708,3.964
8.63,31.937,4.571
8.66,35.025,5.247
8.69,39.166,5.648
8.73,42.676,5.923
8.76,46.887,6.369
8.79,51.59,6.427
8.82,54.538,6.61
8.86,57.907,6.919
8.89,61.241,7.148
8.92,62.926,7.79
8.95,65.804,8.408
8.99,68.927,8.89
9.02,70.998,9.898
9.05,74.402,10.562
9.08,78.052,11.043
9.12,80.965,12.086
9.15,84.755,12.75
9.18,88.861,13.197
9.21,92.16,13.941
9.25,95.494,14.468
9.28,99.249,14.778
9.31,102.548,15.293
9.34,105.145,16.026
9.38,108.9,16.588
9.41,112.621,16.954
9.44,115.182,17.642
9.47,119.078,18.157
9.51,123.044,18.421
9.54,125.711,19.073
9.57,129.396,19.245
9.6,133.151,19.429
9.64,135.748,20.15
9.67,138.416,20.483
9.7,142.101,20.689
9.73,143.188,21.433
9.77,144.276,22.235
9.8,147.189,22.613
9.83,149.084,23.759
9.86,151.541,24.755
9.9,154.033,25.443
9.93,156.911,26.497
9.96,160.104,27.333
9.99,163.123,27.894
10.03,166.071,28.158
10.06,169.019,28.261
10.09,171.475,28.478
10.13,174.072,28.868
10.16,176.88,29.372
10.19,179.442,30.082
10.22,182.565,30.655
10.26,185.408,31.193
10.29,188.075,31.72
10.32,191.093,31.961
10.35,193.515,32.167
10.39,195.866,32.499
10.42,198.604,32.728
10.45,200.92,32.9
10.48,202.921,33.118
10.52,205.237,33.152
10.55,206.676,33.003
10.58,207.764,32.923
10.61,209.624,32.843
10.65,210.501,33.152
10.68,211.8,33.748
10.71,213.73,33.966
10.74,214.783,34.435
10.78,216.924,35.088
10.81,219.31,35.26
10.84,220.433,35.524
10.87,222.609,35.948
10.91,225.101,36.177
10.94,226.505,36.704
10.97,228.751,36.979
11.0,231.102,37.036
11.04,232.751,37.757
11.07,234.927,38.055
11.1,236.858,37.838
11.13,238.156,38.044
11.17,240.332,38.479
11.2,242.017,38.617
11.23,242.754,38.777
11.26,244.894,39.006
11.3,246.684,39.315
11.33,247.562,39.705
11.36,249.316,39.739
11.39,251.036,39.831
11.43,252.019,40.381
11.46,253.949,40.667
11.49,255.493,40.736
11.53,256.757,41.183
11.56,258.827,41.503
11.59,259.95,41.549
11.62,261.038,41.584
11.66,262.407,41.503
11.69,263.39,41.607
11.72,264.372,42.099
11.75,266.092,42.386
11.79,267.145,42.741
11.82,268.584,43.21
11.85,270.128,43.153
11.88,271.005,43.13
11.92,272.058,43.325
11.95,273.427,43.359
11.98,274.199,43.577
12.01,275.427,44.035
12.05,276.796,44.15
12.08,277.533,44.322
12.11,278.621,44.299
12.14,279.358,44.058
12.18,279.674,43.966
12.21,280.165,43.84
12.24,280.411,43.932
12.27,280.867,44.344
12.31,281.499,44.516
12.34,282.095,44.482
12.37,282.411,44.574
12.4,283.183,44.757
12.44,284.061,44.791
12.47,284.026,44.917
12.5,284.903,45.009
12.53,285.394,44.848
12.57,285.219,44.722
12.6,285.464,44.47
12.63,285.429,44.253
12.66,284.833,44.127
12.7,284.377,43.669
12.73,283.604,43.165
12.76,282.727,43.21
12.79,282.446,43.336
12.83,281.779,43.279
12.86,281.007,43.21
12.89,280.727,42.901
12.93,279.779,42.5
12.96,278.481,42.237
12.99,277.814,41.801
13.02,276.41,41.629
13.06,275.462,41.755
13.09,274.866,41.503
13.12,273.392,41.194
13.15,272.163,40.862
13.19,270.97,40.358
13.22,269.321,39.831
13.25,267.566,39.522
13.28,266.338,39.361
13.32,264.758,39.338
13.35,263.53,39.293
13.38,262.547,39.029
13.41,261.038,38.766
13.45,259.775,38.399
13.48,258.441,37.918
13.51,256.792,37.643
13.54,255.423,37.483
13.58,254.019,37.196
13.61,252.264,36.956
13.64,251.001,36.612
13.67,249.316,36.188
13.71,247.421,35.695
13.74,245.667,35.169
13.77,243.877,34.848
13.8,241.736,34.596
13.84,239.806,34.435
13.87,238.332,34.286
13.9,236.542,34.092
13.93,234.752,33.782
13.97,233.138,33.29
14.0,231.383,32.992
14.03,229.523,32.923
14.06,228.224,32.66
14.1,226.399,32.316
14.13,224.399,32.121
14.16,223.241,31.869
14.19,221.1,31.48
14.23,218.713,30.941
14.26,217.661,30.632
14.29,215.485,30.655
14.32,213.484,30.552
14.36,212.396,29.968
14.39,210.291,29.819
14.42,208.536,29.647
14.46,206.851,28.834
14.49,203.903,28.261
14.52,201.692,27.883
14.55,199.867,27.23
14.59,196.638,27.081
14.62,194.182,27.069
14.65,192.778,26.68
14.68,189.97,26.6
14.72,187.9,26.29
14.75,186.391,25.534
14.78,183.478,25.351
14.81,181.407,24.904
14.85,179.723,24.206
14.88,176.634,24.16
14.91,174.493,23.736
14.94,172.388,22.831
14.98,168.808,22.441
15.01,166.281,21.754
15.04,163.614,20.918
15.07,160.034,20.528
15.11,156.946,20.139
15.14,154.665,19.669
15.17,151.962,19.337
15.2,148.312,18.89
15.24,146.031,18.26
15.27,144.206,17.779
15.3,139.925,17.447
15.33,137.468,16.943
15.37,136.134,16.095
15.4,131.502,16.061
15.43,128.835,15.74
15.46,128.027,14.549
15.5,122.868,14.4
15.53,119.85,14.113
15.56,118.095,12.761
15.59,112.164,12.555
15.63,109.216,12.635
15.66,107.356,11.708
15.69,101.917,11.662
15.72,99.741,11.513
15.76,97.284,10.39
15.79,92.546,9.943
15.82,90.089,9.279
15.86,86.194,8.248
15.89,82.193,7.79
15.92,79.07,7.286
15.95,75.069,6.839
15.99,72.015,6.301
16.02,68.752,5.705
16.05,64.961,5.396
16.08,62.154,4.914
16.12,58.925,4.33
16.15,55.415,4.067
16.18,52.608,3.746
16.21,49.87,3.219
16.25,46.361,2.715
16.28,42.886,2.314
16.31,40.149,1.695
16.34,36.499,1.077
16.38,32.744,0.607
16.41,29.971,-0.183
16.44,26.216,-0.825
16.47,22.777,-1.317
16.51,19.548,-2.154
16.54,15.091,-2.875
16.57,9.651,-3.116
16.6,3.966,-3.082
16.64,-1.369,-2.875
16.67,-6.177,-2.463
16.7,-9.897,-1.821
16.73,-12.95,-1.501
16.77,-15.231,-1.661
16.8,-17.477,-2.005
16.83,-20.004,-2.337
16.86,-22.777,-2.738
16.9,-25.865,-3.276
16.93,-28.252,-4.044
16.96,-31.48,-4.697
16.99,-34.744,-5.27
17.03,-39.026,-5.934
17.06,-43.483,-6.323
17.09,-47.835,-6.518
17.12,-52.397,-6.575
17.16,-55.696,-6.564
17.19,-58.328,-6.564
17.22,-60.89,-6.908
17.26,-62.856,-7.492
17.29,-64.716,-8.133
17.32,-67.558,-8.741
17.35,-70.226,-9.531
17.39,-72.963,-10.425
17.42,-76.718,-11.158
17.45,-80.438,-12.005
17.48,-84.088,-12.933
17.52,-88.545,-13.483
17.55,-92.441,-14.01
17.58,-95.74,-14.571
17.61,-99.214,-14.846
17.65,-102.548,-15.224
17.68,-105.496,-15.946
17.71,-108.69,-16.462
17.74,-111.954,-16.92
17.78,-115.674,-17.516
17.81,-118.657,-18.157
17.84,-122.237,-18.604
17.87,-126.237,-18.764
17.91,-128.905,-19.234
17.94,-132.133,-19.646
17.97,-136.45,-19.761
18.0,-137.994,-20.849
18.04,-141.679,-21.204
18.07,-144.206,-21.124
18.1,-144.417,-22.247
18.13,-147.295,-22.774
18.17,-149.014,-23.587
18.2,-151.506,-24.687
18.23,-153.787,-25.454
18.26,-156.56,-26.543
18.3,-160.385,-27.344
18.33,-163.017,-28.112
18.36,-166.562,-28.639
18.39,-170.317,-28.708
18.43,-172.493,-29.154
18.46,-175.616,-29.544
18.49,-179.056,-29.727
18.52,-181.056,-30.392
18.56,-184.145,-30.941
18.59,-187.198,-30.919
18.62,-188.672,-31.262
18.66,-191.444,-31.537
18.69,-193.62,-31.434
18.72,-194.533,-31.732
18.75,-197.446,-32.007
18.79,-199.481,-32.19
18.82,-200.569,-32.717
18.85,-203.447,-32.728
18.88,-204.956,-32.614
18.92,-205.798,-33.084
18.95,-208.22,-33.221
18.98,-209.764,-33.267
19.01,-210.747,-33.977
19.05,-213.519,-34.412
19.08,-215.344,-34.676
19.11,-216.748,-35.386
19.14,-220.012,-35.615
19.18,-221.416,-35.684
19.21,-222.96,-36.165
19.24,-226.083,-36.314
19.27,-227.382,-36.623
19.31,-229.066,-37.105
19.34,-231.769,-37.139
19.37,-233.067,-37.357
19.4,-234.576,-37.757
19.44,-236.998,-37.631
19.47,-237.735,-37.62
19.5,-239.174,-38.204
19.53,-241.736,-38.536
19.57,-242.789,-38.937
19.6,-244.473,-39.35
19.63,-246.79,-39.464
19.66,-247.948,-39.751
19.7,-249.246,-39.819
19.73,-251.212,-39.716
19.76,-251.984,-40.209
19.79,-253.914,-40.702
19.83,-255.634,-40.679
19.86,-256.371,-41.148
19.89,-258.511,-41.503
19.92,-260.02,-41.366
19.96,-260.477,-41.481
19.99,-261.986,-41.469
20.02,-263.004,-41.309
20.05,-263.67,-41.859
20.09,-265.215,-42.351
20.12,-266.653,-42.603
20.15,-267.776,-43.038
20.19,-269.426,-43.061
20.22,-270.338,-42.89
20.25,-271.181,-43.13
20.28,-272.444,-43.165
20.32,-273.357,-43.405
20.35,-274.374,-43.943
20.38,-275.883,-44.138
20.41,-276.761,-44.218
20.45,-277.638,-44.39
20.48,-278.867,-44.127
20.51,-279.218,-44.001
20.54,-279.568,-44.081
20.58,-280.341,-44.15
20.61,-280.937,-44.264
20.64,-281.323,-44.528
20.67,-282.06,-44.493
20.71,-282.552,-44.539
20.74,-283.218,-44.848
20.77,-283.569,-44.562
20.8,-283.675,-44.379
20.84,-284.166,-44.596
20.87,-284.833,-44.654
20.9,-284.622,-44.677
20.93,-284.868,-44.516
20.97,-284.868,-44.184
21.0,-284.201,-43.943
21.03,-283.64,-43.462
21.06,-283.008,-43.13
21.1,-282.376,-43.21
21.13,-281.955,-43.439
21.16,-281.604,-43.428
21.19,-281.042,-43.336
21.23,-280.621,-43.05
21.26,-279.849,-42.592
21.29,-278.726,-42.214
21.32,-277.708,-41.893
21.36,-276.796,-41.755
21.39,-275.813,-41.813
21.42,-274.971,-41.721
21.45,-273.918,-41.423
21.49,-272.69,-40.954
21.52,-271.426,-40.346
21.55,-269.672,-39.831
21.59,-267.987,-39.476
21.62,-266.513,-39.35
21.65,-265.285,-39.304
21.68,-263.67,-39.304
21.72,-262.688,-39.132
21.75,-261.459,-38.72
21.78,-259.669,-38.353
21.81,-258.546,-37.975
21.85,-257.143,-37.609
21.88,-255.388,-37.494
21.91,-254.124,-37.276
21.94,-252.791,-36.956
21.98,-251.141,-36.715
22.01,-249.492,-36.314
22.04,-247.772,-35.73
22.07,-245.772,-35.272
22.11,-243.877,-34.974
22.14,-242.297,-34.642
22.17,-240.192,-34.447
22.2,-238.261,-34.309
22.24,-237.068,-33.954
22.27,-234.752,-33.782
22.3,-233.278,-33.507
22.33,-231.804,-32.992
22.37,-229.382,-32.855
22.4,-228.014,-32.591
22.43,-226.399,-32.03
22.46,-223.907,-31.904
22.5,-222.644,-31.709
22.53,-220.784,-31.159
22.56,-218.047,-30.987
22.59,-216.853,-30.621
22.63,-214.853,-30.14
22.66,-212.08,-30.025
22.69,-210.712,-29.429
22.72,-208.887,-29.154
22.76,-206.325,-29.418
22.79,-205.272,-28.891
22.82,-202.991,-28.192
22.85,-200.253,-28.238
22.89,-199.376,-27.734
22.92,-196.814,-27.39
22.95,-194.006,-27.528
22.99,-193.304,-27.001
23.02,-191.023,-26.669
23.05,-188.04,-26.508
23.08,-187.198,-25.489
23.12,-184.039,-25.019
23.15,-180.951,-24.801
23.18,-179.723,-23.828
23.21,-176.424,-23.736
23.25,-173.476,-23.633
23.28,-171.826,-22.556
23.31,-168.317,-22.109
23.34,-165.088,-21.788
23.38,-162.912,-20.918
23.41,-159.789,-20.437
23.44,-156.384,-20.185
23.47,-154.173,-19.99
23.51,-151.857,-19.257
23.54,-148.242,-18.581
23.57,-145.013,-18.34
23.6,-143.785,-17.642
23.64,-140.591,-17.538
23.67,-136.836,-17.378
23.7,-135.959,-16.359
23.73,-132.941,-15.969
23.77,-128.659,-15.992
23.8,-127.922,-14.858
23.83,-124.237,-14.125
23.86,-119.254,-14.125
23.9,-117.92,-12.968
23.93,-113.252,-12.246
23.96,-108.409,-12.67
23.99,-107.216,-12.028
24.03,-102.829,-11.433
24.06,-99.074,-11.478
24.09,-97.424,-10.493
24.12,-92.862,-9.783
24.16,-89.774,-9.348
24.19,-86.72,-8.431
24.22,-82.228,-7.836
24.25,-78.999,-7.251
24.29,-75.174,-6.633
24.32,-71.489,-6.289
24.35,-68.646,-5.739
24.39,-64.856,-5.258
24.42,-61.592,-4.8
24.45,-58.609,-4.204
24.48,-54.994,-3.838
24.52,-51.52,-3.448
24.55,-48.431,-2.852
24.58,-45.062,-2.325
24.61,-41.096,-1.959
24.65,-37.973,-1.352
24.68,-34.779,-0.687
24.71,-30.989,-0.367
24.74,-28.252,0.115
24.78,-25.374,0.813
24.81,-22.11,1.306
24.84,-19.197,1.799
24.87,-15.617,2.314
24.91,-11.09,2.749
24.94,-5.896,2.99
24.97,-0.526,2.99
25.0,4.597,2.761
25.04,9.23,2.451
25.07,13.301,2.085
25.1,16.179,2.051
25.13,18.811,2.257
25.17,21.478,2.451
25.2,23.83,2.818
25.23,26.462,3.253
25.26,28.883,3.815
25.3,31.656,4.617
25.33,34.92,5.384
25.36,38.71,5.819
25.39,43.202,5.945
25.43,47.343,6.255
25.46,51.52,6.518
25.49,55.099,6.495
25.52,57.977,6.667
25.56,60.399,7.183
25.59,63.171,7.606
25.62,65.312,8.179
25.65,67.839,9.061
25.69,71.138,9.76
25.72,74.051,10.493
25.75,77.35,11.352
25.78,81.421,11.983
25.82,84.895,12.739
25.85,88.58,13.414
25.88,92.546,13.815
25.92,95.74,14.377
25.95,98.969,14.869
25.98,102.127,15.224
26.01,105.321,15.82
26.05,108.725,16.485
26.08,111.673,17.046
26.11,115.533,17.435
26.14,118.973,17.894
26.18,121.429,18.581
26.21,125.816,18.753
26.24,129.08,18.993
26.27,131.116,19.807
26.31,135.959,19.704
26.34,138.029,20.093
26.37,140.065,21.376
26.4,144.066,21.296
26.44,144.522,22.144
26.47,146.838,22.968
26.5,148.909,23.507
26.53,151.085,24.801
26.57,154.033,25.477
26.6,156.139,26.474
26.63,160.28,27.344
26.66,163.333,27.883
26.7,165.685,28.536
26.73,169.931,28.501
26.76,172.212,28.685
26.79,174.564,29.406
26.83,178.564,29.635
26.86,180.424,30.094
26.89,183.057,30.941
26.92,187.268,31.331
26.96,189.268,31.938
26.99,192.146,32.637
27.02,196.147,32.637
27.05,197.621,33.072
27.09,200.604,33.542
27.12,204.044,33.141
27.15,204.991,33.255
27.18,207.237,33.645
27.22,210.08,33.565
27.25,210.957,34.126
27.28,213.519,34.836
27.32,216.292,35.02
27.35,217.485,35.547
27.38,220.398,36.016
27.41,223.135,35.959
27.45,224.083,36.222
27.48,226.259,36.222
27.51,227.908,35.73
27.54,228.189,35.925
27.58,229.944,36.245
27.61,231.488,36.303
27.64,231.699,36.715
27.67,233.699,36.944
27.71,235.068,36.944
27.74,235.489,37.368
27.77,237.595,37.471
27.8,238.788,37.643
27.84,239.841,38.388
27.87,242.473,38.857
27.9,243.842,39.167
27.93,245.456,39.716
27.97,248.439,40.072
28.0,249.843,40.392
28.03,251.457,40.656
28.06,253.563,40.358
28.1,254.51,40.53
28.13,256.3,41.297
28.16,258.617,41.515
28.19,259.319,41.687
28.23,261.003,41.87
28.26,262.512,41.446
28.29,262.688,41.423
28.32,263.916,41.595
28.36,265.109,41.687
28.39,265.671,42.397
28.42,267.39,42.832
28.45,268.794,42.855
28.49,269.637,43.21
28.52,271.005,43.233
28.55,272.023,43.016
28.58,272.83,43.279
28.62,274.094,43.68
28.65,275.392,43.978
28.68,276.515,44.459
28.72,277.954,44.768
28.75,279.358,44.631
28.78,279.919,44.493
28.81,280.692,44.379
28.85,281.288,44.035
28.88,281.183,44.069
28.91,281.815,44.195
28.94,282.306,44.253
28.98,282.446,44.47
29.01,282.903,44.448
29.04,283.183,44.253
29.07,283.253,44.402
29.11,283.604,44.425
29.14,283.85,44.436
29.17,284.271,44.757
29.2,284.973,45.032
29.24,285.464,45.032
29.27,285.57,44.86
29.3,285.57,44.413
29.33,285.289,43.978
29.37,281.85,41.549
29.4,274.094,35.524
29.43,266.127,30.941
29.46,259.529,30.976
29.5,253.528,32.843
29.53,248.579,33.656
29.56,245.807,34.733
29.59,246.158,37.471
29.63,248.369,40.381
29.66,251.212,42.374
29.69,255.914,44.092
29.72,261.319,45.673
29.76,266.092,46.567
29.79,270.514,46.418
29.82,273.743,45.547
29.85,275.357,44.344
29.89,275.919,42.809
29.92,275.146,41.343
29.95,273.427,40.346
29.98,271.391,39.499
30.02,269.11,38.617
30.05,266.162,38.158
30.08,263.916,37.826
30.12,261.424,37.299
30.15,258.652,37.139
30.18,257.072,37.208
30.21,255.458,37.253
30.25,253.563,37.322
30.28,252.686,37.162
30.31,251.422,36.956
30.34,249.738,36.807
30.38,248.825,36.211
30.41,246.93,35.638
30.44,245.0,35.547
30.47,243.912,35.214
30.51,241.911,34.79
30.54,239.876,34.745
30.57,239.209,34.493
30.6,237.068,34.229
30.64,235.068,34.115
30.67,234.576,33.507
30.7,232.295,33.359
30.73,230.435,33.359
30.77,229.558,32.717
30.8,227.206,32.419
30.83,225.311,32.362
30.86,224.223,31.594
30.9,221.065,30.907
30.93,218.678,30.678
30.96,217.52,30.117
30.99,214.256,29.876
31.03,211.905,29.762
31.06,210.747,29.166
31.09,207.693,29.154
31.12,205.869,28.96
31.16,204.359,28.032
31.19,200.92,27.952
31.22,199.271,27.803
31.25,197.691,27.264
31.29,194.217,27.482
31.32,193.129,27.276
31.35,192.006,26.76
31.38,188.707,26.726
31.42,187.268,25.912
31.45,185.689,25.053
31.48,181.898,25.122
31.51,180.389,24.435
31.55,178.214,23.667
31.58,174.529,23.839
31.61,172.949,23.094
31.65,170.422,22.292
31.68,166.737,22.155
31.71,164.175,21.33
31.74,161.859,20.46
31.78,158.139,20.276
31.81,154.805,19.864
31.84,152.734,19.108
31.87,149.786,18.661
31.91,145.645,18.317
31.94,143.153,17.47
31.97,140.802,16.656
32.0,135.994,16.53
32.04,133.151,15.958
32.07,131.607,15.098
32.1,126.799,15.305
32.13,124.693,15.053
32.17,123.289,14.045
32.2,118.341,14.079
32.23,116.376,13.77
32.26,114.27,12.784
32.3,109.532,12.865
32.33,107.707,12.67
32.36,105.11,11.639
32.39,100.513,11.375
32.43,98.372,10.745
32.46,94.476,9.703
32.49,90.3,9.153
32.52,87.352,8.363
32.56,82.86,7.881
32.59,79.456,7.538
32.62,76.367,6.988
32.65,72.542,6.644
32.69,69.945,6.163
32.72,66.646,5.499
32.75,63.101,5.098
32.78,60.188,4.548
32.82,56.889,4.067
32.85,53.45,3.757
32.88,50.432,3.356
32.91,47.343,2.795
32.95,43.869,2.325
32.98,40.43,1.89
33.01,37.376,1.214
33.05,33.867,0.642
33.08,30.392,0.172
33.11,27.304,-0.596
33.14,23.759,-1.386
33.18,20.004,-2.142
33.21,15.723,-2.738
33.24,10.599,-3.001
33.27,4.948,-3.082
33.31,-0.526,-3.024
33.34,-5.615,-2.658
33.37,-9.827,-2.131
33.4,-13.196,-1.695
33.44,-15.442,-1.455
33.47,-17.162,-1.524
33.5,-19.232,-1.821
33.53,-21.548,-2.325
33.57,-24.075,-3.047
33.6,-27.199,-3.826
33.63,-30.428,-4.651
33.66,-33.797,-5.418
33.7,-37.482,-5.865
33.73,-42.255,-6.312
33.76,-47.519,-6.69
33.79,-52.011,-6.816
33.83,-55.907,-6.793
33.86,-59.557,-6.908
33.89,-61.768,-7.309
33.92,-64.154,-7.79
33.96,-66.962,-8.237
33.99,-68.436,-8.878
34.02,-71.033,-9.405
34.05,-74.121,-10.012
34.09,-76.578,-11.226
34.12,-80.333,-11.994
34.15,-84.369,-12.418
34.18,-87.773,-13.518
34.22,-92.02,-14.274
34.25,-95.775,-14.274
34.28,-98.969,-14.526
34.31,-101.741,-15.167
34.35,-104.724,-15.832
34.38,-108.479,-16.141
34.41,-110.76,-16.645
34.45,-114.059,-17.573
34.48,-118.762,-17.825
34.51,-120.728,-18.443
34.54,-124.307,-18.936
34.58,-129.185,-18.73
34.61,-130.379,-19.681
34.64,-134.485,-20.104
34.67,-138.837,-19.83
34.71,-139.433,-21.284
34.74,-143.68,-21.468
34.77,-145.224,-21.502
34.8,-146.277,-22.888
34.84,-148.558,-23.45
34.87,-150.067,-24.469
34.9,-153.471,-25.466
34.93,-155.753,-26.416
34.97,-159.192,-27.356
35.0,-163.228,-27.768
35.03,-165.369,-28.536
35.06,-169.44,-28.937
35.1,-172.844,-28.948
35.13,-174.634,-29.613
35.16,-178.74,-30.059
35.19,-181.723,-30.208
35.23,-183.337,-30.919
35.26,-187.022,-31.067
35.29,-189.268,-30.964
35.32,-190.427,-31.503
35.36,-193.655,-31.571
35.39,-195.235,-31.468
35.42,-196.358,-32.064
35.45,-199.551,-32.316
35.49,-201.025,-32.408
35.52,-202.359,-32.889
35.55,-205.307,-32.877
35.58,-206.36,-32.958
35.62,-207.518,-33.496
35.65,-210.361,-33.53
35.68,-211.343,-33.874
35.71,-213.028,-34.653
35.75,-216.151,-34.825
35.78,-217.415,-35.191
35.81,-219.485,-35.879
35.85,-222.504,-35.936
35.88,-223.837,-36.2
35.91,-226.048,-36.738
35.94,-228.786,-36.83
35.98,-230.014,-37.127
36.01,-232.155,-37.505
36.04,-234.541,-37.391
36.07,-235.103,-37.46
36.11,-236.858,-37.586
36.14,-238.718,-37.483
36.17,-239.034,-37.975
36.2,-241.034,-38.319
36.24,-242.824,-38.41
36.27,-243.456,-38.972
36.3,-245.631,-39.373
36.33,-247.667,-39.464
36.37,-248.615,-40.026
36.4,-250.931,-40.392
36.43,-252.44,-40.255
36.46,-253.633,-40.656
36.5,-255.774,-41.034
36.53,-257.248,-41.229
36.56,-258.336,-41.435
36.59,-260.126,-41.423
36.63,-261.108,-41.343
36.66,-261.67,-41.492
36.69,-262.898,-41.469
36.72,-263.846,-41.675
36.76,-264.864,-42.363
36.79,-266.548,-42.683
36.82,-267.741,-42.901
36.85,-268.97,-43.153
36.89,-270.268,-43.05
36.92,-271.216,-43.027
36.95,-272.198,-43.245
36.98,-273.392,-43.554
37.02,-274.585,-43.852
37.05,-275.778,-44.15
37.08,-276.971,-44.276
37.11,-277.989,-44.264
37.15,-278.902,-44.23
37.18,-279.533,-44.15
37.21,-279.99,-44.047
37.24,-280.481,-44.012
37.28,-280.867,-44.035
37.31,-281.288,-44.299
37.34,-281.779,-44.413
37.38,-282.306,-44.47
37.41,-282.938,-44.574
37.44,-283.394,-44.654
37.47,-283.675,-44.482
37.51,-283.815,-44.39
37.54,-284.131,-44.413
37.57,-284.236,-44.379
37.6,-284.236,-44.23
37.64,-283.92,-44.058
37.67,-283.71,-43.84
37.7,-283.148,-43.439
37.73,-282.376,-43.245
37.77,-282.13,-43.268
37.8,-281.779,-43.451
37.83,-281.429,-43.554
37.86,-281.253,-43.474
37.9,-280.762,-43.153
37.93,-279.884,-42.798
37.96,-279.218,-42.34
37.99,-278.059,-41.95
38.03,-277.042,-41.859
38.06,-276.305,-41.79
38.09,-275.182,-41.629
38.12,-274.059,-41.423
38.16,-273.181,-40.85
38.19,-271.181,-40.324
38.22,-269.742,-39.911
38.25,-268.303,-39.464
38.29,-266.443,-39.419
38.32,-265.215,-39.441
38.35,-264.056,-39.293
38.38,-262.653,-39.224
38.42,-261.635,-38.983
38.45,-260.477,-38.468
38.48,-258.687,-38.124
38.51,-257.318,-37.872
38.55,-256.23,-37.54
38.58,-254.37,-37.391
38.61,-253.036,-37.196
38.64,-251.878,-36.692
38.68,-249.597,-36.36
38.71,-248.123,-35.902
38.74,-246.614,-35.169
38.78,-243.806,-34.905
38.81,-242.227,-34.699
38.84,-240.788,-34.195
38.87,-237.981,-34.183
38.91,-236.963,-34.195
38.94,-235.524,-33.748
38.97,-232.927,-33.565
39.0,-232.295,-33.542
39.04,-230.997,-33.107
39.07,-228.119,-32.9
39.1,-227.242,-32.305
39.13,-225.487,-31.652
39.17,-222.258,-31.64
39.2,-221.24,-31.067
39.23,-218.924,-30.323
39.26,-215.66,-30.437
39.3,-214.818,-30.059
39.33,-212.431,-29.509
39.36,-208.992,-29.464
39.39,-208.711,-29.005
39.43,-206.5,-28.891
39.46,-203.271,-29.051
39.49,-203.201,-28.238
39.52,-200.043,-27.688
39.56,-197.165,-28.043
39.59,-197.2,-27.665
39.62,-194.427,-27.711
39.65,-192.322,-27.78
39.69,-192.322,-26.875
39.72,-189.233,-26.577
39.75,-186.671,-26.061
39.78,-185.619,-24.859
39.82,-181.828,-24.572
39.85,-179.021,-24.217
39.88,-177.441,-23.392
39.91,-174.002,-23.346
39.95,-171.089,-22.945
39.98,-169.054,-21.972
40.01,-165.649,-21.72
40.04,-162.526,-21.284
40.08,-160.104,-20.379
40.11,-157.086,-20.116
40.14,-154.033,-20.173
40.18,-151.576,-19.429
40.21,-149.4,-18.821
40.24,-146.066,-18.535
40.27,-142.978,-18.02
40.31,-141.399,-17.183
40.34,-137.784,-16.794
40.37,-133.923,-16.473
40.4,-132.625,-15.511
40.44,-129.01,-15.202
40.47,-125.009,-15.236
40.5,-123.816,-14.125
40.53,-119.534,-13.495
40.57,-115.428,-13.506
40.6,-113.673,-12.647
40.63,-109.251,-12.257
40.66,-105.777,-12.498
40.7,-104.128,-11.765
40.73,-100.127,-11.249
40.76,-97.214,-10.883
40.79,-94.371,-9.863
40.83,-89.984,-9.107
40.86,-86.861,-8.431
40.89,-82.684,-7.755
40.92,-78.683,-7.366
40.96,-75.7,-6.736
40.99,-71.7,-6.301
41.02,-68.436,-5.865
41.05,-65.312,-5.132
41.09,-61.487,-4.639
41.12,-58.153,-4.284
41.15,-54.959,-3.803
41.18,-51.485,-3.391
41.22,-48.221,-3.036
41.25,-45.132,-2.612
41.28,-41.974,-2.085
41.31,-38.499,-1.569
41.35,-35.306,-1.054
41.38,-32.323,-0.435
41.41,-28.954,0.069
41.44,-25.83,0.619
41.48,-22.952,1.306
41.51,-19.794,1.913
41.54,-16.003,2.348
41.57,-11.301,2.933
41.61,-5.615,3.311
41.64,0.316,3.265
41.67,5.791,2.875
41.71,10.529,2.406
41.74,14.214,1.925
41.77,16.635,1.776
41.8,18.741,1.902
41.84,20.952,2.051
41.87,23.268,2.383
41.9,25.304,3.047
41.93,28.041,3.872
41.97,31.305,4.674
42.0,34.85,5.51
42.03,38.956,6.163
42.06,43.553,6.61
42.1,48.888,6.805
42.13,53.415,6.507
42.16,56.363,6.346
42.19,59.276,6.484
42.23,61.101,6.759
42.26,62.294,7.366
42.29,64.961,7.881
42.32,66.962,8.718
42.36,69.418,9.817
42.39,73.524,10.356
42.42,76.648,11.169
42.45,79.982,12.2
42.49,84.65,12.624
42.52,88.229,13.357
42.55,91.809,14.056
42.58,95.564,14.331
42.62,99.039,14.789
42.65,102.092,15.293
42.68,104.794,15.843
42.71,108.865,16.381
42.75,112.024,16.908
42.78,114.235,17.802
42.81,119.464,17.848
42.84,122.237,18.283
42.88,124.132,19.257
42.91,129.852,18.89
42.94,132.098,19.417
42.97,134.064,20.471
43.01,140.17,20.013
43.04,141.013,21.021
43.07,143.645,21.834
43.11,145.926,21.399
43.14,146.452,22.888
43.17,148.839,23.736
43.2,150.032,24.526
43.24,153.647,25.638
43.27,156.525,26.577
43.3,159.262,27.688
43.33,164.211,28.066
43.37,166.457,28.524
43.4,169.334,29.12
43.43,173.756,28.845
43.46,175.476,29.429
43.5,178.915,30.667
43.53,183.337,31.067
43.56,185.408,31.686
43.59,188.988,32.442
43.63,193.199,32.431
43.66,194.498,32.66
43.69,197.446,32.763
43.72,200.499,32.202
43.76,200.85,32.282
43.79,202.85,32.385
43.82,204.675,31.858
43.85,204.395,31.984
43.89,205.693,32.053
43.92,206.641,31.56
43.95,205.728,31.789
43.98,207.307,32.076
44.02,208.536,32.213
44.05,208.43,33.141
44.08,211.028,33.782
44.11,212.993,34.126
44.15,214.186,35.088
44.18,217.555,35.581
44.21,219.872,35.89
44.24,221.872,36.646
44.28,225.346,37.001
44.31,227.522,37.173
44.34,229.593,37.643
44.37,232.751,37.849
44.41,234.471,37.952
44.44,236.086,38.136
44.47,238.858,38.33
44.51,240.332,38.628
44.54,241.771,38.903
44.57,243.947,38.8
44.6,245.175,39.063
44.64,246.719,39.59
44.67,248.755,39.625
44.7,249.702,39.751
44.73,250.966,39.934
44.77,252.721,39.991
44.8,253.738,40.392
44.83,255.177,40.816
44.86,256.757,40.919
44.9,257.915,41.206
44.93,259.354,41.561
44.96,260.933,41.572
44.99,261.74,41.618
45.03,262.863,41.836
45.06,264.372,41.881
45.09,265.285,42.271
45.12,266.618,42.878
45.16,268.443,43.142
45.19,269.637,43.279
45.22,270.935,43.462
45.25,272.374,43.382
45.29,273.286,43.508
45.32,274.304,43.714
45.35,275.568,43.84
45.38,276.48,44.024
45.42,277.428,44.218
45.45,278.481,44.173
45.48,279.007,44.207
45.51,279.744,44.184
45.55,280.13,44.047
45.58,280.446,44.115
45.61,281.148,44.299
45.64,281.604,44.31
45.68,281.92,44.379
45.71,282.271,44.47
45.74,282.832,44.413
45.77,283.429,44.711
45.81,283.78,44.929
45.84,284.447,44.871
45.87,284.938,44.86
45.91,285.254,44.997
45.94,285.464,44.665
45.97,284.587,43.714
46.0,283.113,42.603
46.04,281.464,41.733
46.07,279.323,41.263
46.1,277.708,41.286
46.13,276.691,41.629
46.17,275.743,42.294
46.2,276.024,42.832
46.23,276.445,43.153
46.26,276.656,43.623
46.3,277.708,43.875
46.33,278.445,43.921
46.36,279.042,44.15
46.39,279.99,44.195
46.43,280.341,43.84
46.46,279.779,43.302
46.49,279.358,42.443
46.52,277.989,41.423
46.56,275.533,40.53
46.59,273.357,39.682
46.62,271.146,39.041
46.65,268.233,38.892
46.69,266.302,38.582
46.72,264.056,38.09
46.75,261.319,37.964
46.78,259.845,37.631
46.82,257.774,37.276
46.85,255.423,37.322
46.88,254.51,37.208
46.91,253.001,36.956
46.95,251.001,37.105
46.98,250.826,36.852
47.01,248.965,36.474
47.04,247.0,36.326
47.08,246.509,35.627
47.11,244.298,35.1
47.14,241.806,34.974
47.17,240.858,34.138
47.21,238.332,33.771
47.24,235.91,34.046
47.27,235.243,33.416
47.3,232.295,32.832
47.34,230.154,32.992
47.37,229.628,32.637
47.4,226.68,32.362
47.44,224.855,32.339
47.47,224.364,31.675
47.5,221.31,31.56
47.53,219.626,31.549
47.57,218.959,30.701
47.6,215.555,30.506
47.63,214.221,30.483
47.66,213.203,29.807
47.7,209.869,29.819
47.73,208.676,29.67
47.76,207.799,29.04
47.79,204.324,28.948
47.83,203.236,28.513
47.86,201.762,27.837
47.89,197.867,27.791
47.92,196.919,27.505
47.96,195.515,27.47
47.99,192.462,27.745
48.02,191.479,26.795
48.05,189.69,26.13
48.09,186.566,26.256
48.12,185.233,25.397
48.15,182.425,24.251
48.18,178.986,24.309
48.22,177.652,23.999
48.25,174.879,23.495
48.28,171.265,22.957
48.31,169.405,22.063
48.35,166.632,21.708
48.38,162.912,21.456
48.41,160.139,20.208
48.44,157.437,19.875
48.48,154.349,19.807
48.51,151.225,19.589
48.54,149.12,19.131
48.57,146.838,18.638
48.61,143.294,18.363
48.64,141.188,17.733
48.67,139.258,17.0
48.7,135.257,16.817
48.74,132.8,16.255
48.77,131.116,15.362
48.8,126.729,15.167
48.84,124.167,14.697
48.87,121.71,13.655
48.9,116.867,13.403
48.93,114.095,12.956
48.97,111.006,12.166
49.0,106.514,12.131
49.03,103.741,11.799
49.06,100.583,10.906
49.1,96.477,10.482
49.13,93.388,9.978
49.16,89.598,9.256
49.19,86.299,8.42
49.23,82.614,7.778
49.26,78.473,7.538
49.29,75.735,6.942
49.32,72.226,6.369
49.36,68.752,6.106
49.39,66.119,5.522
49.42,62.785,4.892
49.45,59.311,4.445
49.49,56.293,3.998
49.52,52.959,3.563
49.55,49.59,3.196
49.58,46.361,2.749
49.62,43.343,2.36
49.65,40.395,2.005
49.68,37.025,1.558
49.71,34.183,0.882
49.75,31.059,0.126
49.78,27.374,-0.458
49.81,24.075,-1.249
49.84,20.601,-2.303
49.88,15.758,-3.059
49.91,9.827,-3.448
49.94,3.264,-3.643
49.97,-3.194,-3.414
50.01,-8.739,-2.772
50.04,-12.985,-1.97
50.07,-15.372,-1.455
50.1,-16.986,-1.226
50.14,-18.425,-1.272
50.17,-19.934,-1.718
50.2,-22.356,-2.314
50.24,-24.847,-3.013
50.27,-27.374,-4.021
50.3,-30.989,-4.834
50.33,-34.85,-5.533
50.37,-39.552,-6.129
50.4,-43.729,-6.564
50.43,-48.431,-6.724
50.46,-53.52,-6.61
50.5,-56.609,-6.828
50.53,-59.662,-7.08
50.56,-62.82,-6.988
50.59,-63.557,-7.687
50.63,-66.119,-8.397
50.66,-69.173,-8.763
50.69,-70.541,-9.817
50.72,-73.946,-10.482
50.76,-77.42,-10.688
50.79,-79.491,-11.673
50.82,-83.421,-12.441
50.85,-87.527,-13.014
50.89,-90.756,-13.953
50.92,-94.722,-14.571
50.95,-98.688,-15.018
50.98,-102.443,-15.373
51.02,-104.584,-15.763
51.05,-107.953,-16.141
51.08,-112.059,-16.496
51.11,-113.533,-17.733
51.15,-118.025,-18.329
51.18,-123.009,-18.123
51.21,-124.167,-19.383
51.24,-128.975,-19.555
51.28,-133.818,-19.085
51.31,-134.415,-20.631
51.34,-139.749,-20.609
51.37,-142.978,-20.414
51.41,-143.434,-21.892
51.44,-145.786,-21.72
51.47,-146.452,-22.43
51.5,-148.804,-23.873
51.54,-150.418,-24.71
51.57,-153.261,-25.821
51.6,-157.437,-26.669
51.64,-159.438,-27.78
51.67,-163.895,-28.33
51.7,-167.685,-28.352
51.73,-169.51,-29.166
51.77,-173.756,-29.395
51.8,-176.669,-29.166
51.83,-178.178,-29.956
51.86,-182.214,-30.414
51.9,-184.566,-30.483
51.93,-185.899,-31.09
51.96,-189.549,-31.125
51.99,-191.269,-31.09
52.03,-192.427,-31.732
52.06,-195.515,-31.72
52.09,-197.025,-31.789
52.12,-198.463,-32.534
52.16,-201.692,-32.671
52.19,-203.026,-32.66
52.22,-204.324,-33.084
52.25,-207.097,-33.015
52.29,-207.939,-33.129
52.32,-209.238,-33.645
52.35,-211.975,-33.759
52.38,-212.852,-34.218
52.42,-214.818,-34.882
52.45,-217.625,-34.939
52.48,-218.503,-35.272
52.51,-220.714,-35.695
52.55,-223.206,-35.684
52.58,-224.118,-36.142
52.61,-226.575,-36.589
52.64,-228.891,-36.715
52.68,-230.225,-37.276
52.71,-232.681,-37.769
52.74,-234.927,-37.883
52.77,-236.366,-38.124
52.81,-238.367,-38.17
52.84,-240.227,-38.284
52.87,-241.631,-38.777
52.9,-243.491,-39.098
52.94,-245.175,-39.178
52.97,-246.544,-39.522
53.0,-248.369,-39.751
53.03,-249.773,-39.659
53.07,-250.755,-39.865
53.1,-252.475,-40.289
53.13,-254.089,-40.644
53.17,-255.423,-41.091
53.2,-257.213,-41.458
53.23,-259.003,-41.618
53.26,-260.161,-41.687
53.3,-261.108,-41.343
53.33,-262.091,-41.08
53.36,-262.793,-41.366
53.39,-263.811,-41.79
53.43,-264.934,-42.042
53.46,-266.057,-42.569
53.49,-267.566,-42.958
53.52,-268.689,-43.061
53.56,-269.952,-43.073
53.59,-271.111,-43.038
53.62,-272.023,-43.13
53.65,-272.971,-43.508
53.69,-274.374,-43.852
53.72,-275.603,-44.15
53.75,-276.726,-44.344
53.78,-277.744,-44.276
53.82,-278.831,-44.299
53.85,-279.182,-44.115
53.88,-279.463,-43.737
53.91,-280.025,-43.863
53.95,-280.586,-44.379
53.98,-281.218,-44.505
54.01,-281.815,-44.402
54.04,-282.306,-44.608
54.08,-283.148,-44.803
54.11,-283.148,-44.47
54.14,-283.394,-44.379
54.17,-283.99,-44.516
54.21,-284.377,-44.768
54.24,-284.447,-44.826
54.27,-284.938,-44.528
54.3,-284.938,-44.207
54.34,-284.166,-44.058
54.37,-283.885,-43.485
54.4,-283.148,-43.073
54.43,-282.271,-43.245
54.47,-282.13,-43.382
54.5,-281.393,-43.348
54.53,-280.727,-43.394
54.57,-280.762,-43.038
54.6,-279.744,-42.58
54.63,-278.516,-42.294
54.66,-277.884,-41.904
54.7,-276.831,-41.71
54.73,-275.603,-41.801
54.76,-274.971,-41.629
54.79,-273.743,-41.274
54.83,-272.304,-40.965
54.86,-271.567,-40.312
54.89,-269.356,-39.831
54.92,-267.566,-39.636
54.96,-266.794,-39.293
54.99,-264.653,-39.35
55.02,-263.495,-39.43
55.05,-263.004,-39.029
55.09,-260.898,-38.766
55.12,-259.634,-38.491
55.15,-258.827,-37.929
55.18,-256.616,-37.78
55.22,-255.493,-37.723
55.25,-254.721,-37.311
55.28,-252.615,-37.242
55.31,-251.527,-37.07
55.35,-250.545,-36.245
55.38,-247.491,-35.695
55.41,-246.088,-35.26
55.44,-244.368,-34.55
55.48,-241.139,-34.47
55.51,-239.7,-34.195
55.54,-238.156,-33.759
55.57,-235.524,-34.183
55.61,-234.752,-34.08
55.64,-233.243,-33.313
55.67,-230.435,-33.244
55.7,-229.944,-33.015
55.74,-228.189,-32.305
55.77,-224.89,-32.224
55.8,-224.609,-31.858
55.83,-222.398,-31.445
55.87,-219.485,-31.549
55.9,-219.205,-30.907
55.93,-216.713,-30.518
55.97,-214.186,-30.701
56.0,-213.625,-30.071
56.03,-211.063,-29.658
56.06,-208.817,-29.796
56.1,-207.904,-29.154
56.13,-205.237,-28.639
56.16,-202.64,-28.364
56.19,-201.201,-27.425
56.23,-198.183,-27.447
56.26,-195.831,-27.722
56.29,-194.638,-27.047
56.32,-191.655,-26.772
56.36,-189.83,-26.806
56.39,-188.531,-26.084
56.42,-185.373,-25.626
56.45,-183.022,-24.939
56.49,-181.477,-24.503
56.52,-178.529,-24.492
56.55,-176.143,-24.171
56.58,-174.599,-23.564
56.62,-171.791,-23.335
56.65,-169.124,-22.728
56.68,-166.702,-21.846
56.71,-163.614,-21.388
56.75,-160.526,-20.723
56.78,-157.542,-20.116
56.81,-155.086,-19.978
56.84,-151.576,-19.371
56.88,-148.312,-18.547
56.91,-146.172,-18.02
56.94,-142.838,-17.71
56.97,-139.503,-17.722
57.01,-137.959,-17.115
57.04,-135.432,-16.496
57.07,-131.502,-16.278
57.1,-129.782,-15.58
57.14,-127.185,-14.858
57.17,-123.009,-14.64
57.2,-120.482,-13.85
57.23,-117.218,-12.887
57.27,-112.656,-12.739
57.3,-109.883,-12.441
57.33,-106.725,-11.856
57.37,-102.689,-11.719
57.4,-100.127,-11.375
57.43,-97.179,-10.608
57.46,-93.423,-9.943
57.5,-89.738,-9.21
57.53,-86.369,-8.374
57.56,-82.684,-7.675
57.59,-78.368,-7.332
57.63,-75.139,-6.793
57.66,-71.91,-6.117
57.69,-68.085,-5.739
57.72,-64.751,-5.327
57.76,-61.522,-4.662
57.79,-58.047,-4.239
57.82,-54.889,-3.975
57.85,-51.801,-3.54
57.89,-48.677,-3.059
57.92,-45.483,-2.612
57.95,-42.044,-2.211
57.98,-39.272,-1.627
58.02,-35.902,-1.134
58.05,-32.428,-0.79
58.08,-30.006,-0.092
58.11,-26.637,0.596
58.15,-23.268,1.088
58.18,-20.425,1.925
58.21,-16.144,2.784
58.24,-10.634,3.345
58.28,-4.282,3.62
58.31,2.141,3.46
58.34,7.826,2.933
58.37,12.424,2.188
58.41,15.231,1.569
58.44,17.056,1.398
58.47,18.706,1.455
58.5,20.285,1.81
58.54,22.531,2.463
58.57,25.584,3.047
58.6,27.76,4.009
58.63,31.235,4.926
58.67,34.955,5.567
58.7,39.938,6.003
58.73,44.395,6.289
58.76,48.256,6.724
58.8,53.38,6.53
58.83,56.538,6.541
58.86,58.82,7.137
58.9,62.61,7.16
58.93,63.908,7.515
58.96,65.382,8.557
58.99,69.138,8.763
59.03,70.822,9.668
59.06,73.209,10.677
59.09,77.49,10.608
59.12,79.947,11.582
59.16,82.965,12.658
59.19,87.457,12.784
59.22,90.826,13.689
59.25,94.301,14.64
59.29,97.881,14.629
59.32,101.776,14.972
59.35,104.549,16.141
59.38,107.462,16.622
59.42,112.41,16.496
59.45,114.551,17.516
59.48,117.183,18.466
59.51,123.009,18.031
59.55,124.693,18.799
59.58,127.571,19.795
59.61,133.467,19.199
59.64,134.801,20.139
59.68,138.029,20.929
59.71,143.048,20.391
59.74,143.996,21.456
59.77,145.61,22.018
59.81,146.873,22.212
59.84,148.453,23.621
59.87,150.629,24.584
59.9,152.664,25.615
59.94,156.981,26.485
59.97,159.227,27.47
60.0,162.701,28.272
60.03,167.053,28.261
60.07,169.019,28.811
60.1,172.388,29.223
60.13,176.038,29.223
60.16,177.933,30.128
60.2,181.583,30.976
60.23,185.233,31.136
60.26,187.198,31.686
60.3,190.532,32.018
60.33,193.304,31.801
60.36,194.322,31.972
60.39,196.989,31.995
60.43,198.779,31.835
60.46,199.727,32.076
60.49,201.833,32.11
60.52,203.201,32.076
60.56,203.798,32.339
60.59,205.588,32.316
60.62,206.606,32.316
60.65,207.272,32.912
60.69,209.589,33.427
60.72,211.168,33.874
60.75,212.677,34.642
60.78,215.59,35.1
60.82,217.555,35.455
60.85,219.485,35.97
60.88,222.504,36.245
60.91,224.539,36.589
60.95,226.75,37.105
60.98,229.417,37.196
61.01,231.313,37.334
61.04,233.383,37.929
61.08,235.629,38.124
61.11,237.138,37.975
61.14,238.542,38.032
61.17,240.437,38.273
61.21,241.911,38.433
61.24,242.929,38.766
61.27,244.859,39.029
61.3,246.404,39.315
61.34,247.597,39.728
61.37,249.562,39.888
61.4,250.966,40.083
61.43,252.299,40.598
61.47,254.37,40.873
61.5,255.563,40.862
61.53,256.932,41.091
61.56,258.757,41.389
61.6,259.81,41.469
61.63,260.722,41.481
61.66,262.056,41.389
61.7,262.898,41.503
61.73,263.811,41.927
61.76,265.25,42.248
61.79,266.513,42.603
61.83,267.882,43.119
61.86,269.461,43.176
61.89,270.409,43.165
61.92,271.567,43.291
61.96,272.76,43.359
61.99,273.778,43.554
62.02,274.831,43.932
62.05,276.34,44.138
62.09,277.252,44.264
62.12,278.165,44.402
62.15,279.147,44.299
62.18,279.674,44.195
62.22,280.165,44.138
62.25,280.832,44.058
62.28,281.113,44.253
62.31,281.604,44.528
62.35,282.376,44.436
62.38,282.516,44.459
62.41,282.832,44.459
62.44,283.499,44.493
62.48,283.464,44.562
62.51,283.85,44.654
62.54,284.622,44.619
62.57,284.552,44.86
62.61,284.973,44.814
62.64,284.938,44.207
62.67,284.061,43.669
62.7,283.289,43.21
62.74,282.692,42.752
62.77,281.534,42.821
62.8,281.148,43.256
62.83,281.183,43.405
62.87,280.586,43.634
62.9,280.797,43.646
62.93,280.797,43.336
62.96,279.884,43.176
63.0,279.674,42.89
63.03,279.358,42.5
63.06,277.919,42.5
63.1,277.498,42.225
63.13,276.585,41.469
63.16,274.164,40.999
63.19,272.935,40.392
63.23,271.04,39.567
63.26,268.268,39.247
63.29,267.039,38.949
63.32,264.969,38.685
63.36,262.653,38.811
63.39,261.916,38.548
63.42,259.915,38.227
63.45,258.02,38.136
63.49,257.318,37.7
63.52,255.388,37.483
63.55,253.949,37.597
63.58,253.528,37.334
63.62,251.703,37.162
63.65,250.404,37.139
63.68,249.983,36.578
63.71,247.597,36.142
63.75,246.053,35.799
63.78,245.07,34.997
63.81,242.087,34.653
63.84,240.297,34.504
63.88,239.279,34.126
63.91,236.577,34.092
63.94,234.927,33.84
63.97,233.629,33.084
64.01,230.927,32.923
64.04,229.347,32.843
64.07,228.014,32.202
64.1,225.101,31.995
64.14,223.697,31.858
64.17,222.363,31.411
64.2,219.45,31.274
64.23,218.257,30.941
64.27,216.467,30.437
64.3,213.835,30.529
64.33,212.923,30.266
64.36,211.203,29.865
64.4,208.781,29.888
64.43,208.009,29.578
64.46,206.079,28.925
64.49,203.377,28.627
64.53,202.043,28.169
64.56,199.411,27.493
64.59,196.568,27.505
64.63,195.515,27.493
64.66,193.41,27.287
64.69,190.637,26.863
64.72,189.339,26.142
64.76,187.163,25.729
64.79,184.18,25.512
64.82,182.004,24.332
64.85,179.301,23.931
64.89,176.845,24.194
64.92,174.599,23.667
64.95,171.756,22.762
64.98,168.738,22.247
65.02,166.281,21.8
65.05,163.263,21.284
65.08,159.894,20.357
65.11,156.77,19.978
65.15,154.208,19.715
65.18,151.717,19.383
65.21,148.312,19.142
65.24,146.101,18.615
65.28,143.89,17.997
65.31,140.556,17.79
65.34,137.959,17.286
65.37,136.31,16.404
65.41,132.414,16.141
65.44,129.361,15.786
65.47,127.676,14.823
65.5,123.676,14.377
65.54,120.096,14.045
65.57,117.709,13.094
65.6,113.358,12.532
65.63,109.497,12.532
65.67,107.181,12.017
65.7,103.285,11.547
65.73,99.741,11.307
65.76,97.179,10.516
65.8,93.494,9.691
65.83,89.388,9.233
65.86,85.983,8.477
65.89,82.474,7.675
65.93,78.368,7.354
65.96,75.034,7.057
65.99,72.156,6.427
66.03,68.892,5.934
66.06,65.628,5.602
66.09,62.75,5.029
66.12,59.416,4.376
66.16,56.047,4.032
66.19,52.853,3.677
66.22,49.695,3.208
66.25,46.536,2.623
66.29,42.886,2.303
66.32,40.079,2.039
66.35,37.306,1.329
66.38,33.27,0.722
66.42,30.463,0.046
66.45,27.234,-0.733
66.48,23.233,-1.306
66.51,19.934,-2.177
66.55,15.337,-3.001
66.58,9.651,-3.242
66.61,3.79,-3.196
66.64,-1.93,-3.059
66.68,-7.054,-2.681
66.71,-11.23,-2.016
66.74,-14.108,-1.443
66.77,-15.933,-1.34
66.81,-17.758,-1.627
66.84,-19.724,-2.005
66.87,-21.935,-2.566
66.9,-25.269,-3.093
66.94,-27.725,-3.872
66.97,-30.708,-4.823
67.0,-34.464,-5.418
67.03,-38.885,-6.003
67.07,-44.15,-6.232
67.1,-47.519,-6.518
67.13,-52.222,-6.564
67.16,-56.223,-6.449
67.2,-58.118,-7.034
67.23,-61.557,-7.309
67.26,-64.154,-7.412
67.29,-64.961,-8.477
67.33,-68.576,-9.084
67.36,-71.349,-9.52
67.39,-73.244,-10.734
67.43,-77.35,-10.997
67.46,-80.719,-11.398
67.49,-83.211,-12.693
67.52,-87.563,-13.208
67.56,-91.528,-13.792
67.59,-94.933,-14.629
67.62,-98.442,-14.949
67.65,-102.513,-15.224
67.69,-105.496,-15.648
67.72,-107.286,-16.313
67.75,-111.673,-16.759
67.78,-115.218,-17.298
67.82,-117.183,-18.569
67.85,-122.623,-18.592
67.88,-126.343,-18.707
67.91,-127.957,-19.864
67.95,-133.362,-19.543
67.98,-136.591,-19.692
68.01,-137.889,-20.929
68.04,-142.206,-20.803
68.08,-144.417,-21.101
68.11,-144.838,-22.166
68.14,-146.803,-22.338
68.17,-148.102,-23.404
68.21,-150.488,-24.652
68.24,-152.489,-25.58
68.27,-156.384,-26.611
68.3,-159.753,-27.39
68.34,-162.245,-28.33
68.37,-166.913,-28.547
68.4,-169.791,-28.879
68.43,-172.423,-29.532
68.47,-176.318,-29.544
68.5,-178.705,-29.83
68.53,-181.232,-30.563
68.56,-184.776,-30.747
68.6,-186.566,-30.919
68.63,-188.777,-31.308
68.66,-191.69,-31.331
68.69,-193.094,-31.537
68.73,-194.919,-31.835
68.76,-197.411,-31.904
68.79,-198.814,-32.282
68.83,-200.955,-32.66
68.86,-203.166,-32.648
68.89,-204.5,-32.809
68.92,-206.114,-33.118
68.96,-208.115,-33.187
68.99,-209.448,-33.393
69.02,-211.028,-33.931
69.05,-213.274,-34.332
69.09,-214.888,-34.733
69.12,-216.924,-35.191
69.15,-219.205,-35.363
69.18,-220.784,-35.569
69.22,-222.679,-35.902
69.25,-224.995,-36.2
69.28,-226.61,-36.6
69.31,-228.61,-37.047
69.35,-230.962,-37.265
69.38,-232.646,-37.574
69.41,-234.717,-38.067
69.44,-237.033,-38.227
69.48,-238.612,-38.365
69.51,-240.332,-38.617
69.54,-242.332,-38.685
69.57,-243.561,-38.8
69.61,-245.035,-39.052
69.64,-246.79,-39.212
69.67,-247.842,-39.419
69.7,-249.106,-39.567
69.74,-250.58,-39.682
69.77,-251.703,-40.049
69.8,-253.387,-40.518
69.83,-255.107,-40.885
69.87,-256.546,-41.297
69.9,-258.371,-41.584
69.93,-259.985,-41.561
69.96,-260.722,-41.355
70.0,-261.74,-41.355
70.03,-263.039,-41.469
70.06,-263.951,-41.859
70.09,-265.074,-42.42
70.13,-266.829,-42.683
70.16,-267.987,-43.061
70.19,-269.25,-43.313
70.22,-270.724,-43.084
70.26,-271.356,-43.165
70.29,-272.62,-43.417
70.32,-273.848,-43.439
70.36,-274.62,-44.035
70.39,-276.199,-44.425
70.42,-277.357,-44.23
70.45,-278.024,-44.276
70.49,-279.288,-44.448
70.52,-279.99,-44.253
70.55,-279.814,-43.989
70.58,-280.586,-43.943
70.62,-281.113,-43.932
70.65,-281.113,-44.425
70.68,-281.85,-44.516
70.71,-282.376,-44.356
70.75,-282.552,-44.608
70.78,-283.148,-44.574
70.81,-283.324,-44.344
70.84,-283.464,-44.505
70.88,-284.096,-44.688
70.91,-284.412,-44.585
70.94,-284.341,-44.619
70.97,-284.587,-44.425
71.01,-284.412,-44.035
71.04,-283.604,-43.737
71.07,-283.324,-43.405
71.1,-282.762,-43.313
71.14,-281.99,-43.588
71.17,-282.095,-43.588
71.2,-281.569,-43.371
71.23,-280.621,-43.245
71.27,-280.446,-42.729
71.3,-279.077,-42.26
71.33,-277.849,-42.042
71.36,-277.217,-41.721
71.4,-275.813,-41.664
71.43,-274.76,-41.641
71.46,-274.129,-41.274
71.49,-272.514,-40.839
71.53,-271.04,-40.438
71.56,-269.952,-39.819
71.59,-267.671,-39.487
71.62,-266.338,-39.419
71.66,-265.215,-39.235
71.69,-263.319,-39.27
71.72,-262.547,-39.132
71.76,-261.389,-38.64
71.79,-259.319,-38.388
71.82,-258.511,-38.101
71.85,-257.213,-37.7
71.89,-255.037,-37.723
71.92,-254.37,-37.448
71.95,-253.072,-36.979
71.98,-250.931,-36.875
72.02,-249.878,-36.348
72.05,-247.878,-35.478
72.08,-245.21,-35.169
72.11,-244.017,-34.768
72.15,-241.771,-34.344
72.18,-239.104,-34.298
72.21,-238.086,-34.069
72.24,-236.436,-34.092
72.28,-234.366,-34.183
72.31,-233.488,-33.588
72.34,-231.488,-33.072
72.37,-229.593,-33.072
72.41,-228.47,-32.591
72.44,-226.048,-32.018
72.47,-224.118,-31.904
72.5,-222.89,-31.606
72.54,-220.398,-31.239
72.57,-218.327,-30.976
72.6,-217.064,-30.609
72.63,-214.677,-30.426
72.67,-212.712,-30.3
72.7,-211.414,-29.807
72.73,-209.203,-29.578
72.76,-207.272,-29.406
72.8,-205.658,-28.753
72.83,-203.131,-28.238
72.86,-200.815,-27.906
72.89,-198.744,-27.425
72.93,-196.077,-27.195
72.96,-193.445,-26.932
72.99,-191.69,-26.543
73.02,-189.69,-26.714
73.06,-187.654,-26.497
73.09,-185.724,-25.798
73.12,-183.372,-25.271
73.16,-181.477,-25.099
73.19,-179.617,-24.698
73.22,-177.02,-24.171
73.25,-174.353,-23.484
73.29,-172.107,-22.945
73.32,-169.264,-22.419
73.35,-166.106,-21.972
73.38,-163.228,-21.032
73.42,-160.35,-20.402
73.45,-156.946,-20.253
73.48,-154.489,-20.139
73.51,-152.243,-19.429
73.55,-148.769,-18.81
73.58,-145.399,-18.409
73.61,-143.575,-17.63
73.64,-141.223,-17.355
73.68,-137.152,-17.275
73.71,-135.292,-16.359
73.74,-133.011,-15.602
73.77,-128.484,-15.625
73.81,-126.378,-15.018
73.84,-124.202,-14.056
73.87,-119.254,-13.861
73.9,-116.586,-13.346
73.94,-113.919,-12.338
73.97,-108.69,-12.406
74.0,-106.268,-12.315
74.03,-103.847,-11.41
74.07,-99.284,-11.238
74.1,-96.758,-10.894
74.13,-94.02,-9.749
74.16,-89.563,-9.038
74.2,-85.913,-8.523
74.23,-82.509,-7.721
74.26,-78.508,-7.137
74.29,-74.858,-6.77
74.33,-71.384,-6.346
74.36,-68.365,-5.739
74.39,-64.961,-5.258
74.42,-61.522,-4.846
74.46,-58.328,-4.319
74.49,-55.064,-3.906
74.52,-51.801,-3.54
74.55,-48.537,-3.082
74.59,-45.659,-2.566
74.62,-42.149,-2.142
74.65,-38.675,-1.821
74.69,-36.394,-1.191
74.72,-32.814,-0.63
74.75,-29.445,-0.252
74.78,-27.094,0.596
74.82,-23.268,1.398
74.85,-19.724,2.062
74.88,-15.407,2.921
74.91,-9.511,3.448
74.95,-3.299,3.505
74.98,2.737,3.173
75.01,7.861,2.658
75.04,12.038,2.005
75.08,14.705,1.409
75.11,16.319,1.306
75.14,18.074,1.524
75.17,20.11,1.925
75.21,22.18,2.6
75.24,25.198,3.368
75.27,28.532,3.987
75.3,31.27,4.926
75.34,35.095,5.613
75.37,38.991,6.014
75.4,44.431,6.106
75.43,48.361,6.312
75.47,51.906,6.633
75.5,56.293,6.415
75.53,58.328,6.713
75.56,60.539,7.446
75.6,64.119,7.595
75.63,65.488,8.374
75.66,68.015,9.279
75.69,71.875,9.634
75.73,73.875,10.516
75.76,77.245,11.364
75.79,81.386,11.513
75.82,83.913,12.246
75.86,87.282,13.105
75.89,91.423,13.712
75.92,94.933,14.445
75.95,98.126,15.087
75.99,101.917,15.534
76.02,106.058,15.82
76.05,108.093,16.347
76.09,111.041,16.805
76.12,115.604,17.149
76.15,117.569,18.111
76.18,121.043,18.741
76.22,125.992,18.398
76.25,127.782,19.383
76.28,131.572,19.921
76.31,136.275,19.589
76.35,138.17,20.528
76.38,140.697,21.25
76.41,144.382,21.044
76.44,144.733,21.995
76.48,146.698,22.808
76.51,148.874,23.266
76.54,150.769,24.629
76.57,153.331,25.603
76.61,156.139,26.52
76.64,159.929,27.321
76.67,162.596,28.123
76.7,166.211,28.57
76.74,169.791,28.753
76.77,172.282,29.2
76.8,175.511,29.59
76.83,178.74,29.91
76.87,181.197,30.644
76.9,184.46,31.159
76.93,187.303,31.216
76.96,189.304,31.445
77.0,191.866,31.583
77.03,193.936,31.514
77.06,195.34,31.755
77.09,197.656,32.053
77.13,199.551,32.213
77.16,200.955,32.454
77.19,202.956,32.557
77.22,204.605,32.522
77.26,205.623,32.694
77.29,207.272,32.923
77.32,208.922,33.152
77.35,210.115,33.691
77.39,212.221,34.229
77.42,214.397,34.63
77.45,216.222,35.283
77.49,218.608,35.718
77.52,220.889,35.821
77.55,222.855,36.234
77.58,225.276,36.658
77.62,227.733,36.83
77.65,229.172,37.036
77.68,231.277,37.276
77.71,233.594,37.597
77.75,235.068,37.872
77.78,236.717,37.883
77.81,238.507,37.838
77.84,239.7,38.216
77.88,241.385,38.582
77.91,243.175,38.674
77.94,244.438,39.052
77.97,246.368,39.51
78.01,248.018,39.659
78.04,249.176,39.854
78.07,251.001,40.094
78.1,252.58,40.312
78.14,253.809,40.656
78.17,255.528,40.759
78.2,256.967,40.976
78.23,258.09,41.446
78.27,259.775,41.503
78.3,260.757,41.297
78.33,261.459,41.515
78.36,262.898,41.607
78.4,263.986,41.744
78.43,264.969,42.397
78.46,266.689,42.855
78.49,268.127,43.096
78.53,269.356,43.394
78.56,270.9,43.279
78.59,271.777,43.268
78.62,272.83,43.554
78.66,274.234,43.646
78.69,275.217,43.932
78.72,276.34,44.402
78.75,277.919,44.39
78.79,278.586,44.31
78.82,279.218,44.425
78.85,280.06,44.15
78.89,280.235,43.943
78.92,280.481,44.138
78.95,281.358,44.195
78.98,281.569,44.287
79.02,281.885,44.551
79.05,282.552,44.402
79.08,282.481,44.287
79.11,283.078,44.551
79.15,283.534,44.482
79.18,283.534,44.677
79.21,284.341,44.94
79.24,285.114,44.871
79.28,284.938,44.952
79.31,285.289,44.654
79.34,285.149,44.058
79.37,284.201,43.703
79.41,283.604,43.371
79.44,283.253,43.21
79.47,282.271,43.554
79.5,282.341,43.737
79.54,281.99,43.565
79.57,281.253,43.394
79.6,281.042,43.073
79.63,280.2,42.649
79.67,279.007,42.363
79.7,278.481,42.042
79.73,277.393,41.801
79.76,276.41,42.111
79.8,276.936,42.764
79.83,277.252,43.359
79.86,277.252,43.577
79.89,277.779,43.187
79.93,277.533,42.821
79.96,276.866,42.466
79.99,276.34,41.652
80.02,274.515,40.736
80.06,272.198,39.991
80.09,270.338,38.937
80.12,267.039,38.078
80.15,263.986,37.609
80.19,261.705,37.001
80.22,258.511,36.669
80.25,255.844,36.6
80.28,254.089,36.211
80.32,251.141,35.844
80.35,248.755,35.466
80.38,246.754,34.825
80.42,243.912,34.561
80.45,242.122,34.664
80.48,240.543,34.458
80.51,238.367,34.504
80.55,237.244,34.584
80.58,236.121,34.218
80.61,234.296,34.115
80.64,233.348,34.012
80.68,232.401,33.668
80.71,230.435,33.565
80.74,229.347,33.29
80.77,228.084,32.625
80.81,225.768,32.247
80.84,224.118,31.892
80.87,222.363,31.125
80.9,219.38,30.678
80.94,217.52,30.483
80.97,215.625,30.14
81.0,212.958,30.071
81.03,211.519,29.945
81.07,209.869,29.624
81.1,207.483,29.383
81.13,205.798,28.868
81.16,203.868,28.272
81.2,201.236,28.123
81.23,199.165,27.768
81.26,197.27,27.287
81.29,194.603,27.356
81.33,192.743,27.15
81.36,190.778,26.382
81.39,188.005,25.924
81.42,185.759,25.431
81.46,183.583,24.87
81.49,180.53,24.515
81.52,178.178,24.137
81.55,176.353,23.839
81.59,173.476,23.724
81.62,170.844,22.968
81.65,168.773,22.144
81.68,165.72,21.972
81.72,162.701,21.433
81.75,160.245,20.528
81.78,157.367,20.219
81.82,154.279,20.185
81.85,152.068,19.543
81.88,149.155,18.627
81.91,145.224,18.111
81.95,142.381,17.619
81.98,140.767,16.92
82.01,136.836,16.576
82.04,133.186,16.324
82.08,132.204,15.534
82.11,128.343,15.19
82.14,124.272,14.835
82.17,122.693,13.552
82.21,118.166,13.094
82.24,112.656,12.578
82.27,107.602,8.878
82.3,98.582,6.747
82.34,90.16,7.561
82.37,86.369,8.557
82.4,82.263,8.993
82.43,80.228,9.474
82.47,80.087,9.978
82.5,80.333,10.069
82.53,80.473,9.84
82.56,79.771,9.199
82.6,78.578,8.225
82.63,76.718,7.274
82.66,73.489,6.782
82.69,70.822,6.197
82.73,67.699,5.43
82.76,64.049,5.086
82.79,61.171,4.892
82.82,58.328,4.502
82.86,55.17,4.078
82.89,52.081,3.574
82.92,48.923,2.864
82.95,45.308,2.096
82.99,40.816,1.569
83.02,37.376,0.905
83.05,33.586,0.057
83.08,28.989,-0.332
83.12,25.865,-1.008
83.15,22.356,-1.867
83.18,18.46,-2.28
83.22,14.214,-2.589
83.25,9.265,-2.795
83.28,4.317,-2.749
83.31,-0.211,-2.314
83.35,-3.86,-1.844
83.38,-6.844,-1.569
83.41,-9.441,-1.432
83.44,-11.897,-1.398
83.48,-14.249,-1.673
83.51,-16.811,-2.325
83.54,-20.074,-3.036
83.57,-23.444,-3.574
83.61,-27.655,-3.998
83.64,-30.603,-4.846
83.67,-34.393,-5.739
83.7,-38.394,-6.209
83.74,-43.658,-6.461
83.77,-48.642,-6.564
83.8,-51.941,-6.782
83.83,-56.117,-6.449
83.87,-58.714,-6.381
83.9,-59.767,-7.08
83.93,-62.715,-7.354
83.96,-64.54,-7.71
84.0,-65.944,-8.809
84.03,-69.453,-9.416
84.06,-72.401,-10.138
84.09,-75.279,-11.352
84.13,-79.982,-11.994
84.16,-84.053,-12.739
84.19,-87.633,-13.666
84.22,-92.055,-13.873
84.26,-95.74,-14.136
84.29,-98.477,-14.675
84.32,-101.215,-15.11
84.35,-104.97,-15.476
84.39,-107.742,-16.221
84.42,-110.304,-17.115
84.45,-115.007,-17.458
84.48,-118.306,-17.962
84.52,-120.763,-18.638
84.55,-125.465,-18.512
84.58,-128.238,-18.902
84.62,-130.554,-19.669
84.65,-134.976,-19.612
84.68,-137.959,-20.173
84.71,-139.714,-21.284
84.75,-143.259,-21.376
84.78,-145.259,-21.788
84.81,-146.593,-23.049
84.84,-149.365,-23.518
84.88,-151.19,-24.332
84.91,-153.647,-25.408
84.94,-156.384,-26.325
84.97,-159.824,-27.218
85.01,-162.947,-27.929
85.04,-166.035,-28.513
85.07,-169.58,-28.811
85.1,-172.493,-29.109
85.14,-175.02,-29.383
85.17,-178.214,-29.624
85.2,-180.846,-30.059
85.23,-183.232,-30.609
85.27,-185.899,-30.827
85.3,-188.286,-30.999
85.33,-190.251,-31.377
85.36,-192.708,-31.583
85.4,-194.568,-31.675
85.43,-196.288,-32.064
85.46,-198.744,-32.431
85.49,-200.815,-32.648
85.53,-202.57,-32.855
85.56,-204.64,-32.958
85.59,-206.395,-33.003
85.62,-207.799,-33.198
85.66,-209.518,-33.45
85.69,-211.343,-33.782
85.72,-212.923,-34.332
85.75,-215.099,-34.882
85.79,-217.31,-35.306
85.82,-219.275,-35.856
85.85,-221.837,-36.165
85.88,-224.083,-36.314
85.92,-226.013,-36.738
85.95,-228.365,-37.024
85.98,-230.295,-37.082
86.01,-231.979,-37.345
86.05,-234.12,-37.517
86.08,-235.699,-37.528
86.11,-236.823,-37.677
86.15,-238.647,-37.826
86.18,-240.051,-38.078
86.21,-241.245,-38.594
86.24,-243.28,-38.811
86.28,-244.684,-39.121
86.31,-246.228,-39.705
86.34,-248.544,-39.785
86.37,-249.562,-39.785
86.41,-250.931,-40.152
86.44,-253.142,-40.301
86.47,-253.984,-40.564
86.5,-255.318,-40.908
86.54,-257.423,-40.942
86.57,-258.16,-41.274
86.6,-259.529,-41.538
86.63,-261.038,-41.332
86.67,-261.635,-41.492
86.7,-262.863,-41.778
86.73,-264.302,-41.87
86.76,-265.109,-42.351
86.8,-266.759,-42.878
86.83,-268.443,-43.05
86.86,-269.321,-43.21
86.89,-270.584,-43.187
86.93,-271.812,-42.958
86.96,-272.444,-43.256
86.99,-273.672,-43.611
87.02,-274.69,-43.577
87.06,-275.603,-43.978
87.09,-276.971,-44.402
87.12,-277.919,-44.299
87.15,-278.691,-44.299
87.19,-279.323,-44.012
87.22,-279.744,-43.703
87.25,-280.025,-43.886
87.28,-280.621,-44.23
87.32,-281.218,-44.344
87.35,-281.499,-44.516
87.38,-282.271,-44.562
87.41,-282.762,-44.413
87.45,-282.692,-44.413
87.48,-283.183,-44.104
87.51,-283.113,-44.047
87.55,-283.183,-44.367
87.58,-283.569,-44.276
87.61,-283.394,-44.218
87.64,-283.289,-44.207
87.68,-283.534,-43.84
87.71,-282.727,-43.543
87.74,-282.236,-43.451
87.77,-282.341,-43.417
87.81,-281.955,-43.646
87.84,-281.709,-43.737
87.87,-281.779,-43.52
87.9,-281.042,-43.165
87.94,-280.341,-42.764
87.97,-279.568,-42.145
88.0,-277.884,-41.824
88.03,-277.112,-41.733
88.07,-276.41,-41.549
88.1,-274.655,-41.549
88.13,-273.918,-41.366
88.16,-272.795,-40.805
88.2,-270.9,-40.392
88.23,-269.672,-39.934
88.26,-268.233,-39.453
88.29,-266.267,-39.476
88.33,-265.25,-39.533
88.36,-264.302,-39.293
88.39,-262.547,-39.27
88.42,-261.81,-38.972
88.46,-260.336,-38.284
88.49,-258.336,-37.929
88.52,-257.283,-37.563
88.55,-255.528,-37.311
88.59,-253.809,-37.253
88.62,-252.791,-36.979
88.65,-251.176,-36.749
88.68,-249.422,-36.578
88.72,-248.193,-36.039
88.75,-246.474,-35.604
88.78,-244.508,-35.443
88.81,-243.21,-35.088
88.85,-241.315,-34.596
88.88,-239.244,-34.378
88.91,-237.946,-34.103
88.95,-235.805,-33.759
88.98,-233.664,-33.404
89.01,-232.295,-32.981
89.04,-230.154,-32.774
89.08,-228.259,-32.706
89.11,-226.82,-32.385
89.14,-224.82,-31.938
89.17,-222.96,-31.743
89.21,-221.416,-31.468
89.24,-219.24,-31.067
89.27,-216.924,-30.403
89.3,-215.204,-30.036
89.34,-213.274,-30.174
89.37,-211.203,-30.094
89.4,-209.659,-29.635
89.43,-207.974,-29.418
89.47,-205.869,-29.154
89.5,-203.973,-28.478
89.53,-201.868,-27.86
89.56,-199.165,-27.654
89.6,-196.954,-27.264
89.63,-194.778,-26.909
89.66,-192.216,-26.955
89.69,-190.707,-26.657
89.73,-188.531,-26.164
89.76,-185.829,-25.855
89.79,-184.145,-25.179
89.82,-181.618,-24.561
89.86,-178.529,-24.263
89.89,-176.704,-23.713
89.92,-174.107,-23.289
89.95,-170.949,-23.071
89.99,-168.948,-22.338
90.02,-166.246,-21.903
90.05,-162.982,-21.582
90.08,-160.42,-20.769
90.12,-158.104,-20.196
90.15,-154.84,-20.311
90.18,-152.032,-19.681
90.21,-149.997,-18.776
90.25,-146.593,-18.386
90.28,-142.873,-17.962
90.31,-141.153,-17.069
90.35,-138.275,-16.633
90.38,-133.678,-16.519
90.41,-132.169,-15.66
90.44,-129.782,-14.972
90.48,-124.939,-15.144
90.51,-123.36,-14.365
90.54,-120.517,-13.3
90.57,-115.112,-13.414
90.61,-113.358,-12.91
90.64,-110.234,-12.063
90.67,-105.286,-12.383
90.7,-103.882,-11.925
90.74,-100.723,-10.952
90.77,-96.126,-10.825
90.8,-94.055,-10.035
90.83,-90.3,-8.935
90.87,-86.053,-8.523
90.9,-82.86,-7.939
90.93,-79.105,-7.263
90.96,-75.735,-6.724
91.0,-72.191,-6.346
91.03,-68.681,-5.9
91.06,-65.593,-5.224
91.09,-61.943,-4.731
91.13,-58.539,-4.41
91.16,-55.556,-3.941
91.19,-52.257,-3.494
91.22,-48.888,-3.185
91.26,-45.94,-2.795
91.29,-43.097,-2.108
91.32,-39.096,-1.558
91.35,-35.727,-1.054
91.39,-32.814,-0.195
91.42,-28.497,0.367
91.45,-25.198,0.974
91.48,-21.935,1.913
91.52,-17.899,2.577
91.55,-13.161,2.807
91.58,-8.002,2.887
91.61,-2.808,2.875
91.65,2.106,2.6
91.68,6.282,2.177
91.71,9.651,1.799
91.74,12.459,1.409
91.78,14.459,1.375
91.81,16.565,1.89
91.84,19.337,2.623
91.88,22.391,2.864
91.91,24.918,3.356
91.94,28.392,4.009
91.97,31.27,4.594
92.01,34.253,5.098
92.04,37.552,5.51
92.07,41.623,6.026
92.1,46.536,6.197
92.14,50.081,6.449
92.17,54.082,6.598
92.2,57.486,6.667
92.23,59.767,7.206
92.27,62.645,7.778
92.3,65.733,8.225
92.33,67.944,9.142
92.36,71.278,9.921
92.4,74.823,10.39
92.43,77.596,11.295
92.46,81.351,12.143
92.49,85.387,12.624
92.53,88.651,13.346
92.56,92.3,13.907
92.59,96.091,14.274
92.62,99.179,14.801
92.66,101.987,15.305
92.69,105.496,15.694
92.72,108.83,16.427
92.75,111.743,17.218
92.79,115.569,17.676
92.82,119.359,17.997
92.85,122.202,18.535
92.88,125.536,18.753
92.92,129.115,18.902
92.95,131.993,19.6
92.98,134.976,20.093
93.01,139.082,20.402
93.05,140.907,21.239
93.08,143.048,21.834
93.11,146.031,21.766
93.14,147.049,22.854
93.18,149.506,23.667
93.21,151.506,24.171
93.24,153.822,25.225
93.28,156.7,26.107
93.31,159.192,27.047
93.34,162.842,27.814
93.37,166.071,28.307
93.41,168.878,28.857
93.44,172.353,29.063
93.47,175.125,29.28
93.5,177.582,29.888
93.54,181.056,30.357
93.57,183.829,30.724
93.6,186.18,31.319
93.63,189.444,31.514
93.67,191.479,31.537
93.7,193.304,31.789
93.73,195.866,31.789
93.76,197.27,31.95
93.8,199.095,32.328
93.83,201.657,32.339
93.86,202.85,32.591
93.89,204.465,32.877
93.93,206.5,32.763
93.96,207.588,32.923
93.99,209.027,33.507
94.02,211.414,33.863
94.06,212.817,34.321
94.09,214.853,34.962
94.12,217.836,35.386
94.15,219.31,35.741
94.19,221.381,35.925
94.22,224.048,35.902
94.25,225.311,36.394
94.28,227.592,36.818
94.32,229.909,36.715
94.35,230.751,37.07
94.38,233.032,37.448
94.41,235.033,37.345
94.45,235.489,37.448
94.48,237.735,37.918
94.51,239.771,38.239
94.54,240.508,38.674
94.58,242.508,38.662
94.61,244.298,38.72
94.64,245.421,39.453
94.68,247.597,39.705
94.71,248.93,39.59
94.74,249.983,40.003
94.77,252.405,40.312
94.81,253.563,40.472
94.84,254.756,40.885
94.87,257.072,41.103
94.9,258.336,41.458
94.94,259.669,41.79
94.97,261.459,41.549
95.0,262.161,41.481
95.03,263.319,41.836
95.07,264.758,41.985
95.1,265.741,42.408
95.13,267.285,42.935
95.16,268.97,43.038
95.2,269.882,43.176
95.23,271.075,43.245
95.26,272.374,43.038
95.29,273.006,43.256
95.33,274.094,43.611
95.36,275.427,43.726
95.39,276.164,44.104
95.42,277.428,44.379
95.46,278.586,44.138
95.49,278.831,44.173
95.52,279.744,44.15
95.55,280.305,43.84
95.59,280.341,43.989
95.62,281.042,44.253
95.65,281.709,44.23
95.68,281.815,44.356
95.72,282.411,44.413
95.75,282.657,43.966
95.78,282.832,44.413
95.81,283.499,44.665
95.85,283.71,44.402
95.88,284.236,44.883
95.91,284.973,44.963
95.94,285.008,44.608
95.98,284.798,44.322
96.01,284.763,44.001
96.04,284.166,43.657
96.08,283.394,43.405
96.11,283.289,43.405
96.14,282.867,43.657
96.17,282.446,43.817
96.21,282.376,43.646
96.24,281.99,43.325
96.27,281.113,42.924
96.3,280.2,42.5
96.34,279.358,42.248
96.37,279.042,42.626
96.4,279.147,43.325
96.43,278.867,43.451
96.47,278.445,42.855
96.5,277.533,41.859
96.53,275.743,40.908
96.56,273.567,39.888
96.6,270.97,38.869
96.63,268.092,38.239
96.66,265.425,37.975
96.69,263.074,37.757
96.73,260.793,37.666
96.76,258.827,37.631
96.79,257.072,37.494
96.82,255.388,37.379
96.86,253.984,37.276
96.89,252.615,37.093
96.92,251.317,36.852
96.95,249.948,36.646
96.99,248.65,36.452
97.02,247.316,36.051
97.05,245.596,35.627
97.08,243.982,35.237
97.12,242.368,34.917
97.15,240.332,34.699
97.18,239.034,34.412
97.21,237.524,34.355
97.25,236.05,34.39
97.28,234.822,34.08
97.31,232.997,33.588
97.34,231.488,33.255
97.38,229.979,32.855
97.41,228.014,32.442
97.44,226.013,32.167
97.47,224.153,31.56
97.51,221.942,31.193
97.54,219.977,31.216
97.57,218.468,30.93
97.61,216.257,30.586
97.64,214.397,30.518
97.67,213.239,30.266
97.7,211.063,29.922
97.74,209.273,29.762
97.77,208.15,29.418
97.8,205.869,29.051
97.83,203.728,28.639
97.87,202.254,28.02
97.9,199.516,27.7
97.93,196.814,27.413
97.96,195.27,26.806
98.0,192.462,26.737
98.03,190.392,26.703
98.06,188.882,26.038
98.09,185.934,25.798
98.13,184.039,25.431
98.16,182.144,24.664
98.19,178.986,24.332
98.22,176.775,23.954
98.26,174.879,23.461
98.29,171.756,23.209
98.32,169.229,22.556
98.35,167.053,21.811
98.39,163.719,21.502
98.42,160.666,20.769
98.45,157.964,19.864
98.48,154.63,19.566
98.52,151.331,19.371
98.55,149.12,18.741
98.58,146.593,18.226
98.61,142.943,18.306
98.65,140.837,17.71
98.68,139.363,16.897
98.71,135.046,16.725
98.74,132.449,16.129
98.78,131.186,15.156
98.81,126.378,14.995
98.84,123.184,14.377
98.87,121.008,12.899
98.91,114.972,12.624
98.94,111.427,12.521
98.97,108.9,11.627
99.01,103.531,11.776
99.04,101.109,11.788
99.07,98.969,10.768
99.1,94.511,10.47
99.14,92.195,10.127
99.17,89.493,9.245
99.2,85.738,8.706
99.23,83.246,8.328
99.27,80.087,8.065
99.3,77.56,7.732
99.33,75.104,7.125
99.36,72.015,6.701
99.4,69.664,6.083
99.43,66.365,5.361
99.46,62.61,4.788
99.49,59.171,4.101
99.53,55.345,3.356
99.56,50.993,2.83
99.59,46.852,2.417
99.62,43.378,1.821
99.66,39.236,1.283
99.69,35.236,0.894
99.72,32.182,0.149
99.75,28.392,-0.47
99.79,24.883,-0.871
99.82,22.11,-1.546
99.85,18.706,-2.222
99.88,14.389,-2.589
99.92,9.581,-2.726
99.95,4.633,-2.749
99.98,-0.175,-2.577
100.01,-4.597,-2.394
100.05,-8.633,-2.165
100.08,-12.494,-2.005
100.11,-15.337,-2.028
100.14,-18.039,-2.234
100.18,-20.917,-2.52
100.21,-23.935,-2.841
100.24,-26.216,-3.505
100.27,-29.34,-4.273
100.31,-32.428,-4.892
100.34,-35.727,-5.304
100.37,-39.272,-5.522
100.41,-42.851,-5.934
100.44,-47.343,-6.083
100.47,-50.748,-6.232
100.5,-54.082,-6.507
100.54,-57.275,-6.679
100.57,-59.592,-7.034
100.6,-61.908,-7.629
100.63,-64.856,-8.225
100.67,-67.418,-8.981
100.7,-70.471,-9.806
100.73,-73.946,-10.447
100.76,-77.245,-11.238
100.8,-80.754,-12.143
100.83,-84.93,-12.716
100.86,-88.651,-13.369
100.89,-92.195,-14.067
100.93,-96.056,-14.445
100.96,-99.495,-14.835
100.99,-102.408,-15.373
101.02,-105.707,-15.9
101.06,-109.006,-16.485
101.09,-112.34,-17.057
101.12,-115.709,-17.596
101.15,-119.289,-18.134
101.19,-122.728,-18.432
101.22,-125.816,-18.753
101.25,-129.01,-19.073
101.28,-132.52,-19.394
101.32,-134.976,-19.99
101.35,-138.907,-20.723
101.38,-141.96,-21.147
101.41,-142.802,-21.8
101.45,-145.364,-21.731
101.48,-146.101,-22.35
101.51,-148.909,-23.885
101.54,-151.682,-24.71
101.58,-153.928,-25.729
101.61,-157.402,-26.531
101.64,-160.35,-27.425
101.67,-163.684,-28.192
101.71,-167.229,-28.513
101.74,-170.071,-28.891
101.77,-173.265,-29.303
101.81,-176.424,-29.383
101.84,-178.635,-29.83
101.87,-181.793,-30.38
101.9,-184.706,-30.655
101.94,-186.461,-31.045
101.97,-189.198,-31.216
102.0,-191.725,-31.228
102.03,-193.059,-31.675
102.07,-195.375,-31.858
102.1,-197.656,-31.778
102.13,-198.849,-32.339
102.16,-201.552,-32.671
102.2,-203.342,-32.568
102.23,-204.289,-32.855
102.26,-206.606,-32.923
102.29,-208.009,-32.923
102.33,-208.887,-33.393
102.36,-211.308,-33.759
102.39,-213.028,-34.103
102.42,-214.397,-34.836
102.46,-217.204,-35.157
102.49,-218.889,-35.272
102.52,-220.398,-35.741
102.55,-223.381,-35.89
102.59,-224.89,-36.222
102.62,-226.54,-36.795
102.65,-229.417,-36.956
102.68,-230.997,-37.276
102.72,-232.787,-37.677
102.75,-235.419,-37.746
102.78,-236.647,-37.941
102.81,-238.402,-38.296
102.85,-240.402,-38.227
102.88,-241.35,-38.422
102.91,-243.21,-38.8
102.94,-245.0,-38.685
102.98,-245.491,-38.926
103.01,-247.421,-39.384
103.04,-249.141,-39.476
103.07,-249.667,-39.774
103.11,-251.633,-40.106
103.14,-253.493,-40.358
103.17,-254.405,-40.931
103.2,-256.757,-41.274
103.24,-258.406,-41.423
103.27,-259.424,-41.801
103.3,-261.389,-41.71
103.34,-262.372,-41.458
103.37,-263.179,-41.824
103.4,-264.934,-41.996
103.43,-266.057,-42.271
103.47,-267.11,-42.89
103.5,-268.829,-43.038
103.53,-269.812,-42.912
103.56,-270.549,-43.119
103.6,-272.058,-43.016
103.63,-272.655,-43.027
103.66,-273.462,-43.565
103.69,-275.041,-43.817
103.73,-276.059,-43.989
103.76,-276.866,-44.356
103.79,-278.165,-44.218
103.82,-278.796,-44.035
103.86,-279.253,-44.15
103.89,-280.025,-43.966
103.92,-280.376,-44.069
103.95,-281.078,-44.47
103.99,-281.92,-44.585
104.02,-282.306,-44.631
104.05,-282.903,-44.677
104.08,-283.71,-44.711
104.12,-283.569,-44.482
104.15,-283.675,-44.184
104.18,-284.166,-44.173
104.21,-284.201,-44.596
104.25,-284.377,-44.7
104.28,-284.692,-44.367
104.31,-284.622,-44.138
104.34,-284.236,-44.001
104.38,-283.78,-43.565
104.41,-283.043,-43.245
104.44,-282.622,-43.313
104.47,-282.271,-43.439
104.51,-281.709,-43.451
104.54,-281.358,-43.313
104.57,-280.972,-42.958
104.6,-279.884,-42.58
104.64,-279.077,-42.145
104.67,-277.954,-41.744
104.7,-276.585,-41.675
104.74,-275.778,-41.607
104.77,-274.69,-41.423
104.8,-273.462,-41.24
104.83,-272.549,-40.839
104.87,-271.005,-40.346
104.9,-269.391,-39.911
104.93,-267.987,-39.464
104.96,-266.408,-39.315
105.0,-265.109,-39.327
105.03,-263.846,-39.247
105.06,-262.758,-39.063
105.09,-261.494,-38.788
105.13,-259.95,-38.365
105.16,-258.546,-37.872
105.19,-257.002,-37.505
105.22,-255.423,-37.311
105.26,-253.914,-37.082
105.29,-252.229,-36.83
105.32,-250.72,-36.555
105.35,-249.141,-36.142
105.39,-247.035,-35.695
105.42,-245.316,-35.283
105.45,-243.666,-34.882
105.48,-241.455,-34.745
105.52,-239.876,-34.561
105.55,-238.507,-34.172
105.58,-236.436,-34.241
105.61,-235.138,-33.954
105.65,-233.453,-33.152
105.68,-230.927,-32.912
105.71,-229.768,-32.809
105.74,-228.084,-32.396
105.78,-225.487,-32.224
105.81,-224.294,-32.007
105.84,-222.995,-31.675
105.87,-220.398,-31.549
105.91,-219.205,-31.274
105.94,-217.45,-30.54
105.97,-214.818,-30.449
106.0,-213.976,-30.38
106.04,-212.186,-29.968
106.07,-209.413,-29.773
106.1,-208.571,-29.326
106.14,-206.43,-28.719
106.17,-203.271,-28.41
106.2,-202.008,-27.631
106.23,-199.271,-27.161
106.27,-195.901,-27.287
106.3,-194.708,-26.852
106.33,-192.287,-26.714
106.36,-189.514,-26.84
106.4,-188.602,-26.073
106.43,-186.005,-25.546
106.46,-182.951,-25.317
106.49,-181.758,-24.343
106.53,-178.74,-23.908
106.56,-175.546,-23.931
106.59,-174.178,-23.117
106.62,-171.159,-22.693
106.66,-167.755,-22.487
106.69,-166.035,-21.582
106.72,-163.087,-21.113
106.75,-159.508,-20.838
106.79,-157.121,-20.082
106.82,-155.086,-19.956
106.85,-151.576,-19.669
106.88,-148.488,-18.627
106.92,-146.523,-18.031
106.95,-142.873,-17.79
106.98,-139.679,-17.619
107.01,-138.521,-16.656
107.05,-134.941,-16.198
107.08,-131.01,-16.21
107.11,-130.238,-15.121
107.14,-126.448,-14.617
107.18,-122.096,-14.743
107.21,-121.078,-13.644
107.24,-116.621,-12.91
107.27,-112.164,-13.094
107.31,-110.725,-12.303
107.34,-106.233,-11.834
107.37,-102.443,-11.948
107.4,-100.723,-10.974
107.44,-96.231,-10.31
107.47,-92.897,-10.035
107.5,-90.089,-9.096
107.54,-85.843,-8.397
107.57,-82.649,-7.893
107.6,-78.894,-7.309
107.63,-75.209,-6.816
107.67,-72.366,-6.232
107.7,-68.541,-5.831
107.73,-65.312,-5.361
107.76,-62.189,-4.697
107.8,-58.504,-4.319
107.83,-55.31,-3.987
107.86,-52.327,-3.46
107.89,-48.923,-2.99
107.93,-45.413,-2.692
107.96,-42.5,-2.177
107.99,-39.307,-1.489
108.02,-35.411,-1.1
108.06,-32.568,-0.515
108.09,-29.34,0.229
108.12,-25.655,0.745
108.15,-22.601,1.432
108.19,-19.302,2.222
108.22,-14.845,2.772
108.25,-9.511,3.104
108.28,-3.79,3.299
108.32,2.0,3.104
108.35,7.124,2.612
108.38,11.336,2.142
108.41,14.494,1.695
108.45,16.495,1.615
108.48,18.53,1.799
108.51,20.706,2.085
108.54,23.198,2.509
108.58,25.584,3.15
108.61,28.287,3.975
108.64,31.445,4.697
108.67,34.744,5.43
108.71,38.85,5.808
108.74,42.851,5.957
108.77,47.203,6.152
108.8,51.099,6.335
108.84,54.433,6.415
108.87,57.346,6.575
108.9,59.978,7.011
108.93,62.294,7.584
108.97,64.751,8.225
109.0,67.734,8.935
109.03,70.612,9.76
109.07,73.805,10.596
109.1,77.631,11.284
109.13,81.281,12.097
109.16,85.071,12.842
109.2,89.037,13.334
109.23,92.511,13.976
109.26,95.985,14.423
109.29,99.355,14.709
109.33,102.232,15.293
109.36,105.496,15.82
109.39,108.549,16.381
109.42,112.024,17.034
109.46,115.569,17.481
109.49,118.587,18.226
109.52,122.658,18.581
109.55,126.097,18.661
109.59,128.484,19.28
109.62,132.73,19.52
109.65,135.713,19.772
109.68,137.854,20.528
109.72,142.346,20.666
109.75,142.732,21.536
109.78,145.013,22.235
109.81,147.049,22.51
109.85,148.488,23.885
109.88,151.717,24.526
109.91,153.542,25.397
109.94,157.016,26.428
109.98,159.999,27.127
110.01,162.807,28.043
110.04,166.843,28.398
110.07,169.545,28.708
110.11,172.212,29.177
110.14,175.827,29.269
110.17,178.178,29.681
110.2,180.705,30.449
110.24,184.46,30.701
110.27,186.531,31.056
110.3,188.672,31.571
110.33,191.971,31.4
110.37,193.199,31.434
110.4,195.059,31.835
110.43,197.867,31.835
110.47,198.92,32.167
110.5,200.99,32.625
110.53,203.693,32.602
110.56,204.324,32.832
110.6,206.255,33.038
110.63,208.36,32.877
110.66,209.027,33.427
110.69,211.308,34.046
110.73,213.625,34.206
110.76,214.537,34.848
110.79,217.52,35.443
110.82,219.766,35.535
110.86,220.889,35.776
110.89,223.662,35.948
110.92,225.627,36.085
110.95,226.855,36.681
110.99,229.382,36.807
111.02,231.172,36.772
111.05,232.576,37.631
111.08,235.419,37.975
111.12,236.682,37.757
111.15,237.665,38.01
111.18,240.437,38.216
111.21,241.595,38.502
111.25,242.543,38.823
111.28,244.93,38.869
111.31,246.404,39.281
111.34,247.597,39.751
111.38,249.597,39.59
111.41,250.72,39.625
111.44,252.054,40.232
111.47,253.984,40.495
111.51,255.177,40.724
111.54,256.651,41.217
111.57,258.827,41.515
111.6,259.915,41.652
111.64,261.003,41.698
111.67,262.582,41.423
111.7,263.249,41.595
111.73,264.478,42.156
111.77,266.232,42.351
111.8,267.11,42.844
111.83,268.794,43.313
111.87,270.338,43.107
111.9,271.005,43.153
111.93,272.234,43.279
111.96,273.322,43.233
112.0,274.199,43.554
112.03,275.533,43.886
112.06,276.585,44.138
112.09,277.638,44.367
112.13,278.691,44.299
112.16,279.323,44.161
112.19,279.779,44.058
112.22,280.305,43.772
112.26,280.481,43.714
112.29,280.832,44.092
112.32,281.499,44.264
112.35,281.744,44.367
112.39,282.376,44.459
112.42,282.587,44.195
112.45,283.148,44.459
112.48,283.71,44.745
112.52,283.99,44.551
112.55,284.657,44.837
112.58,285.149,44.952
112.61,285.254,44.688
112.65,285.254,44.299
112.68,285.008,44.104
112.71,284.727,43.817
112.74,283.99,43.451
112.78,283.429,43.474
112.81,283.394,43.646
112.84,282.797,43.703
112.87,282.411,43.6
112.91,282.13,43.256
112.94,281.078,42.809
112.97,280.025,42.34
113.0,279.007,41.859
113.04,277.954,41.755
113.07,277.007,42.019
113.1,276.27,42.007
113.13,275.287,41.595
113.17,273.813,41.045
113.2,272.339,40.369
113.23,270.514,39.613
113.26,268.268,39.041
113.3,266.232,38.674
113.33,264.372,38.445
113.36,262.231,38.353
113.4,260.722,38.262
113.43,259.213,38.044
113.46,257.283,37.918
113.49,256.195,37.643
113.53,254.897,37.402
113.56,253.352,37.402
113.59,252.58,37.196
113.62,251.106,36.898
113.66,249.632,36.784
113.69,248.685,36.406
113.72,247.035,35.959
113.75,245.386,35.707
113.79,244.298,35.386
113.82,242.613,35.077
113.85,240.578,34.825
113.88,239.7,34.596
113.92,238.156,34.39
113.95,235.805,34.057
113.98,234.436,33.221
114.01,232.26,32.648
114.05,229.874,32.602
114.08,228.4,32.213
114.11,226.083,31.915
114.14,223.697,31.778
114.18,222.679,31.468
114.21,220.609,31.423
114.24,218.748,31.434
114.27,217.625,30.873
114.31,215.414,30.609
114.34,213.765,30.586
114.37,212.712,30.002
114.4,210.08,29.727
114.44,208.466,29.578
114.47,207.237,28.776
114.5,204.044,28.272
114.53,201.797,27.906
114.57,199.937,27.253
114.6,196.498,27.104
114.63,194.322,26.955
114.66,192.918,26.52
114.7,189.83,26.623
114.73,188.075,26.21
114.76,186.461,25.443
114.8,183.337,25.363
114.83,181.407,24.755
114.86,179.301,23.942
114.89,176.038,23.965
114.93,174.248,23.621
114.96,172.107,22.808
114.99,168.527,22.464
115.02,166.246,21.743
115.06,163.579,21.032
115.09,159.964,20.643
115.12,157.051,20.104
115.15,154.489,19.383
115.19,151.295,19.039
115.22,147.961,18.925
115.25,146.101,18.26
115.28,143.961,17.928
115.32,139.925,17.664
115.35,138.1,16.851
115.38,136.205,16.129
115.41,131.572,16.175
115.45,129.642,15.591
115.48,127.957,14.594
115.51,122.798,14.537
115.54,120.482,13.93
115.58,117.85,12.807
115.61,112.34,12.853
115.64,110.164,12.613
115.67,107.391,11.811
115.71,102.548,11.868
115.74,100.758,11.41
115.77,97.495,10.379
115.8,93.248,9.966
115.84,90.616,9.268
115.87,86.615,8.443
115.9,82.965,7.939
115.93,79.631,7.354
115.97,75.63,6.885
116.0,72.542,6.369
116.03,69.208,5.877
116.06,65.698,5.567
116.1,63.031,5.052
116.13,59.732,4.502
116.16,56.398,4.147
116.2,53.345,3.62
116.23,50.081,3.036
116.26,46.361,2.555
116.29,42.781,2.131
116.33,39.587,1.466
116.36,35.657,0.825
116.39,31.937,0.241
116.42,28.778,-0.493
116.46,25.023,-1.02
116.49,21.794,-1.524
116.52,18.39,-2.188
116.55,14.038,-2.726
116.59,9.019,-2.784
116.62,3.966,-2.795
116.65,-1.228,-2.921
