Trigger_Date,2023/06/26
Trigger_Time,T 09:18:46.642 PDT
Samples_Per_Cycle,512
Microseconds_Per_Sample,32.547
Time (ms),Voltage (V),Current (A)
-16.66,-0.316,-2.898
-16.63,-5.264,-2.52
-16.6,-9.441,-2.234
-16.57,-13.091,-1.867
-16.53,-15.477,-1.604
-16.5,-17.407,-1.661
-16.47,-19.583,-1.936
-16.44,-22.11,-2.371
-16.4,-24.461,-3.253
-16.37,-27.76,-4.078
-16.34,-31.2,-4.731
-16.31,-34.499,-5.43
-16.27,-38.254,-5.945
-16.24,-42.57,-6.404
-16.21,-48.116,-6.587
-16.18,-52.257,-6.575
-16.14,-55.521,-6.644
-16.11,-59.171,-6.507
-16.08,-60.574,-6.885
-16.05,-62.294,-7.584
-16.01,-65.523,-7.87
-15.98,-66.786,-8.763
-15.95,-69.489,-9.783
-15.92,-73.524,-10.15
-15.88,-75.911,-11.146
-15.85,-79.596,-12.109
-15.82,-84.369,-12.498
-15.79,-87.633,-13.323
-15.75,-91.318,-14.01
-15.72,-95.213,-14.274
-15.69,-98.828,-14.675
-15.66,-101.425,-15.259
-15.62,-104.408,-15.992
-15.59,-109.076,-16.324
-15.56,-111.252,-17.092
-15.52,-114.516,-18.02
-15.49,-120.236,-17.951
-15.46,-121.886,-18.65
-15.43,-124.939,-19.28
-15.39,-130.695,-18.627
-15.36,-131.642,-19.795
-15.33,-135.187,-20.609
-15.3,-140.872,-20.219
-15.26,-141.82,-21.502
-15.23,-143.89,-21.926
-15.2,-145.61,-21.903
-15.17,-147.295,-23.175
-15.13,-149.295,-23.885
-15.1,-150.594,-24.721
-15.07,-154.279,-25.626
-15.04,-157.051,-26.989
-15.0,-160.21,-28.169
-14.97,-164.702,-28.078
-14.94,-166.843,-28.605
-14.91,-170.633,-29.418
-14.87,-174.634,-29.406
-14.84,-175.722,-29.498
-14.81,-179.091,-29.83
-14.78,-182.39,-29.842
-14.74,-183.618,-30.781
-14.71,-186.917,-31.434
-14.68,-190.005,-31.262
-14.65,-190.918,-31.697
-14.61,-193.936,-32.03
-14.58,-196.217,-31.766
-14.55,-196.954,-32.121
-14.52,-199.832,-32.339
-14.48,-201.833,-32.316
-14.45,-202.57,-32.809
-14.42,-205.061,-32.969
-14.39,-206.606,-32.809
-14.35,-207.167,-33.255
-14.32,-209.624,-33.496
-14.29,-211.273,-33.702
-14.26,-212.396,-34.516
-14.22,-215.309,-35.043
-14.19,-217.45,-35.455
-14.16,-219.24,-36.039
-14.13,-221.942,-36.154
-14.09,-223.943,-36.2
-14.06,-225.487,-36.509
-14.03,-227.803,-36.692
-14.0,-229.347,-36.658
-13.96,-230.611,-36.864
-13.93,-232.751,-37.276
-13.9,-234.225,-37.437
-13.87,-235.278,-37.54
-13.83,-237.138,-37.643
-13.8,-238.542,-38.055
-13.77,-239.841,-38.617
-13.73,-241.876,-38.846
-13.7,-243.526,-39.098
-13.67,-245.07,-39.579
-13.64,-247.141,-39.751
-13.6,-248.509,-39.819
-13.57,-249.878,-40.106
-13.54,-251.843,-40.324
-13.51,-253.107,-40.564
-13.47,-254.546,-40.931
-13.44,-256.406,-41.217
-13.41,-257.845,-41.492
-13.38,-259.248,-41.79
-13.34,-260.828,-41.801
-13.31,-261.845,-41.767
-13.28,-262.968,-41.95
-13.25,-264.407,-42.145
-13.21,-265.495,-42.638
-13.18,-267.004,-43.165
-13.15,-268.654,-43.245
-13.12,-269.637,-43.222
-13.08,-270.549,-43.313
-13.05,-271.883,-43.199
-13.02,-272.76,-43.21
-12.99,-273.497,-43.714
-12.95,-274.901,-44.001
-12.92,-275.954,-44.184
-12.89,-276.901,-44.413
-12.86,-277.954,-44.299
-12.82,-278.551,-44.092
-12.79,-278.902,-44.173
-12.76,-279.604,-43.989
-12.73,-279.849,-44.081
-12.69,-280.411,-44.528
-12.66,-281.288,-44.631
-12.63,-281.674,-44.654
-12.6,-282.271,-44.791
-12.56,-283.113,-44.722
-12.53,-283.253,-44.608
-12.5,-283.289,-44.562
-12.47,-283.885,-44.505
-12.43,-283.955,-44.654
-12.4,-284.061,-44.768
-12.37,-284.236,-44.379
-12.34,-283.99,-44.069
-12.3,-283.218,-43.852
-12.27,-282.762,-43.256
-12.24,-281.955,-43.199
-12.21,-281.499,-43.577
-12.17,-281.464,-43.508
-12.14,-280.656,-43.302
-12.11,-280.621,-43.611
-12.07,-280.481,-43.302
-12.04,-278.902,-42.5
-12.01,-277.849,-41.79
-11.98,-277.357,-41.813
-11.94,-275.883,-42.007
-11.91,-274.831,-41.79
-11.88,-274.304,-41.24
-11.85,-272.865,-41.492
-11.81,-271.988,-41.217
-11.78,-270.9,-40.438
-11.75,-268.549,-39.854
-11.72,-267.461,-39.51
-11.68,-266.232,-39.407
-11.65,-264.302,-39.648
-11.62,-263.635,-39.522
-11.59,-262.723,-39.201
-11.55,-260.898,-39.029
-11.52,-259.95,-38.468
-11.49,-258.511,-37.838
-11.46,-256.441,-37.78
-11.42,-255.774,-37.677
-11.39,-254.335,-37.414
-11.36,-252.37,-37.437
-11.33,-251.808,-37.024
-11.29,-250.018,-36.326
-11.26,-247.351,-35.936
-11.23,-246.333,-35.249
-11.2,-243.912,-34.676
-11.16,-241.174,-34.722
-11.13,-240.297,-34.332
-11.1,-237.981,-33.943
-11.07,-235.524,-34.183
-11.03,-235.068,-33.771
-11.0,-232.506,-33.187
-10.97,-230.154,-33.141
-10.94,-229.663,-32.637
-10.9,-226.996,-32.431
-10.87,-225.206,-32.602
-10.84,-224.785,-32.27
-10.81,-222.644,-32.236
-10.77,-220.924,-32.167
-10.74,-220.258,-31.228
-10.71,-217.45,-30.712
-10.68,-215.239,-30.483
-10.64,-213.835,-29.75
-10.61,-210.782,-29.487
-10.58,-208.781,-29.487
-10.55,-207.729,-28.971
-10.51,-204.675,-28.696
-10.48,-202.605,-28.398
-10.45,-201.201,-27.734
-10.42,-197.937,-27.642
-10.38,-196.007,-27.585
-10.35,-194.603,-27.184
-10.32,-191.795,-27.241
-10.28,-190.286,-27.001
-10.25,-188.953,-26.222
-10.22,-185.899,-25.844
-10.19,-183.899,-25.282
-10.15,-181.758,-24.423
-10.12,-178.424,-24.068
-10.09,-176.143,-23.77
-10.06,-173.967,-23.22
-10.02,-170.668,-22.819
-9.99,-168.036,-22.281
-9.96,-165.404,-21.685
-9.93,-162.421,-21.227
-9.89,-159.297,-20.574
-9.86,-156.419,-20.024
-9.83,-154.103,-19.795
-9.8,-150.804,-19.429
-9.76,-147.891,-18.89
-9.73,-145.926,-18.329
-9.7,-142.732,-17.859
-9.67,-139.188,-17.458
-9.63,-137.924,-17.126
-9.6,-135.713,-16.851
-9.57,-132.239,-16.828
-9.54,-130.379,-15.637
-9.5,-127.711,-14.549
-9.47,-123.009,-14.514
-9.44,-120.236,-13.724
-9.41,-116.797,-12.475
-9.37,-111.427,-12.212
-9.34,-108.339,-12.109
-9.31,-105.391,-11.662
-9.28,-100.969,-11.593
-9.24,-98.442,-11.123
-9.21,-95.599,-10.161
-9.18,-91.599,-9.714
-9.15,-88.194,-9.199
-9.11,-85.036,-8.294
-9.08,-81.456,-7.801
-9.05,-77.982,-7.732
-9.02,-75.314,-7.354
-8.98,-72.752,-6.816
-8.95,-69.489,-6.106
-8.92,-66.084,-5.338
-8.89,-62.82,-4.708
-8.85,-59.1,-4.25
-8.82,-55.415,-3.769
-8.79,-51.765,-3.242
-8.76,-48.502,-2.818
-8.72,-44.957,-2.417
-8.69,-41.132,-2.005
-8.66,-38.324,-1.34
-8.62,-34.779,-0.756
-8.59,-30.989,-0.481
-8.56,-28.638,0.229
-8.53,-25.269,0.882
-8.49,-22.005,1.134
-8.46,-19.443,1.787
-8.43,-15.547,2.532
-8.4,-10.599,3.024
-8.36,-5.054,3.15
-8.33,0.491,3.001
-8.3,5.545,2.692
-8.27,10.213,2.429
-8.23,14.108,2.222
-8.2,16.6,1.741
-8.17,18.636,1.569
-8.14,20.425,1.97
-8.1,22.636,2.646
-8.07,25.76,2.978
-8.04,27.62,3.712
-8.01,30.638,4.559
-7.97,33.972,5.132
-7.94,38.289,5.648
-7.91,42.676,6.175
-7.88,46.536,6.885
-7.84,52.116,6.828
-7.81,56.117,6.701
-7.78,58.609,7.171
-7.75,62.575,7.228
-7.71,64.365,7.446
-7.68,65.312,8.466
-7.65,69.138,8.844
-7.62,71.173,9.565
-7.58,73.279,10.734
-7.55,77.841,11.043
-7.52,80.824,11.765
-7.49,83.772,12.887
-7.45,88.475,13.254
-7.42,92.125,13.735
-7.39,95.038,14.411
-7.36,98.196,14.732
-7.32,102.127,15.03
-7.29,104.654,15.671
-7.26,107.076,16.542
-7.23,111.954,16.828
-7.19,114.867,17.412
-7.16,117.113,18.455
-7.13,122.693,18.306
-7.1,125.325,18.638
-7.06,127.325,19.658
-7.03,132.906,19.268
-7.0,135.362,19.91
-6.97,137.363,20.872
-6.93,142.171,20.849
-6.9,143.89,21.33
-6.87,144.592,22.212
-6.83,146.838,22.419
-6.8,148.312,23.484
-6.77,150.418,24.561
-6.74,152.594,25.615
-6.7,156.49,26.68
-6.67,159.929,27.871
-6.64,163.298,28.971
-6.61,167.615,28.868
-6.57,170.493,29.189
-6.54,173.616,29.727
-6.51,177.196,29.727
-6.48,179.407,29.979
-6.44,182.004,30.495
-6.41,185.022,30.529
-6.38,186.742,30.793
-6.35,188.672,31.136
-6.31,191.199,31.022
-6.28,192.322,30.999
-6.25,194.498,31.95
-6.22,197.165,32.545
-6.18,198.534,32.648
-6.15,201.025,32.866
-6.12,203.973,33.267
-6.09,205.518,33.668
-6.05,207.237,33.645
-6.02,209.554,33.45
-5.99,210.852,33.851
-5.96,212.747,34.447
-5.92,214.958,34.722
-5.89,216.573,35.146
-5.86,218.538,35.558
-5.83,220.714,35.535
-5.79,222.363,35.776
-5.76,223.943,35.936
-5.73,225.487,35.787
-5.7,226.961,36.039
-5.66,228.4,36.509
-5.63,230.33,36.921
-5.6,231.839,37.276
-5.57,233.348,37.517
-5.53,235.103,37.483
-5.5,236.472,37.735
-5.47,238.156,38.262
-5.44,240.332,38.594
-5.4,241.946,39.041
-5.37,243.877,39.602
-5.34,246.368,39.923
-5.31,247.948,40.152
-5.27,249.457,40.243
-5.24,251.562,40.232
-5.21,252.826,40.472
-5.17,254.16,40.828
-5.14,256.09,40.919
-5.11,257.108,41.206
-5.08,258.652,41.733
-5.04,260.582,41.652
-5.01,260.863,41.549
-4.98,262.126,41.515
-4.95,263.354,41.355
-4.91,263.741,42.019
-4.88,265.39,42.569
-4.85,266.864,42.683
-4.82,267.812,43.199
-4.78,269.426,43.336
-4.75,270.724,43.027
-4.72,271.251,43.233
-4.69,272.479,43.451
-4.65,273.672,43.474
-4.62,274.409,43.875
-4.59,275.638,44.264
-4.56,276.901,44.161
-4.52,277.393,44.23
-4.49,278.34,44.207
-4.46,278.902,43.943
-4.43,278.972,43.966
-4.39,279.639,44.058
-4.36,280.235,44.081
-4.33,280.446,44.436
-4.3,281.253,44.551
-4.26,281.779,44.413
-4.23,281.92,44.608
-4.2,282.552,44.619
-4.17,283.008,44.482
-4.13,283.078,44.7
-4.1,283.815,44.78
-4.07,284.131,44.585
-4.04,283.815,44.677
-4.0,284.236,44.402
-3.97,284.131,44.035
-3.94,283.253,43.955
-3.91,283.183,43.68
-3.87,282.797,43.428
-3.84,282.025,43.646
-3.81,281.885,43.6
-3.78,281.183,43.233
-3.74,280.27,42.867
-3.71,279.604,42.477
-3.68,278.34,42.065
-3.65,277.007,41.893
-3.61,276.305,41.778
-3.58,275.462,42.053
-3.55,274.269,41.962
-3.52,273.567,41.183
-3.48,271.988,40.793
-3.45,270.795,40.77
-3.42,269.847,40.335
-3.38,267.25,39.373
-3.35,265.565,38.983
-3.32,264.723,38.983
-3.29,263.074,39.556
-3.25,262.407,39.762
-3.22,261.6,39.132
-3.19,259.74,38.594
-3.16,258.897,38.296
-3.12,257.739,37.929
-3.09,255.739,37.838
-3.06,254.791,37.551
-3.03,253.317,37.162
-2.99,251.387,37.07
-2.96,250.334,36.555
-2.93,248.053,35.432
-2.9,245.526,35.054
-2.86,244.228,35.146
-2.83,242.403,34.894
-2.8,239.876,34.538
-2.77,238.472,34.206
-2.73,237.735,34.733
-2.7,236.823,35.524
-2.67,236.261,35.455
-2.64,235.84,34.894
-2.6,234.717,34.79
-2.57,234.015,34.47
-2.54,232.681,33.679
-2.51,230.54,33.049
-2.47,228.786,32.362
-2.44,226.329,31.594
-2.41,223.521,31.079
-2.38,220.819,30.518
-2.34,217.731,29.544
-2.31,214.291,28.788
-2.28,211.484,28.696
-2.25,209.027,28.673
-2.21,206.184,28.616
-2.18,204.5,28.673
-2.15,203.342,29.12
-2.12,201.833,29.716
-2.08,201.271,29.75
-2.05,200.604,29.59
-2.02,199.446,29.555
-1.99,198.534,28.902
-1.95,196.674,27.814
-1.92,193.831,26.978
-1.89,191.515,26.004
-1.86,188.672,25.019
-1.82,184.741,24.458
-1.79,181.758,23.85
-1.76,178.775,23.301
-1.72,174.985,23.026
-1.69,171.651,22.247
-1.66,168.597,21.33
-1.63,164.737,21.147
-1.59,161.333,20.757
-1.56,158.595,19.956
-1.53,155.367,19.784
-1.5,152.103,20.036
-1.46,150.488,19.555
-1.43,148.102,18.741
-1.4,144.241,18.432
-1.37,142.136,17.985
-1.33,140.837,17.218
-1.3,136.626,16.977
-1.27,133.783,16.656
-1.24,133.186,15.774
-1.2,128.694,15.488
-1.17,124.974,14.938
-1.14,123.57,13.369
-1.11,117.955,12.865
-1.07,113.287,12.887
-1.04,111.252,11.616
-1.01,105.426,11.295
-0.98,101.671,11.902
-0.94,100.443,11.169
-0.91,95.81,10.562
-0.88,92.546,10.31
-0.85,90.616,9.474
-0.81,86.861,8.947
-0.78,83.772,8.5
-0.75,80.789,7.813
-0.72,77.56,7.423
-0.68,74.648,6.954
-0.65,71.033,6.209
-0.62,67.769,5.35
-0.59,64.224,4.72
-0.55,60.153,4.445
-0.52,56.644,4.009
-0.49,53.59,3.586
-0.46,50.467,3.54
-0.42,47.519,3.551
-0.39,45.168,2.83
-0.36,42.044,1.776
-0.33,37.833,1.329
-0.29,34.885,0.699
-0.26,31.27,-0.218
-0.23,26.848,-0.607
-0.2,24.181,-1.134
-0.16,20.987,-1.913
-0.13,16.951,-2.555
-0.1,11.967,-2.978
-0.07,6.528,-3.047
-0.03,1.263,-2.841
0.0,-3.545,-2.474
0.03,-7.545,-2.062
0.07,-10.844,-1.673
0.1,-13.828,-1.695
0.13,-16.495,-2.451
0.16,-19.408,-2.761
0.2,-22.531,-2.234
0.23,-24.426,-2.497
0.26,-25.935,-3.116
0.29,-28.392,-3.059
0.33,-30.006,-3.689
0.36,-32.674,-4.857
0.39,-35.973,-5.533
0.42,-40.71,-6.014
0.46,-45.869,-6.404
0.49,-49.73,-6.839
0.52,-54.433,-6.736
0.55,-58.047,-6.656
0.59,-59.943,-7.183
0.62,-63.066,-7.446
0.65,-65.453,-7.801
0.68,-66.821,-8.878
0.72,-70.296,-9.508
0.75,-73.489,-10.264
0.78,-76.157,-11.49
0.81,-80.508,-11.937
0.85,-84.474,-12.338
0.88,-87.527,-13.323
0.91,-91.353,-13.781
0.94,-95.143,-14.022
0.98,-98.021,-14.629
1.01,-100.758,-15.224
1.04,-104.408,-15.454
1.07,-107.356,-15.935
1.11,-109.743,-16.782
1.14,-113.673,-17.241
1.17,-117.183,-17.504
1.2,-119.359,-18.146
1.24,-123.254,-18.432
1.27,-126.799,-18.627
1.3,-129.08,-19.28
1.33,-132.555,-19.623
1.37,-136.906,-19.91
1.4,-138.345,-21.009
1.43,-141.714,-21.64
1.46,-145.294,-21.823
1.5,-146.593,-23.243
1.53,-149.049,-24.08
1.56,-151.19,-24.881
1.59,-154.77,-25.821
1.63,-157.191,-26.852
1.66,-160.561,-27.745
1.69,-164.351,-28.123
1.72,-167.159,-28.639
1.76,-170.317,-29.097
1.79,-173.651,-29.143
1.82,-175.862,-29.395
1.86,-178.635,-29.888
1.89,-181.723,-30.22
1.92,-183.899,-30.609
1.95,-186.04,-30.884
1.99,-188.777,-30.873
2.02,-190.251,-31.067
2.05,-192.181,-31.445
2.08,-194.392,-31.491
2.12,-195.866,-31.846
2.15,-198.042,-32.442
2.18,-200.534,-32.637
2.21,-202.008,-32.82
2.25,-203.973,-33.049
2.28,-206.184,-32.969
2.31,-207.132,-33.221
2.34,-208.992,-33.622
2.38,-211.308,-33.794
2.41,-212.396,-34.401
2.44,-214.783,-34.985
2.47,-217.274,-35.077
2.51,-218.257,-35.398
2.54,-220.503,-35.604
2.57,-222.855,-35.466
2.6,-223.732,-35.993
2.64,-226.189,-36.566
2.67,-228.751,-36.852
2.7,-229.874,-37.631
2.73,-232.892,-38.055
2.77,-235.313,-38.113
2.8,-236.577,-38.605
2.83,-239.42,-38.754
2.86,-241.28,-38.708
2.9,-242.438,-39.132
2.93,-244.824,-39.315
2.96,-246.404,-39.315
2.99,-247.351,-39.682
3.03,-249.281,-39.693
3.06,-250.299,-39.487
3.09,-250.896,-39.819
3.12,-252.686,-40.06
3.16,-253.738,-40.255
3.19,-254.651,-40.782
3.22,-256.721,-41.091
3.25,-257.88,-41.32
3.29,-259.073,-41.607
3.32,-260.757,-41.503
3.35,-261.494,-41.515
3.38,-262.372,-41.801
3.42,-263.916,-41.824
3.45,-264.688,-42.145
3.48,-265.952,-42.775
3.52,-267.706,-42.855
3.55,-268.478,-42.947
3.58,-269.531,-43.176
3.61,-271.075,-42.958
3.65,-271.532,-43.142
3.68,-272.655,-43.646
3.71,-274.234,-43.714
3.74,-274.936,-44.127
3.78,-276.305,-44.459
3.81,-277.533,-44.173
3.84,-277.919,-44.207
3.87,-278.796,-44.15
3.91,-279.218,-43.806
3.94,-279.253,-44.001
3.97,-280.095,-44.207
4.0,-280.656,-44.184
4.04,-280.621,-44.448
4.07,-281.429,-44.436
4.1,-281.955,-44.15
4.13,-281.674,-44.276
4.17,-282.166,-44.241
4.2,-282.516,-44.184
4.23,-282.516,-44.654
4.26,-283.289,-44.768
4.3,-283.71,-44.7
4.33,-283.92,-44.883
4.36,-284.377,-44.722
4.39,-284.377,-44.276
4.43,-283.92,-44.058
4.46,-283.85,-43.966
4.49,-283.604,-43.852
4.52,-282.762,-43.68
4.56,-282.376,-43.405
4.59,-281.604,-42.947
4.62,-280.165,-42.534
4.65,-279.042,-42.019
4.69,-277.708,-41.607
4.72,-276.199,-41.664
4.75,-275.568,-41.698
4.78,-274.409,-41.561
4.82,-273.181,-41.492
4.85,-272.514,-41.068
4.88,-271.005,-40.53
4.91,-269.391,-40.094
4.95,-268.163,-39.751
4.98,-266.899,-39.682
5.01,-265.601,-39.739
5.04,-264.372,-39.671
5.08,-263.425,-39.464
5.11,-262.126,-39.121
5.14,-260.722,-38.559
5.17,-259.178,-38.032
5.21,-257.494,-37.872
5.24,-256.3,-37.769
5.27,-254.826,-37.62
5.31,-253.387,-37.483
5.34,-252.335,-37.127
5.37,-250.51,-36.612
5.4,-248.685,-36.062
5.44,-247.035,-35.524
5.47,-245.175,-35.26
5.5,-243.175,-35.249
5.53,-241.911,-34.997
5.57,-240.121,-34.642
5.6,-238.051,-34.447
5.63,-236.577,-33.805
5.66,-234.05,-32.855
5.7,-231.628,-32.706
5.73,-229.909,-32.568
5.76,-227.698,-32.224
5.79,-225.381,-32.144
5.83,-224.118,-31.995
5.86,-222.223,-31.663
5.89,-219.942,-31.514
5.92,-218.784,-31.056
5.96,-216.678,-30.598
5.99,-214.256,-30.483
6.02,-213.063,-30.105
6.05,-210.992,-29.773
6.09,-208.781,-29.75
6.12,-207.729,-29.326
6.15,-205.342,-28.811
6.18,-202.745,-28.364
6.22,-201.341,-27.665
6.25,-198.428,-27.356
6.28,-195.551,-27.425
6.31,-194.392,-26.989
6.35,-191.936,-26.84
6.38,-189.479,-26.932
6.41,-188.567,-26.176
6.44,-185.829,-25.615
6.48,-182.986,-25.408
6.51,-181.863,-24.561
6.54,-178.67,-24.125
6.57,-175.862,-24.091
6.61,-174.458,-23.358
6.64,-171.23,-22.888
6.67,-168.106,-22.533
6.7,-166.527,-21.72
6.74,-163.193,-21.307
6.77,-159.367,-20.551
6.8,-156.876,-19.818
6.83,-154.7,-19.612
6.87,-150.909,-19.463
6.9,-148.172,-18.925
6.93,-146.768,-18.272
6.97,-143.118,-18.203
7.0,-139.819,-17.802
7.03,-139.188,-16.737
7.06,-135.397,-16.313
7.1,-130.87,-16.244
7.13,-130.414,-15.018
7.16,-126.518,-14.285
7.19,-121.184,-14.48
7.23,-120.377,-13.38
7.26,-115.814,-12.624
7.29,-110.725,-13.128
7.32,-110.164,-12.452
7.36,-105.917,-11.96
7.39,-101.881,-12.361
7.42,-101.355,-11.478
7.45,-97.108,-10.608
7.49,-93.353,-10.241
7.52,-90.897,-9.084
7.55,-86.299,-8.282
7.58,-82.86,-7.904
7.62,-79.21,-7.332
7.65,-75.385,-6.828
7.68,-72.401,-6.255
7.71,-68.471,-5.774
7.75,-65.137,-5.304
7.78,-62.083,-4.594
7.81,-58.258,-4.193
7.84,-54.854,-3.929
7.88,-51.906,-3.448
7.91,-48.677,-3.001
7.94,-45.168,-2.761
7.97,-42.29,-2.257
8.01,-39.447,-1.512
8.04,-35.446,-1.18
8.07,-32.639,-0.722
8.1,-29.936,0.046
8.14,-26.181,0.515
8.17,-23.373,1.1
8.2,-20.425,1.959
8.23,-16.319,2.681
8.27,-11.125,3.082
8.3,-5.37,3.288
8.33,0.491,3.185
8.36,5.826,2.841
8.4,10.564,2.44
8.43,14.424,2.073
8.46,16.986,1.993
8.49,19.513,2.096
8.53,21.689,2.394
8.56,23.97,2.44
8.59,25.9,2.658
8.62,27.69,3.54
8.66,30.603,4.33
8.69,33.481,4.983
8.72,37.552,5.522
8.76,41.377,6.117
8.79,46.045,6.518
8.82,50.783,6.553
8.85,54.608,6.656
8.89,57.942,6.896
8.92,61.206,7.171
8.95,63.557,7.698
8.98,65.839,8.397
9.02,69.032,8.935
9.05,71.489,9.703
9.08,74.261,10.608
9.11,78.157,11.169
9.15,81.316,11.971
9.18,84.685,12.784
9.21,88.861,13.197
9.24,92.09,13.781
9.28,95.319,14.377
9.31,98.898,14.697
9.34,101.952,15.156
9.37,104.794,15.648
9.41,107.707,16.221
9.44,111.182,16.851
9.47,114.832,17.332
9.5,117.288,17.985
9.54,121.5,18.272
9.57,125.114,18.615
9.6,127.22,19.28
9.63,131.502,19.348
9.67,134.906,19.406
9.7,136.064,20.62
9.73,141.364,20.677
9.76,142.697,21.307
9.8,144.241,22.716
9.83,147.821,22.957
9.86,149.471,24.332
9.89,152.664,25.408
9.93,154.594,26.199
9.96,158.385,26.989
9.99,161.929,27.539
10.02,164.175,28.364
10.06,168.141,28.616
10.09,171.159,28.559
10.12,172.704,29.017
10.15,176.318,29.143
10.19,178.775,29.315
10.22,180.249,30.254
10.25,184.215,30.689
10.28,186.566,30.976
10.32,188.251,31.755
10.35,191.971,31.755
10.38,193.55,31.686
10.42,195.129,32.236
10.45,198.674,32.396
10.48,200.078,32.557
10.51,201.692,33.026
10.55,204.851,32.969
10.58,205.693,33.084
10.61,206.711,33.061
10.64,209.308,32.889
10.68,210.255,33.633
10.71,211.659,34.447
10.74,214.537,34.332
10.77,215.625,34.756
10.81,217.801,35.741
10.84,220.609,35.592
10.87,221.275,35.512
10.9,223.241,35.879
10.94,225.803,35.879
10.97,226.189,36.177
11.0,228.224,36.704
11.03,230.786,36.772
11.07,231.418,37.219
11.1,233.559,37.609
11.13,235.98,37.563
11.16,236.612,38.01
11.2,238.858,38.456
11.23,241.139,38.514
11.26,241.946,39.086
11.29,244.438,39.522
11.33,246.544,39.579
11.36,247.351,39.877
11.39,249.562,39.854
11.42,251.036,39.865
11.46,251.949,40.472
11.49,254.3,40.759
11.52,255.598,40.965
11.55,256.897,41.515
11.59,259.354,41.71
11.62,260.266,41.71
11.65,261.179,41.733
11.68,262.758,41.446
11.72,263.46,41.561
11.75,264.442,42.191
11.78,265.987,42.466
11.81,267.145,42.741
11.85,268.443,43.199
11.88,269.882,43.187
11.91,270.795,43.096
11.94,271.672,43.245
11.98,272.795,43.291
12.01,273.672,43.371
12.04,274.445,43.817
12.07,275.813,43.966
12.11,276.585,44.035
12.14,277.322,44.161
12.17,278.27,44.001
12.21,278.621,43.852
12.24,278.972,43.932
12.27,279.709,44.035
12.3,280.165,44.253
12.34,280.692,44.562
12.37,281.744,44.608
12.4,282.13,44.711
12.43,282.516,44.7
12.47,283.253,44.516
12.5,283.289,44.367
12.53,283.253,44.356
12.56,283.64,44.299
12.6,283.359,44.127
12.63,283.289,44.058
12.66,283.289,44.115
12.69,283.218,44.069
12.73,282.867,43.955
12.76,282.201,43.302
12.79,281.744,43.073
12.82,281.288,43.382
12.86,280.972,43.497
12.89,280.446,43.199
12.92,279.744,43.038
12.95,279.393,42.752
12.99,278.34,42.374
13.02,277.217,42.053
13.05,276.796,41.87
13.08,275.813,41.859
13.12,274.62,41.824
13.15,273.918,41.32
13.18,272.585,40.736
13.21,270.76,40.335
13.25,269.461,39.9
13.28,267.882,39.579
13.31,266.232,39.716
13.34,265.601,39.693
13.38,264.162,39.579
13.41,262.828,39.441
13.44,261.916,38.88
13.47,260.02,38.216
13.51,258.301,37.826
13.54,257.283,37.517
13.57,255.212,37.471
13.6,253.844,37.528
13.64,253.177,37.185
13.67,251.176,37.013
13.7,249.632,36.749
13.73,248.93,36.108
13.77,246.263,35.478
13.8,244.614,35.363
13.83,244.087,35.249
13.87,241.841,35.547
13.9,240.929,35.707
13.93,240.297,35.02
13.96,237.946,34.584
14.0,236.401,34.046
14.03,234.892,33.095
14.06,231.874,32.706
14.09,229.909,32.431
14.13,228.259,31.743
14.16,224.925,31.606
14.19,223.17,31.457
14.22,221.416,30.793
14.26,218.152,30.724
14.29,216.888,30.655
14.32,215.309,30.208
14.35,212.326,30.369
14.39,211.624,30.266
14.42,210.291,29.658
14.45,207.097,29.498
14.48,205.939,28.627
14.52,203.412,27.367
14.55,199.095,26.909
14.58,196.744,26.096
14.61,193.445,25.282
14.65,188.953,25.477
14.68,187.689,25.351
14.71,185.373,25.282
14.74,182.249,25.764
14.78,181.828,25.466
14.81,180.038,25.202
14.84,177.617,25.317
14.87,177.09,24.629
14.91,174.985,24.137
14.94,172.353,24.068
14.97,171.335,23.289
15.0,168.738,22.556
15.04,165.579,22.27
15.07,163.754,21.399
15.1,160.876,20.7
15.13,157.472,20.379
15.17,154.77,19.852
15.2,152.769,19.326
15.23,149.646,19.051
15.26,146.242,18.65
15.3,144.487,17.859
15.33,141.75,17.504
15.36,137.643,17.47
15.39,136.31,16.507
15.43,133.678,15.476
15.46,128.413,15.419
15.49,126.448,14.434
15.52,122.728,12.991
15.56,116.376,12.865
15.59,113.673,12.315
15.62,109.532,11.433
15.66,104.022,11.673
15.69,101.987,11.444
15.72,98.723,11.009
15.75,95.319,11.181
15.79,93.915,10.757
15.82,91.142,10.218
15.85,88.896,9.737
15.88,86.334,8.741
15.92,82.474,8.065
15.95,79.701,7.412
15.98,75.981,6.713
16.01,72.05,6.358
16.05,69.383,5.911
16.08,65.944,5.59
16.11,62.961,5.338
16.14,60.609,4.88
16.18,57.591,4.433
16.21,54.573,3.987
16.24,51.625,3.345
16.27,48.221,2.692
16.31,44.325,2.085
16.34,40.359,1.478
16.37,36.745,0.768
16.4,32.779,0.206
16.44,28.954,-0.298
16.47,25.76,-0.974
16.5,22.391,-1.581
16.53,18.846,-2.039
16.57,14.845,-2.497
16.6,10.107,-2.772
16.63,5.054,-2.772
16.66,0.211,-2.669
16.7,-4.387,-2.429
16.73,-8.669,-2.348
16.76,-12.81,-2.211
16.79,-15.758,-1.993
16.83,-18.179,-1.993
16.86,-20.706,-2.177
16.89,-23.022,-2.486
16.92,-24.988,-2.967
16.96,-27.585,-3.379
16.99,-29.936,-3.998
17.02,-32.603,-4.811
17.05,-35.973,-5.579
17.09,-40.395,-6.186
17.12,-45.799,-6.553
17.15,-50.467,-7.08
17.18,-55.345,-7.526
17.22,-60.223,-7.675
17.25,-63.452,-7.87
17.28,-66.576,-8.271
17.32,-69.524,-8.408
17.35,-70.717,-9.142
17.38,-73.489,-9.794
17.41,-76.297,-10.23
17.45,-78.262,-11.204
17.48,-81.702,-11.971
17.51,-85.457,-12.555
17.54,-88.686,-13.529
17.58,-92.511,-14.067
17.61,-95.985,-14.262
17.64,-99.214,-14.606
17.67,-101.811,-15.156
17.71,-104.724,-15.694
17.74,-108.549,-15.992
17.77,-110.55,-16.782
17.8,-114.024,-17.607
17.84,-118.797,-17.55
17.87,-120.166,-18.386
17.9,-123.851,-18.867
17.93,-129.045,-18.558
17.97,-129.887,-19.875
18.0,-134.099,-20.047
18.03,-138.977,-19.646
18.06,-139.258,-21.25
18.1,-143.785,-21.25
18.13,-144.136,-20.746
18.16,-144.733,-22.155
18.19,-147.295,-23.163
18.23,-148.734,-24.71
18.26,-152.84,-25.764
18.29,-155.191,-26.898
18.32,-159.402,-28.158
18.36,-164.491,-28.559
18.39,-166.597,-29.269
18.42,-171.054,-29.693
18.45,-175.195,-29.383
18.49,-176.634,-29.933
18.52,-180.46,-30.266
18.55,-183.618,-30.323
18.58,-184.671,-30.976
18.62,-187.865,-30.804
18.65,-189.83,-30.369
18.68,-190.532,-31.148
18.71,-193.761,-31.686
18.75,-195.305,-31.526
18.78,-196.182,-32.167
18.81,-200.148,-32.637
18.84,-201.762,-32.786
18.88,-202.394,-32.706
18.91,-205.096,-32.316
18.94,-206.255,-32.534
18.97,-207.027,-33.416
19.01,-209.589,-33.336
19.04,-210.782,-33.576
19.07,-212.466,-34.642
19.11,-215.59,-35.065
19.14,-216.608,-34.985
19.17,-218.573,-35.455
19.2,-221.556,-35.638
19.24,-222.679,-35.948
19.27,-224.258,-36.165
19.3,-226.996,-36.142
19.33,-228.014,-36.429
19.37,-229.558,-37.001
19.4,-232.471,-37.311
19.43,-233.488,-37.597
19.46,-235.103,-37.861
19.5,-237.454,-37.792
19.53,-238.612,-38.055
19.56,-240.016,-38.433
19.59,-242.052,-38.559
19.63,-243.315,-38.972
19.66,-245.175,-39.59
19.69,-247.281,-39.705
19.72,-248.369,-39.854
19.76,-250.089,-40.106
19.79,-251.949,-40.14
19.82,-253.107,-40.541
19.85,-254.897,-41.148
19.89,-256.932,-41.412
19.92,-258.231,-41.629
19.95,-259.74,-41.744
19.98,-261.073,-41.538
20.02,-261.88,-41.4
20.05,-262.688,-41.538
20.08,-263.986,-41.79
20.11,-265.109,-42.248
20.15,-266.443,-42.844
20.18,-267.952,-43.119
20.21,-269.215,-43.222
20.24,-270.514,-43.268
20.28,-271.567,-43.336
20.31,-272.725,-43.462
20.34,-273.883,-43.703
20.37,-275.182,-44.047
20.41,-276.34,-44.276
20.44,-277.428,-44.379
20.47,-278.34,-44.276
20.5,-278.972,-44.069
20.54,-279.323,-43.943
20.57,-279.744,-43.783
20.6,-280.06,-43.852
20.63,-280.446,-44.264
20.67,-281.113,-44.39
20.7,-281.393,-44.413
20.73,-281.885,-44.482
20.77,-282.446,-44.31
20.8,-282.271,-44.184
20.83,-282.587,-44.138
20.86,-282.973,-44.253
20.9,-283.008,-44.505
20.93,-283.99,-44.986
20.96,-284.482,-45.112
20.99,-284.727,-44.974
21.03,-285.429,-44.848
21.06,-284.973,-44.23
21.09,-284.166,-43.691
21.12,-284.166,-43.543
21.16,-283.675,-43.6
21.19,-282.446,-43.371
21.22,-281.674,-42.821
21.25,-280.762,-42.317
21.29,-279.112,-42.088
21.32,-277.849,-41.675
21.35,-276.375,-41.171
21.38,-274.76,-41.194
21.42,-273.918,-41.366
21.45,-273.251,-41.217
21.48,-271.672,-41.206
21.51,-271.075,-40.988
21.55,-270.198,-40.461
21.58,-268.233,-40.186
21.61,-267.461,-39.751
21.64,-266.127,-39.533
21.68,-264.583,-39.842
21.71,-264.267,-39.59
21.74,-262.933,-39.189
21.77,-261.319,-39.098
21.81,-260.828,-38.582
21.84,-259.038,-37.998
21.87,-256.897,-37.849
21.9,-256.265,-37.483
21.94,-254.37,-37.139
21.97,-252.264,-37.127
22.0,-251.668,-36.612
22.03,-249.352,-35.902
22.07,-246.509,-35.443
22.1,-245.491,-34.733
22.13,-242.754,-34.412
22.16,-240.262,-34.584
22.2,-239.455,-34.103
22.23,-236.858,-33.828
22.26,-235.068,-34.241
22.29,-234.787,-33.908
22.33,-232.014,-33.416
22.36,-230.33,-33.29
22.39,-230.154,-32.843
22.42,-227.171,-32.751
22.46,-225.803,-32.706
22.49,-225.452,-32.064
22.52,-222.363,-31.972
22.56,-220.924,-31.697
22.59,-219.907,-30.632
22.62,-216.397,-30.392
22.65,-214.713,-30.22
22.69,-213.239,-29.429
22.72,-209.694,-29.418
22.75,-208.22,-29.326
22.78,-206.851,-28.753
22.82,-203.447,-28.627
22.85,-202.008,-28.169
22.88,-200.394,-27.47
22.91,-196.744,-27.585
22.95,-195.515,-27.459
22.98,-193.866,-27.058
23.01,-190.883,-27.321
23.04,-190.111,-26.875
23.08,-188.321,-26.107
23.11,-185.233,-25.878
23.14,-183.829,-25.133
23.17,-181.372,-24.32
23.21,-177.933,-24.171
23.24,-176.283,-23.702
23.27,-173.651,-23.175
23.3,-170.387,-22.888
23.34,-168.141,-22.258
23.37,-165.755,-21.685
23.4,-162.526,-21.33
23.43,-159.718,-20.757
23.47,-157.437,-20.345
23.5,-155.086,-20.379
23.53,-151.646,-19.646
23.56,-149.12,-18.581
23.6,-146.733,-18.168
23.63,-142.873,-17.951
23.66,-140.205,-17.481
23.69,-138.416,-16.668
23.73,-134.801,-16.393
23.76,-131.502,-16.164
23.79,-130.028,-15.305
23.82,-126.518,-14.938
23.86,-123.184,-14.778
23.89,-121.078,-13.827
23.92,-117.113,-13.128
23.95,-113.287,-12.945
23.99,-110.585,-12.338
24.02,-106.725,-11.845
24.05,-102.969,-11.639
24.08,-100.127,-10.952
24.12,-96.371,-10.184
24.15,-92.476,-9.531
24.18,-88.44,-8.821
24.22,-85.001,-8.019
24.25,-81.175,-7.48
24.28,-77.174,-7.32
24.31,-74.297,-6.885
24.35,-71.103,-6.289
24.38,-67.593,-5.842
24.41,-64.61,-5.212
24.44,-61.311,-4.513
24.48,-57.626,-4.135
24.51,-54.398,-3.792
24.54,-51.204,-3.379
24.57,-48.116,-3.024
24.61,-44.992,-2.704
24.64,-41.798,-2.314
24.67,-39.166,-1.684
24.7,-35.657,-1.146
24.74,-32.393,-0.676
24.77,-29.726,0.137
24.8,-25.9,0.848
24.83,-22.426,1.501
24.87,-19.022,2.314
24.9,-14.319,2.91
24.93,-9.09,3.024
24.96,-3.755,2.864
25.0,1.018,2.532
25.03,5.229,2.199
25.06,8.704,1.89
25.09,11.897,1.695
25.13,14.74,1.856
25.16,17.197,2.142
25.19,19.829,2.44
25.22,22.952,2.933
25.26,26.357,3.505
25.29,28.462,4.147
25.32,31.761,4.548
25.35,35.025,5.224
25.39,39.587,5.865
25.42,43.413,6.071
25.45,47.098,6.289
25.48,52.011,6.209
25.52,54.819,6.427
25.55,57.381,6.988
25.58,61.311,7.068
25.61,62.75,7.732
25.65,65.102,8.718
25.68,69.383,8.993
25.71,71.033,9.966
25.74,74.332,10.906
25.78,78.894,11.123
25.81,81.456,12.074
25.84,85.001,12.887
25.87,89.317,13.071
25.91,92.336,13.689
25.94,95.213,14.285
25.97,98.547,14.594
26.01,102.162,14.984
26.04,104.303,15.671
26.07,107.286,16.393
26.1,112.024,16.633
26.14,114.059,17.516
26.17,117.183,18.409
26.2,123.009,18.191
26.23,124.483,18.913
26.27,127.852,19.658
26.3,133.327,19.073
26.33,134.344,19.726
26.36,137.117,20.448
26.4,142.065,20.368
26.43,143.259,21.582
26.46,145.224,22.155
26.49,147.575,22.556
26.53,148.909,23.896
26.56,150.909,24.755
26.59,153.226,25.592
26.62,157.262,26.508
26.66,159.543,27.482
26.69,163.052,28.272
26.72,167.404,28.387
26.75,169.37,28.937
26.79,172.668,29.235
26.82,176.248,29.109
26.85,177.757,29.739
26.88,181.091,30.414
26.92,184.39,30.495
26.95,185.794,31.136
26.98,188.988,31.583
27.01,191.76,31.445
27.05,192.848,31.755
27.08,195.48,32.018
27.11,197.902,32.076
27.14,199.236,32.465
27.18,201.552,32.66
27.21,203.903,32.832
27.24,205.096,33.21
27.27,206.921,33.244
27.31,208.852,33.107
27.34,209.94,33.622
27.37,212.221,34.195
27.4,214.151,34.538
27.44,215.66,35.134
27.47,218.292,35.524
27.5,220.363,35.558
27.53,221.802,35.73
27.57,223.732,35.787
27.6,225.381,35.787
27.63,226.54,36.051
27.66,228.47,36.463
27.7,230.26,36.818
27.73,231.734,37.185
27.76,233.488,37.357
27.8,235.208,37.437
27.83,236.577,37.769
27.86,238.542,38.136
27.89,240.227,38.536
27.93,241.841,39.006
27.96,244.017,39.304
27.99,245.877,39.648
28.02,247.456,39.957
28.06,249.422,39.968
28.09,251.036,40.106
28.12,252.44,40.541
28.15,254.3,40.862
28.19,256.055,41.034
28.22,257.248,41.423
28.25,259.178,41.733
28.28,260.687,41.698
28.32,261.389,41.595
28.35,262.617,41.526
28.38,263.741,41.549
28.41,264.513,42.088
28.45,265.916,42.569
28.48,267.285,42.775
28.51,268.303,43.107
28.54,269.742,43.107
28.58,270.689,42.855
28.61,271.356,43.061
28.64,272.549,43.176
28.67,273.462,43.313
28.71,274.269,43.84
28.74,275.673,44.138
28.77,276.831,44.069
28.8,277.322,44.173
28.84,278.445,44.047
28.87,278.761,43.691
28.9,278.867,43.852
28.93,279.674,44.069
28.97,280.27,44.218
29.0,280.692,44.47
29.03,281.604,44.596
29.06,282.13,44.596
29.1,282.797,44.837
29.13,283.359,44.826
29.16,283.499,44.344
29.19,283.394,44.299
29.23,284.306,44.574
29.26,284.271,44.642
29.29,283.745,44.264
29.32,283.885,43.737
29.36,283.604,43.909
29.39,283.043,43.966
29.42,282.481,43.13
29.46,281.709,42.947
29.49,281.604,43.76
29.52,281.955,43.943
29.55,280.727,43.313
29.59,280.27,42.867
29.62,280.235,42.672
29.65,278.761,42.512
29.68,277.322,41.698
29.72,276.55,41.183
29.75,275.182,41.526
29.78,274.234,41.71
29.81,273.146,40.908
29.85,271.356,40.484
29.88,270.163,40.163
29.91,269.005,39.911
29.94,266.934,39.911
29.98,266.267,39.785
30.01,265.355,39.613
30.04,263.67,39.842
30.07,263.39,39.522
30.11,262.196,38.788
30.14,259.985,38.502
30.17,259.319,38.262
30.2,257.774,37.597
30.24,255.493,37.574
30.27,254.861,37.379
30.3,253.528,37.127
30.33,251.352,37.127
30.37,250.369,36.429
30.4,248.228,35.466
30.43,245.667,35.272
30.46,244.824,35.077
30.5,242.859,34.951
30.53,240.508,35.054
30.56,239.911,34.642
30.59,238.226,34.309
30.63,235.945,34.172
30.66,234.647,33.439
30.69,232.506,32.774
30.72,230.049,32.855
30.76,228.961,32.488
30.79,226.575,31.938
30.82,224.153,31.95
30.85,223.346,31.629
30.89,220.749,31.216
30.92,218.362,31.045
30.95,217.345,30.575
30.98,214.853,30.243
31.02,212.537,30.151
31.05,211.414,29.613
31.08,208.957,29.303
31.11,206.641,29.131
31.15,205.167,28.284
31.18,202.008,27.654
31.21,199.236,27.379
31.25,197.27,26.829
31.28,194.147,26.703
31.31,191.971,26.772
31.34,190.637,26.646
31.38,188.391,26.703
31.41,186.601,26.646
31.44,185.654,26.107
31.47,183.478,25.786
31.51,181.512,25.397
31.54,179.933,24.641
31.57,177.371,24.217
31.6,174.844,23.805
31.64,172.739,22.968
31.67,169.58,22.361
31.7,166.667,21.926
31.73,163.895,21.216
31.77,160.876,20.54
31.8,157.542,20.219
31.83,154.594,19.933
31.86,152.454,19.383
31.9,149.12,18.902
31.93,145.61,18.512
31.96,143.785,17.756
31.99,141.118,17.195
32.03,136.871,17.069
32.06,134.906,16.53
32.09,132.8,15.35
32.12,127.747,14.881
32.16,124.869,14.617
32.19,122.974,13.873
32.22,118.201,13.884
32.25,115.253,13.3
32.29,112.901,12.051
32.32,107.602,12.143
32.35,104.865,12.246
32.38,102.759,11.261
32.42,98.161,10.986
32.45,95.529,10.677
32.48,93.108,9.714
32.51,89.142,9.107
32.55,85.773,8.615
32.58,82.544,7.836
32.61,78.719,7.194
32.64,75.209,6.724
32.68,71.594,6.278
32.71,68.436,5.739
32.74,65.137,5.304
32.77,61.873,5.086
32.81,59.276,4.617
32.84,56.152,4.067
32.87,52.924,3.654
32.91,49.695,3.253
32.94,46.712,2.623
32.97,43.272,2.062
33.0,39.377,1.821
33.04,36.955,1.26
33.07,33.446,0.538
33.1,29.55,0.103
33.13,27.023,-0.768
33.17,23.198,-1.535
33.2,19.478,-2.073
33.23,15.372,-2.692
33.26,10.072,-3.07
33.3,4.597,-3.082
33.33,-0.737,-2.749
33.36,-5.475,-2.509
33.39,-9.897,-2.394
33.43,-13.828,-2.131
33.46,-16.495,-1.959
33.49,-19.057,-2.108
33.52,-21.829,-2.314
33.56,-23.724,-2.726
33.59,-25.97,-3.311
33.62,-29.094,-3.712
33.65,-31.129,-4.376
33.69,-34.253,-4.972
33.72,-37.411,-5.533
33.75,-42.36,-5.945
33.78,-46.747,-6.22
33.82,-50.186,-6.621
33.85,-54.959,-6.575
33.88,-57.942,-6.736
33.91,-60.083,-7.469
33.95,-63.908,-7.767
33.98,-66.26,-8.294
34.01,-68.085,-9.382
34.04,-72.296,-9.806
34.08,-74.928,-10.459
34.11,-77.631,-11.57
34.14,-82.088,-12.04
34.17,-85.527,-12.681
34.21,-88.686,-13.552
34.24,-92.862,-13.93
34.27,-96.477,-14.274
34.3,-99.074,-14.755
34.34,-101.706,-15.213
34.37,-105.531,-15.522
34.4,-108.058,-16.21
34.43,-110.69,-17.0
34.47,-115.182,-17.321
34.5,-118.306,-17.882
34.53,-120.657,-18.673
34.56,-125.571,-18.569
34.6,-128.448,-19.016
34.63,-130.975,-19.933
34.66,-135.538,-19.795
34.7,-138.872,-20.116
34.73,-139.854,-21.158
34.76,-143.329,-21.124
34.79,-144.698,-21.342
34.83,-145.786,-22.613
34.86,-148.172,-23.358
34.89,-150.032,-24.412
34.92,-153.156,-25.466
34.96,-155.823,-26.646
34.99,-159.718,-27.619
35.02,-163.228,-28.307
35.05,-166.457,-28.925
35.09,-170.422,-29.177
35.12,-173.476,-29.338
35.15,-176.038,-29.693
35.18,-179.337,-29.979
35.22,-182.074,-30.346
35.25,-184.425,-30.907
35.28,-187.408,-31.239
35.31,-189.865,-31.319
35.35,-191.585,-31.537
35.38,-193.831,-31.571
35.41,-195.691,-31.526
35.44,-197.06,-31.812
35.48,-199.13,-32.167
35.51,-201.271,-32.385
35.54,-202.71,-32.809
35.57,-204.851,-33.049
35.61,-206.535,-33.038
35.64,-207.764,-33.255
35.67,-209.729,-33.507
35.7,-211.519,-33.805
35.74,-212.888,-34.447
35.77,-215.485,-34.974
35.8,-217.836,-35.329
35.83,-219.205,-35.833
35.87,-221.732,-35.913
35.9,-223.943,-35.856
35.93,-225.066,-36.348
35.96,-227.628,-36.681
36.0,-229.417,-36.681
36.03,-230.646,-37.242
36.06,-233.418,-37.757
36.09,-235.103,-37.746
36.13,-236.121,-37.895
36.16,-238.612,-37.998
36.19,-239.806,-38.193
36.22,-240.964,-38.605
36.26,-243.245,-38.64
36.29,-244.298,-38.949
36.32,-245.702,-39.476
36.36,-247.878,-39.396
36.39,-248.544,-39.384
36.42,-249.738,-39.751
36.45,-251.738,-39.865
36.49,-252.545,-40.255
36.52,-254.019,-40.839
36.55,-256.265,-41.137
36.58,-257.494,-41.446
36.62,-259.003,-41.744
36.65,-260.898,-41.595
36.68,-261.6,-41.641
36.71,-262.933,-41.893
36.75,-264.478,-41.996
36.78,-265.495,-42.626
36.81,-267.32,-43.187
36.84,-268.935,-43.176
36.88,-269.777,-43.336
36.91,-271.216,-43.394
36.94,-272.514,-43.165
36.97,-273.006,-43.371
37.01,-274.234,-43.749
37.04,-275.638,-43.726
37.07,-276.059,-44.138
37.1,-277.287,-44.356
37.14,-278.165,-43.955
37.17,-278.305,-43.989
37.2,-279.007,-43.852
37.23,-279.358,-43.508
37.27,-279.288,-43.817
37.3,-280.13,-44.104
37.33,-280.551,-44.138
37.36,-280.762,-44.356
37.4,-281.569,-44.402
37.43,-281.99,-44.276
37.46,-281.955,-44.356
37.49,-282.376,-44.207
37.53,-282.832,-44.207
37.56,-282.622,-44.39
37.59,-283.359,-44.459
37.62,-283.675,-44.574
37.66,-283.604,-44.654
37.69,-284.096,-44.459
37.72,-283.569,-43.852
37.75,-282.797,-43.543
37.79,-282.938,-43.451
37.82,-282.411,-43.451
37.85,-281.429,-43.405
37.88,-281.288,-43.016
37.92,-280.341,-42.592
37.95,-279.042,-42.374
37.98,-278.2,-41.904
38.01,-276.796,-41.595
38.05,-275.708,-41.675
38.08,-275.076,-41.698
38.11,-273.918,-41.607
38.15,-273.041,-41.412
38.18,-272.234,-40.885
38.21,-270.479,-40.427
38.24,-269.145,-39.968
38.28,-267.812,-39.499
38.31,-266.092,-39.487
38.34,-265.039,-39.522
38.37,-263.881,-39.407
38.41,-262.688,-39.27
38.44,-261.53,-38.914
38.47,-260.266,-38.399
38.5,-258.617,-38.021
38.54,-257.108,-37.78
38.57,-255.844,-37.483
38.6,-254.019,-37.299
38.63,-252.686,-37.105
38.67,-251.387,-36.726
38.7,-249.281,-36.337
38.73,-247.386,-35.535
38.76,-245.737,-35.02
38.8,-243.631,-35.157
38.83,-242.052,-34.985
38.86,-240.332,-34.481
38.89,-238.191,-34.172
38.93,-236.752,-34.069
38.96,-235.138,-33.645
38.99,-232.681,-33.175
39.02,-231.032,-32.809
39.06,-229.453,-32.602
39.09,-227.206,-32.568
39.12,-225.557,-32.316
39.15,-224.399,-32.179
39.19,-222.82,-32.259
39.22,-221.1,-31.938
39.25,-219.731,-31.056
39.28,-217.38,-30.609
39.32,-215.344,-30.46
39.35,-213.835,-29.899
39.38,-211.168,-29.601
39.41,-209.203,-29.464
39.45,-207.658,-29.017
39.48,-204.921,-28.616
39.51,-202.815,-28.1
39.54,-200.99,-27.47
39.58,-197.797,-27.264
39.61,-195.375,-27.127
39.64,-193.655,-26.795
39.67,-190.988,-26.817
39.71,-189.198,-26.68
39.74,-187.83,-26.05
39.77,-185.022,-25.695
39.81,-182.811,-25.328
39.84,-181.372,-24.458
39.87,-178.108,-24.148
39.9,-175.792,-23.999
39.94,-174.178,-23.301
39.97,-170.914,-22.854
40.0,-168.141,-22.361
40.03,-166.141,-21.559
40.07,-162.701,-21.113
40.1,-159.297,-20.643
40.13,-157.262,-19.967
40.16,-154.63,-19.864
40.2,-151.19,-19.704
40.23,-148.944,-18.947
40.26,-146.803,-18.157
40.29,-142.627,-17.836
40.33,-139.503,-17.275
40.36,-138.416,-16.118
40.39,-133.853,-15.958
40.42,-129.887,-15.889
40.46,-129.466,-14.675
40.49,-124.693,-14.308
40.52,-120.412,-14.388
40.55,-119.675,-13.208
40.59,-114.481,-12.807
40.62,-110.48,-13.197
40.65,-109.813,-12.223
40.68,-104.794,-11.822
40.72,-101.39,-12.028
40.75,-100.232,-10.94
40.78,-95.599,-10.31
40.81,-92.441,-10.001
40.85,-89.738,-8.993
40.88,-85.597,-8.328
40.91,-82.333,-7.778
40.94,-78.578,-7.148
40.98,-74.753,-6.656
41.01,-71.664,-6.14
41.04,-67.839,-5.728
41.07,-64.786,-5.304
41.11,-61.908,-4.811
41.14,-58.398,-4.536
41.17,-55.345,-4.113
41.2,-52.502,-3.517
41.24,-49.239,-3.093
41.27,-45.869,-2.818
41.3,-43.132,-2.303
41.33,-40.044,-1.627
41.37,-35.902,-1.146
41.4,-33.025,-0.458
41.43,-29.585,0.355
41.46,-25.584,0.768
41.5,-22.601,1.478
41.53,-19.197,2.44
41.56,-14.424,2.921
41.6,-8.914,3.127
41.63,-3.194,3.23
41.66,2.281,2.875
41.69,6.879,2.337
41.73,10.669,1.97
41.76,13.792,1.684
41.79,15.793,1.524
41.82,17.618,1.546
41.86,19.548,1.913
41.89,22.321,2.463
41.92,24.777,3.116
41.95,27.444,3.987
41.99,31.129,4.697
42.02,34.534,5.487
42.05,39.026,6.037
42.08,43.202,6.518
42.12,48.361,6.759
42.15,52.959,6.759
42.18,56.538,6.862
42.21,59.767,6.976
42.25,62.575,7.171
42.28,64.189,7.732
42.31,66.646,8.385
42.34,69.453,9.004
42.38,71.664,9.955
42.41,74.858,10.677
42.44,78.508,11.192
42.47,81.526,12.074
42.51,85.176,12.796
42.54,89.177,13.208
42.57,92.3,13.827
42.6,95.564,14.331
42.64,99.039,14.571
42.67,101.741,15.064
42.7,104.584,15.602
42.73,107.672,16.118
42.77,111.041,16.725
42.8,114.165,17.309
42.83,117.288,17.962
42.86,121.289,18.203
42.9,124.307,18.535
42.93,127.08,19.188
42.96,131.502,19.429
42.99,134.45,19.875
43.03,136.942,20.631
43.06,142.241,20.918
43.09,142.908,21.937
43.12,145.224,22.441
43.16,147.856,22.556
43.19,149.541,23.999
43.22,152.313,24.95
43.26,154.243,25.672
43.29,157.718,26.657
43.32,160.982,27.367
43.35,163.509,28.1
43.39,167.334,28.387
43.42,170.071,28.616
43.45,172.423,29.051
43.48,175.932,29.12
43.52,178.143,29.487
43.55,180.424,30.243
43.58,183.969,30.518
43.61,185.97,30.873
43.65,188.11,31.457
43.68,191.374,31.457
43.71,192.883,31.571
43.74,194.708,32.087
43.78,197.867,32.167
43.81,199.165,32.431
43.84,201.341,32.877
43.87,204.114,32.797
43.91,204.886,33.015
43.94,206.325,32.9
43.97,208.781,32.751
44.0,209.624,33.645
44.04,211.449,34.298
44.07,213.905,34.092
44.1,214.923,34.596
44.13,217.345,35.581
44.17,220.117,35.501
44.2,220.784,35.547
44.23,222.995,35.936
44.26,225.803,36.039
44.3,226.469,36.463
44.33,228.786,36.898
44.36,231.418,37.105
44.39,232.33,37.62
44.43,234.471,37.643
44.46,236.296,37.311
44.49,237.033,37.78
44.52,239.314,38.273
44.56,241.034,38.353
44.59,242.017,38.937
44.62,244.579,39.453
44.65,246.719,39.739
44.69,247.632,40.152
44.72,250.018,40.072
44.75,251.633,40.003
44.78,252.545,40.553
44.82,254.861,40.77
44.85,256.09,40.919
44.88,257.318,41.412
44.91,259.529,41.549
44.95,260.336,41.492
44.98,261.179,41.515
45.01,262.617,41.194
45.05,263.039,41.389
45.08,264.021,41.996
45.11,265.636,42.191
45.14,266.513,42.66
45.18,268.057,43.119
45.21,269.426,43.05
45.24,270.303,43.05
45.27,271.321,43.176
45.31,272.514,43.176
45.34,273.357,43.405
45.37,274.409,43.829
45.4,275.708,44.024
45.44,276.55,44.15
45.47,277.393,44.15
45.5,278.27,43.932
45.53,278.481,43.829
45.57,278.902,43.76
45.6,279.288,43.646
45.63,279.568,43.921
45.66,280.06,44.161
45.7,280.656,44.15
45.73,280.727,44.207
45.76,281.709,44.528
45.79,282.411,44.654
45.83,282.446,44.516
45.86,283.218,44.528
45.89,284.026,44.768
45.92,284.306,45.1
45.96,284.622,44.837
45.99,284.903,44.356
46.02,284.798,44.39
46.05,284.587,44.241
46.09,283.499,43.233
46.12,282.762,42.89
46.15,282.376,43.302
46.18,281.815,43.359
46.22,280.692,42.981
46.25,279.99,42.66
46.28,279.393,42.351
46.31,277.849,42.053
46.35,276.691,41.71
46.38,276.024,41.538
46.41,274.76,41.733
46.44,274.094,41.721
46.48,273.392,41.274
46.51,271.918,40.965
46.54,270.76,40.541
46.57,269.531,39.968
46.61,267.847,39.636
46.64,266.478,39.602
46.67,265.39,39.499
46.71,264.021,39.384
46.74,262.863,39.281
46.77,261.88,38.914
46.8,260.231,38.582
46.84,258.897,38.262
46.87,257.809,37.849
46.9,256.055,37.746
46.93,254.897,37.643
46.97,253.914,37.322
47.0,251.878,37.059
47.03,250.439,36.452
47.06,248.825,35.489
47.1,245.982,35.1
47.13,244.157,35.054
47.16,242.894,34.733
47.19,240.437,34.733
47.23,239.279,34.768
47.26,238.156,34.309
47.29,235.664,34.057
47.32,234.261,33.622
47.36,232.787,32.866
47.39,229.803,32.637
47.42,228.189,32.339
47.45,226.434,31.675
47.49,223.416,31.629
47.52,222.083,31.503
47.55,220.398,30.815
47.58,217.169,30.655
47.62,216.081,30.414
47.65,214.221,29.91
47.68,211.133,29.956
47.71,210.361,29.67
47.75,208.501,29.292
47.78,205.588,29.395
47.81,204.956,28.685
47.84,202.394,27.986
47.88,199.306,27.997
47.91,198.463,27.39
47.94,195.761,27.104
47.97,192.953,27.459
48.01,192.673,27.058
48.04,190.321,26.772
48.07,187.689,26.76
48.1,187.233,25.844
48.14,184.25,25.351
48.17,181.442,25.076
48.2,180.144,24.114
48.23,177.02,23.656
48.27,173.862,23.53
48.3,172.177,22.59
48.33,168.773,22.006
48.36,165.439,21.8
48.4,163.193,20.987
48.43,160.104,20.391
48.46,156.63,20.265
48.5,154.314,19.887
48.53,152.243,19.371
48.56,148.698,18.982
48.59,145.54,18.466
48.63,144.101,17.63
48.66,140.732,17.206
48.69,136.555,17.046
48.72,135.503,16.003
48.76,132.063,15.156
48.79,126.799,15.064
48.82,125.325,14.056
48.85,121.359,13.38
48.89,116.306,13.804
48.92,115.358,13.231
48.95,111.638,12.635
48.98,107.637,13.014
49.02,106.83,12.441
49.05,103.285,11.685
49.08,99.635,11.513
49.11,97.67,10.516
49.15,93.459,9.657
49.18,90.089,9.13
49.21,86.615,8.271
49.24,82.158,7.732
49.28,79.14,7.148
49.31,75.209,6.633
49.34,71.349,6.335
49.37,68.611,5.728
49.41,64.856,5.247
49.44,61.592,4.949
49.47,58.82,4.41
49.5,55.45,3.998
49.54,52.222,3.666
49.57,49.449,3.173
49.6,46.291,2.623
49.63,42.781,2.245
49.67,39.517,1.787
49.7,36.569,1.123
49.73,33.025,0.63
49.76,29.866,0.137
49.8,26.988,-0.561
49.83,23.654,-1.214
49.86,20.215,-1.867
49.89,16.354,-2.566
49.93,11.23,-3.059
49.96,5.44,-3.265
49.99,-0.351,-3.15
50.02,-5.826,-2.841
50.06,-10.458,-2.406
50.09,-14.284,-1.993
50.12,-16.705,-1.799
50.16,-18.846,-1.799
50.19,-21.057,-2.016
50.22,-23.198,-2.509
50.25,-25.444,-3.162
50.29,-28.252,-3.723
50.32,-30.814,-4.387
50.35,-33.832,-5.098
50.38,-37.341,-5.716
50.42,-41.904,-6.049
50.45,-46.677,-6.186
50.48,-50.572,-6.358
50.51,-54.292,-6.472
50.55,-57.661,-6.621
50.58,-59.943,-7.171
50.61,-62.961,-7.79
50.64,-65.979,-8.34
50.68,-68.225,-9.325
50.71,-72.015,-10.001
50.74,-75.42,-10.573
50.77,-78.087,-11.501
50.81,-82.158,-12.109
50.84,-85.878,-12.59
50.87,-89.282,-13.644
50.9,-94.055,-14.881
50.94,-98.793,-15.843
50.97,-103.601,-16.324
51.0,-107.216,-16.737
51.03,-111.111,-17.195
51.07,-115.428,-17.16
51.1,-116.867,-17.584
51.13,-120.026,-17.71
51.16,-123.395,-17.218
51.2,-123.465,-17.962
51.23,-126.308,-18.123
51.26,-129.607,-17.859
51.29,-129.747,-19.406
51.33,-134.415,-19.978
51.36,-138.029,-20.047
51.39,-139.398,-21.834
51.42,-144.768,-21.995
51.46,-146.031,-22.636
51.49,-148.698,-23.805
51.52,-151.12,-24.354
51.55,-153.542,-25.924
51.59,-157.683,-26.852
51.62,-159.894,-27.837
51.65,-164.456,-28.616
51.68,-168.668,-28.891
51.72,-170.563,-29.59
51.75,-174.599,-29.567
51.78,-177.898,-29.246
51.81,-179.056,-30.071
51.85,-182.881,-30.46
51.88,-185.548,-30.323
51.91,-186.461,-30.976
51.95,-189.865,-31.262
51.98,-191.795,-31.079
52.01,-192.462,-31.434
52.04,-195.515,-31.423
52.08,-196.779,-31.537
52.11,-197.867,-32.305
52.14,-201.166,-32.385
52.17,-202.359,-32.557
52.21,-203.763,-33.198
52.24,-206.781,-33.141
52.27,-207.588,-33.095
52.3,-208.957,-33.645
52.34,-211.975,-33.851
52.37,-213.063,-34.344
52.4,-214.853,-35.065
52.43,-217.906,-35.18
52.47,-219.135,-35.547
52.5,-221.1,-35.925
52.53,-223.627,-35.569
52.56,-224.399,-35.764
52.6,-226.505,-36.429
52.63,-228.856,-36.589
52.66,-229.593,-36.91
52.69,-231.699,-37.242
52.73,-234.19,-37.345
52.76,-235.033,-37.746
52.79,-236.787,-37.941
52.82,-238.893,-37.872
52.86,-239.981,-38.491
52.89,-241.946,-39.098
52.92,-244.263,-39.201
52.95,-245.842,-39.831
52.99,-248.158,-40.484
53.02,-250.264,-40.312
53.05,-251.212,-40.232
53.08,-253.072,-40.404
53.12,-254.861,-40.679
53.15,-255.774,-41.034
53.18,-257.529,-41.251
53.21,-259.003,-41.286
53.25,-259.81,-41.446
53.28,-261.249,-41.435
53.31,-262.091,-41.309
53.34,-262.828,-41.641
53.38,-264.267,-42.065
53.41,-265.671,-42.431
53.44,-266.934,-43.004
53.47,-268.478,-43.222
53.51,-269.882,-43.187
53.54,-270.724,-43.165
53.57,-272.058,-43.256
53.61,-270.83,-41.778
53.64,-265.074,-36.532
53.67,-259.143,-32.144
53.7,-254.897,-32.511
53.74,-250.755,-34.63
53.77,-247.386,-35.535
53.8,-246.614,-36.623
53.83,-248.228,-39.464
53.87,-251.457,-42.317
53.9,-255.423,-44.047
53.93,-260.652,-45.788
53.96,-266.969,-47.655
54.0,-271.918,-48.01
54.03,-275.392,-47.082
54.06,-278.972,-46.2
54.09,-281.464,-45.891
54.13,-282.973,-45.879
54.16,-284.131,-45.421
54.19,-284.727,-44.929
54.22,-284.868,-44.505
54.26,-284.657,-43.966
54.29,-284.026,-43.543
54.32,-283.359,-43.405
54.35,-282.657,-43.325
54.39,-282.13,-43.153
54.42,-281.393,-43.187
54.45,-281.218,-43.451
54.48,-281.253,-43.634
54.52,-281.007,-43.749
54.55,-281.183,-43.714
54.58,-280.937,-43.405
54.61,-280.025,-42.947
54.65,-279.323,-42.397
54.68,-278.375,-41.939
54.71,-277.007,-41.859
54.74,-276.199,-41.755
54.78,-275.182,-41.481
54.81,-273.602,-41.355
54.84,-272.76,-40.999
54.87,-271.497,-40.324
54.91,-269.25,-39.98
54.94,-268.338,-39.739
54.97,-266.934,-39.636
55.0,-265.285,-39.831
55.04,-264.793,-39.648
55.07,-263.425,-39.464
55.1,-262.091,-39.258
55.13,-261.143,-38.582
55.17,-259.389,-38.055
55.2,-257.564,-37.975
55.23,-256.897,-37.654
55.26,-254.861,-37.368
55.3,-253.072,-37.334
55.33,-252.475,-36.921
55.36,-250.194,-36.417
55.4,-248.123,-36.016
55.43,-247.07,-35.352
55.46,-244.473,-35.134
55.49,-242.543,-35.226
55.53,-241.911,-34.745
55.56,-239.42,-34.676
55.59,-238.121,-34.802
55.62,-237.279,-34.183
55.66,-234.506,-33.714
55.69,-233.138,-33.53
55.72,-232.225,-32.935
55.75,-229.137,-32.763
55.79,-227.838,-32.557
55.82,-226.61,-31.835
55.85,-223.135,-31.686
55.88,-221.626,-31.216
55.92,-219.696,-30.208
55.95,-215.976,-30.071
55.98,-214.572,-30.002
56.01,-212.958,-29.578
56.05,-209.694,-29.739
56.08,-208.852,-29.647
56.11,-207.307,-29.017
56.14,-203.938,-28.765
56.18,-202.85,-28.192
56.21,-201.096,-27.562
56.24,-197.27,-27.745
56.27,-196.217,-27.425
56.31,-194.322,-26.989
56.34,-191.234,-27.138
56.37,-190.392,-26.554
56.4,-188.005,-25.924
56.44,-184.882,-25.764
56.47,-183.759,-25.053
56.5,-181.091,-24.526
56.53,-178.178,-24.561
56.57,-177.02,-24.091
56.6,-174.213,-23.541
56.63,-171.335,-23.175
56.66,-169.37,-22.373
56.7,-166.492,-21.903
56.73,-163.474,-21.468
56.76,-160.631,-20.7
56.79,-157.964,-20.23
56.83,-155.086,-20.116
56.86,-152.138,-19.692
56.89,-149.927,-19.119
56.92,-147.224,-18.673
56.96,-143.68,-18.306
56.99,-141.399,-17.584
57.02,-139.468,-16.977
57.05,-135.678,-16.943
57.09,-133.116,-16.336
57.12,-131.151,-15.305
57.15,-126.869,-14.961
57.19,-123.781,-14.445
57.22,-120.868,-13.323
57.25,-116.025,-12.796
57.28,-112.305,-12.555
57.32,-109.251,-12.04
57.35,-105.215,-11.879
57.38,-102.127,-11.708
57.41,-99.495,-11.192
57.45,-96.196,-10.631
57.48,-92.897,-9.955
57.51,-89.352,-9.164
57.54,-86.229,-8.431
57.58,-82.509,-7.893
57.61,-78.578,-7.561
57.64,-75.876,-6.954
57.67,-72.612,-6.449
57.71,-69.067,-6.094
57.74,-66.154,-5.35
57.77,-62.54,-4.628
57.8,-58.855,-4.296
57.84,-55.591,-3.918
57.87,-52.222,-3.46
57.9,-48.993,-3.07
57.93,-45.764,-2.761
57.97,-42.535,-2.245
58.0,-39.447,-1.512
58.03,-35.692,-0.997
58.06,-32.428,-0.561
58.1,-29.585,0.069
58.13,-26.041,0.607
58.16,-23.022,1.203
58.19,-20.145,1.867
58.23,-16.319,2.314
58.26,-12.073,2.612
58.29,-7.124,2.83
58.32,-1.93,2.933
58.36,3.229,2.864
58.39,8.107,2.658
58.42,12.669,2.337
58.45,16.003,2.222
58.49,18.811,2.348
58.52,21.478,2.612
58.55,24.602,3.15
58.58,27.515,3.631
58.62,29.796,4.296
58.65,33.06,4.857
58.68,36.394,5.441
58.71,41.096,5.751
58.75,44.711,6.071
58.78,48.466,6.427
58.81,52.994,6.255
58.85,55.45,6.346
58.88,57.907,6.862
58.91,61.311,7.034
58.94,62.61,7.744
58.98,65.031,8.511
59.01,68.646,8.763
59.04,70.401,9.84
59.07,73.911,10.906
59.11,78.192,11.112
59.14,80.789,12.017
59.17,84.72,12.899
59.2,89.072,13.14
59.24,91.985,13.609
59.27,94.968,14.136
59.3,98.267,14.56
59.33,101.776,14.972
59.37,103.812,15.602
59.4,107.04,16.301
59.43,111.708,16.759
59.46,113.568,17.573
59.5,117.148,18.111
59.53,122.307,17.825
59.56,123.325,18.695
59.59,126.764,19.108
59.63,131.642,18.65
59.66,132.414,19.91
59.69,136.31,20.368
59.72,140.486,20.185
59.76,141.434,21.651
59.79,144.487,21.949
59.82,146.698,22.304
59.85,148.312,23.828
59.89,150.418,24.664
59.92,152.945,25.534
59.95,156.77,26.405
59.98,158.911,27.459
60.02,162.737,28.123
60.05,166.702,28.249
60.08,168.738,28.96
60.11,172.528,29.223
60.15,175.827,29.143
60.18,177.441,29.899
60.21,181.126,30.414
60.24,183.934,30.495
60.28,185.583,31.125
60.31,188.988,31.365
60.34,191.234,31.319
60.37,192.427,31.755
60.41,195.34,31.995
60.44,197.516,32.133
60.47,198.814,32.763
60.5,201.973,32.923
60.54,204.008,32.912
60.57,205.026,33.29
60.6,207.307,33.175
60.64,208.711,33.049
60.67,209.834,33.633
60.7,212.256,34.126
60.73,213.87,34.424
60.77,215.414,35.031
60.8,218.187,35.363
60.83,219.626,35.512
60.86,221.205,35.695
60.9,223.592,35.753
60.93,225.171,36.039
60.96,226.82,36.555
60.99,229.137,36.944
61.03,230.856,37.196
61.06,232.576,37.505
61.09,234.612,37.609
61.12,236.086,37.62
61.16,237.489,37.838
61.19,239.42,38.262
61.22,241.034,38.766
61.25,242.859,39.201
61.29,244.965,39.59
61.32,246.754,39.842
61.35,248.228,39.911
61.38,250.018,39.911
61.42,251.457,40.072
61.45,252.65,40.404
61.48,254.23,40.621
61.51,255.774,40.873
61.55,257.072,41.263
61.58,258.722,41.538
61.61,260.126,41.469
61.64,260.793,41.492
61.68,261.916,41.492
61.71,263.109,41.458
61.74,263.811,41.985
61.77,265.46,42.466
61.81,266.759,42.775
61.84,268.057,43.199
61.87,269.461,43.21
61.9,270.444,43.096
61.94,271.391,43.153
61.97,272.514,43.256
62.0,273.567,43.405
62.03,274.374,43.886
62.07,275.778,44.138
62.1,276.761,44.127
62.13,277.498,44.218
62.16,278.375,44.161
62.2,278.902,43.943
62.23,279.077,43.886
62.26,279.674,43.955
62.3,280.446,44.333
62.33,280.727,44.493
62.36,281.393,44.413
62.39,281.885,44.505
62.43,282.236,44.562
62.46,282.867,44.493
62.49,282.973,44.39
62.52,283.253,44.665
62.56,284.061,44.734
62.59,284.166,44.757
62.62,284.341,44.722
62.65,284.587,44.253
62.69,283.85,43.966
62.72,283.429,43.703
62.75,282.903,43.199
62.78,281.85,43.199
62.82,281.604,43.451
62.85,281.323,43.405
62.88,280.481,43.268
62.91,280.095,42.981
62.95,279.568,42.5
62.98,278.059,42.237
63.01,277.182,41.881
63.04,276.48,41.572
63.08,275.006,41.71
63.11,274.304,41.618
63.14,273.392,41.171
63.17,271.672,40.908
63.21,270.865,40.495
63.24,269.426,39.968
63.27,267.32,39.865
63.3,266.724,39.682
63.34,265.53,39.441
63.37,263.67,39.579
63.4,263.214,39.373
63.43,261.916,38.869
63.47,259.915,38.674
63.5,259.319,38.216
63.53,257.774,37.803
63.56,255.774,37.815
63.6,255.072,37.494
63.63,253.528,37.127
63.66,251.527,37.047
63.69,250.72,36.429
63.73,248.334,35.73
63.76,246.123,35.489
63.79,245.07,35.077
63.82,242.578,34.813
63.86,240.613,34.756
63.89,239.384,34.309
63.92,236.787,33.714
63.95,234.436,33.313
63.99,232.927,32.66
64.02,230.26,32.339
64.05,227.803,32.339
64.09,226.505,31.812
64.12,223.662,31.64
64.15,221.977,31.789
64.18,220.995,31.537
64.22,218.433,31.331
64.25,216.888,31.067
64.28,215.976,30.609
64.31,213.625,30.655
64.35,212.186,30.529
64.38,211.028,29.979
64.41,208.957,29.819
64.44,207.343,29.658
64.48,205.869,28.879
64.51,203.061,28.295
64.54,201.201,27.906
64.57,199.025,27.425
64.61,195.796,27.253
64.64,193.866,26.989
64.67,192.041,26.76
64.7,189.655,26.691
64.74,187.689,26.29
64.77,185.97,25.66
64.8,183.267,25.351
64.83,181.126,24.893
64.87,179.091,24.183
64.9,176.213,23.908
64.93,173.897,23.564
64.96,171.475,22.877
65.0,168.527,22.373
65.03,165.72,21.846
65.06,163.123,21.25
65.09,160.21,20.723
65.13,157.086,20.448
65.16,154.419,19.978
65.19,152.278,19.52
65.22,149.26,19.463
65.26,146.593,19.039
65.29,144.768,18.283
65.32,141.785,17.756
65.35,138.275,17.344
65.39,136.24,16.359
65.42,133.292,15.637
65.45,128.764,15.431
65.48,126.273,14.652
65.52,123.43,13.712
65.55,118.587,13.632
65.58,115.849,13.266
65.61,112.971,12.372
65.65,108.199,12.441
65.68,105.988,12.349
65.71,103.461,11.524
65.75,99.074,11.284
65.78,96.512,10.677
65.81,93.459,9.439
65.84,88.651,8.706
65.88,84.79,8.145
65.91,81.21,7.458
65.94,77.245,7.068
65.97,73.805,6.862
66.01,70.822,6.461
66.04,68.155,5.934
66.07,65.031,5.464
66.1,61.908,4.983
66.14,58.995,4.387
66.17,55.801,3.941
66.2,52.502,3.631
66.23,49.309,3.276
66.27,46.536,2.749
66.3,43.097,2.234
66.33,39.517,1.764
66.36,36.745,0.985
66.4,32.779,0.321
66.43,29.094,-0.126
66.46,26.286,-0.962
66.49,22.426,-1.615
66.53,19.022,-2.051
66.56,15.021,-2.543
66.59,10.178,-2.784
66.62,5.124,-2.784
66.66,0.281,-2.612
66.69,-4.211,-2.371
66.72,-8.142,-2.073
66.75,-11.581,-1.821
66.79,-14.565,-1.833
66.82,-17.021,-2.142
66.85,-20.039,-2.463
66.88,-22.531,-2.967
66.92,-25.795,-3.62
66.95,-29.234,-4.181
66.98,-32.042,-5.029
67.01,-35.762,-5.659
67.05,-39.798,-6.209
67.08,-45.343,-6.369
67.11,-49.554,-6.472
67.14,-53.134,-6.69
67.18,-57.381,-6.484
67.21,-59.276,-6.724
67.24,-61.136,-7.412
67.27,-64.435,-7.698
67.31,-65.979,-8.511
67.34,-68.401,-9.474
67.37,-72.261,-9.84
67.4,-74.683,-10.665
67.44,-77.841,-11.524
67.47,-81.842,-11.776
67.5,-84.615,-12.315
67.54,-87.527,-12.899
67.57,-90.932,-13.22
67.6,-93.95,-13.85
67.63,-96.652,-14.537
67.67,-100.127,-15.098
67.7,-104.268,-15.786
67.73,-107.426,-16.885
67.76,-111.497,-17.802
67.8,-116.832,-18.031
67.83,-119.85,-18.604
67.86,-123.325,-19.119
67.89,-128.378,-18.97
67.93,-130.309,-19.222
67.96,-132.976,-19.406
67.99,-136.626,-19.165
68.02,-137.889,-19.875
68.06,-139.258,-20.792
68.09,-142.381,-21.113
68.12,-143.645,-22.075
68.15,-145.786,-23.152
68.19,-148.593,-23.896
68.22,-150.909,-25.111
68.25,-153.857,-26.05
68.28,-156.876,-26.932
68.32,-160.771,-27.631
68.35,-163.824,-28.272
68.38,-167.159,-28.845
68.41,-170.844,-29.074
68.45,-173.441,-29.349
68.48,-176.213,-29.601
68.51,-179.372,-29.796
68.54,-181.548,-30.231
68.58,-184.039,-30.689
68.61,-186.742,-30.815
68.64,-188.882,-31.171
68.67,-191.093,-31.675
68.71,-193.41,-31.766
68.74,-195.129,-31.743
68.77,-196.989,-32.03
68.8,-199.306,-32.293
68.84,-200.955,-32.408
68.87,-202.324,-32.465
68.9,-204.008,-32.476
68.93,-205.412,-32.706
68.97,-206.781,-33.107
69.0,-208.606,-33.381
69.03,-210.255,-33.817
69.06,-212.08,-34.412
69.1,-214.397,-34.939
69.13,-216.678,-35.26
69.16,-218.573,-35.707
69.2,-221.1,-35.913
69.23,-222.995,-36.051
69.26,-224.68,-36.337
69.29,-226.891,-36.509
69.33,-228.61,-36.704
69.36,-230.049,-37.127
69.39,-232.365,-37.265
69.42,-233.875,-37.414
69.46,-235.278,-37.861
69.49,-237.454,-38.032
69.52,-239.139,-38.491
69.55,-240.964,-39.098
69.59,-243.315,-39.247
69.62,-244.614,-39.43
69.65,-246.509,-39.751
69.68,-248.579,-39.751
69.72,-249.422,-39.934
69.75,-251.036,-40.186
69.78,-252.826,-40.175
69.81,-253.493,-40.438
69.85,-255.037,-40.816
69.88,-256.897,-41.011
69.91,-257.739,-41.377
69.94,-259.283,-41.71
69.98,-260.933,-41.607
70.01,-261.6,-41.744
70.04,-262.898,-41.824
70.07,-264.127,-41.79
70.11,-264.899,-42.42
70.14,-266.513,-42.867
70.17,-267.741,-42.775
70.2,-267.987,-42.569
70.24,-268.689,-42.156
70.27,-269.18,-41.721
70.3,-268.864,-42.134
70.33,-269.987,-42.626
70.37,-270.9,-42.89
70.4,-271.567,-43.726
70.43,-273.532,-44.299
70.46,-275.111,-44.367
70.5,-276.234,-44.917
70.53,-278.235,-45.043
70.56,-279.498,-44.963
70.59,-280.656,-45.398
70.63,-282.692,-45.708
70.66,-283.534,-45.57
70.69,-284.341,-45.501
70.72,-285.429,-45.238
70.76,-285.429,-44.78
70.79,-285.464,-44.768
70.82,-285.815,-44.745
70.85,-285.745,-44.574
70.89,-285.359,-44.596
70.92,-285.64,-44.505
70.95,-285.324,-44.413
70.99,-284.727,-44.207
71.02,-284.517,-43.852
71.05,-283.675,-43.6
71.08,-282.867,-43.394
71.12,-282.411,-43.291
71.15,-281.779,-43.428
71.18,-281.288,-43.508
71.21,-280.937,-43.21
71.25,-279.919,-42.878
71.28,-279.182,-42.546
71.31,-278.305,-42.088
71.34,-276.866,-41.836
71.38,-275.919,-41.767
71.41,-275.252,-41.572
71.44,-273.602,-41.458
71.47,-272.69,-41.148
71.51,-271.321,-40.576
71.54,-269.601,-40.278
71.57,-268.513,-39.98
71.6,-267.004,-39.636
71.64,-265.355,-39.522
71.67,-264.337,-39.441
71.7,-263.214,-39.27
71.73,-261.775,-39.178
71.77,-260.652,-38.8
71.8,-259.248,-38.33
71.83,-257.704,-37.941
71.86,-256.195,-37.609
71.9,-254.686,-37.357
71.93,-252.931,-37.242
71.96,-251.878,-37.013
71.99,-250.299,-36.715
72.03,-248.334,-36.314
72.06,-246.825,-35.627
72.09,-244.789,-35.1
72.12,-242.508,-34.882
72.16,-240.929,-34.63
72.19,-239.139,-34.286
72.22,-237.314,-34.493
72.25,-236.542,-34.619
72.29,-234.927,-34.172
72.32,-232.892,-33.702
72.35,-231.734,-33.221
72.38,-229.768,-32.855
72.42,-227.557,-32.499
72.45,-225.732,-31.904
72.48,-223.557,-31.308
72.51,-221.03,-30.999
72.55,-218.924,-30.712
72.58,-216.853,-30.369
72.61,-214.432,-30.185
72.65,-212.466,-29.979
72.68,-210.747,-29.75
72.71,-208.676,-29.67
72.74,-207.167,-29.509
72.78,-205.763,-29.177
72.81,-203.658,-29.086
72.84,-202.078,-28.765
72.87,-200.394,-28.169
72.91,-198.007,-27.791
72.94,-196.077,-27.539
72.97,-194.287,-27.195
73.0,-191.725,-27.024
73.04,-189.935,-26.726
73.07,-188.426,-26.119
73.1,-185.478,-25.809
73.13,-183.443,-25.271
73.17,-181.512,-24.435
73.2,-178.284,-24.228
73.23,-176.143,-23.976
73.26,-174.037,-23.22
73.3,-170.493,-22.865
73.33,-168.246,-22.361
73.36,-165.93,-21.662
73.39,-162.28,-21.319
73.43,-159.824,-20.941
73.46,-157.893,-20.483
73.49,-154.7,-20.276
73.52,-151.927,-19.933
73.56,-150.032,-19.222
73.59,-147.505,-18.684
73.62,-143.645,-18.226
73.65,-141.609,-17.596
73.69,-139.714,-16.908
73.72,-135.081,-16.656
73.75,-132.344,-15.912
73.78,-130.659,-14.686
73.82,-125.22,-14.468
73.85,-121.815,-14.228
73.88,-119.955,-12.968
73.91,-114.165,-12.727
73.95,-110.69,-12.784
73.98,-108.936,-11.834
74.01,-103.706,-11.879
74.04,-101.215,-11.971
74.08,-99.6,-11.009
74.11,-95.178,-10.791
74.14,-92.827,-10.425
74.17,-90.23,-9.187
74.21,-85.843,-8.408
74.24,-82.333,-7.755
74.27,-78.578,-7.148
74.3,-74.788,-6.667
74.34,-71.524,-6.117
74.37,-67.699,-5.739
74.4,-64.786,-5.292
74.44,-61.592,-4.743
74.47,-58.153,-4.445
74.5,-55.205,-4.078
74.53,-52.257,-3.563
74.57,-48.958,-3.139
74.6,-45.659,-2.807
74.63,-42.921,-2.188
74.66,-39.412,-1.512
74.7,-35.446,-1.077
74.73,-32.814,-0.344
74.76,-29.094,0.321
74.79,-25.339,0.722
74.83,-22.531,1.512
74.86,-19.092,2.303
74.89,-14.565,2.818
74.92,-9.125,3.173
74.96,-3.369,3.23
74.99,2.106,2.944
75.02,6.879,2.417
75.05,10.599,1.913
75.09,13.441,1.409
75.12,15.091,1.203
75.15,16.881,1.673
75.18,19.302,2.383
75.22,22.601,2.921
75.25,25.339,3.54
75.28,28.603,4.319
75.31,32.182,4.903
75.35,35.692,5.522
75.38,39.903,5.968
75.41,43.834,6.392
75.44,48.923,6.53
75.48,52.888,6.575
75.51,56.187,6.839
75.54,59.627,7.011
75.57,62.083,7.309
75.61,64.154,8.122
75.64,67.137,8.58
75.67,69.559,9.004
75.7,71.945,9.989
75.74,75.244,10.665
75.77,78.368,11.123
75.8,81.21,11.914
75.83,84.86,12.624
75.87,88.51,13.151
75.9,91.704,13.827
75.93,95.213,14.308
75.96,98.688,14.64
76.0,101.425,15.144
76.03,104.373,15.671
76.06,107.812,16.164
76.1,111.147,16.966
76.13,114.235,17.493
76.16,117.709,17.733
76.19,121.008,17.951
76.23,123.921,18.65
76.26,127.29,19.268
76.29,131.432,19.44
76.32,134.274,20.265
76.36,137.679,20.586
76.39,141.153,20.391
76.42,141.223,21.582
76.45,144.312,22.201
76.49,146.417,22.407
76.52,148.207,23.828
76.55,151.331,24.847
76.58,153.506,25.901
76.62,156.981,26.84
76.65,160.385,27.7
76.68,163.649,28.478
76.71,167.439,28.811
76.75,170.387,29.143
76.78,173.405,29.475
76.81,176.704,29.613
76.84,179.056,30.014
76.88,181.758,30.472
76.91,184.776,30.644
76.94,186.636,30.987
76.97,188.953,31.308
77.01,191.76,31.297
77.04,192.918,31.64
77.07,195.059,32.11
77.1,197.867,32.167
77.14,198.92,32.545
77.17,201.447,32.809
77.2,203.798,32.648
77.23,204.359,32.912
77.27,206.395,33.072
77.3,208.29,32.992
77.33,208.957,33.553
77.36,211.308,34.103
77.4,213.484,34.206
77.43,214.362,34.836
77.46,216.994,35.283
77.49,219.205,35.26
77.53,220.187,35.638
77.56,222.539,35.844
77.59,224.399,35.741
77.62,225.206,36.222
77.66,227.592,36.532
77.69,229.523,36.772
77.72,230.997,37.654
77.75,233.664,37.906
77.79,235.313,37.849
77.82,236.717,38.319
77.85,239.56,38.697
77.89,241.209,38.88
77.92,242.543,39.35
77.95,245.035,39.338
77.98,246.158,39.247
78.02,247.141,39.556
78.05,249.246,39.51
78.08,249.983,39.648
78.11,251.212,40.243
78.15,253.458,40.598
78.18,254.546,41.045
78.21,256.23,41.538
78.24,258.757,41.675
78.28,259.494,41.801
78.31,260.898,41.801
78.34,262.302,41.446
78.37,262.863,41.733
78.41,264.197,42.237
78.44,265.776,42.351
78.47,266.653,42.878
78.5,268.268,43.291
78.54,269.531,43.084
78.57,270.198,43.13
78.6,271.321,43.233
78.63,272.444,43.176
78.67,273.216,43.52
78.7,274.374,43.989
78.73,275.638,44.184
78.76,276.515,44.31
78.8,277.498,44.218
78.83,278.165,43.978
78.86,278.34,43.921
78.89,278.902,43.829
78.93,279.323,43.806
78.96,279.604,44.207
78.99,280.235,44.448
79.02,280.832,44.39
79.06,280.937,44.402
79.09,281.288,44.264
79.12,281.955,44.367
79.15,281.955,44.459
79.19,282.938,45.032
79.22,284.271,45.685
79.25,284.482,45.456
79.28,285.324,45.169
79.32,285.886,45.112
79.35,285.535,44.7
79.38,285.043,43.921
79.41,284.201,43.348
79.45,283.394,43.405
79.48,282.692,43.394
79.51,281.815,43.199
79.55,280.937,42.947
79.58,279.99,42.557
79.61,278.761,42.156
79.64,277.393,41.916
79.68,276.41,41.664
79.71,275.217,41.618
79.74,274.199,41.801
79.77,273.672,41.744
79.81,272.9,41.538
79.84,271.848,41.274
79.87,270.76,40.793
79.9,269.321,40.22
79.94,267.882,39.911
79.97,266.689,39.808
80.0,265.46,39.762
80.03,264.232,39.636
80.07,263.144,39.338
80.1,261.951,38.937
80.13,260.301,38.559
80.16,258.897,38.101
80.2,257.318,37.769
80.23,255.739,37.631
80.26,254.195,37.379
80.29,252.861,37.082
80.33,251.106,36.761
80.36,249.597,36.337
80.39,247.878,35.844
80.42,245.702,35.627
80.46,244.368,35.329
80.49,242.543,34.939
80.52,240.051,34.596
80.55,238.367,33.943
80.59,236.717,33.668
80.62,234.261,33.759
80.65,232.646,33.278
80.68,230.716,32.637
80.72,228.4,32.706
80.75,227.171,32.499
80.78,225.136,32.087
80.81,222.995,32.11
80.85,222.118,31.995
80.88,220.363,31.56
80.91,218.011,31.319
80.94,217.169,30.838
80.98,214.993,30.437
81.01,212.607,30.426
81.04,211.8,29.945
81.07,209.343,29.613
81.11,207.097,29.487
81.14,205.974,28.731
81.17,202.85,28.226
81.2,200.464,28.043
81.24,199.271,27.39
81.27,195.691,27.356
81.3,193.69,27.47
81.34,192.918,26.921
81.37,189.795,26.783
81.4,187.759,26.485
81.43,186.812,25.523
81.47,183.302,25.259
81.5,181.056,24.893
81.53,179.547,24.08
81.56,176.073,23.999
81.6,173.827,23.702
81.63,171.931,22.751
81.66,168.317,22.338
81.69,165.614,21.96
81.73,163.403,21.101
81.76,159.964,20.7
81.79,156.805,20.505
81.82,154.875,19.967
81.86,152.383,19.474
81.89,148.628,19.039
81.92,146.101,18.363
81.95,144.417,17.882
81.99,140.276,17.378
82.02,137.187,16.931
82.05,136.134,16.347
82.08,132.063,15.9
82.12,128.308,15.602
82.15,127.361,14.468
82.18,122.798,14.136
82.21,118.867,14.125
82.25,117.499,12.991
82.28,112.445,12.555
82.31,108.76,12.727
82.34,107.146,11.776
82.38,102.162,11.295
82.41,98.828,11.238
82.44,96.477,10.23
82.47,91.844,9.565
82.51,88.686,9.05
82.54,85.106,8.34
82.57,81.175,7.973
82.6,78.473,7.446
82.64,74.823,6.965
82.67,71.735,6.61
82.7,68.997,5.957
82.73,65.417,5.453
82.77,62.469,4.972
82.8,59.416,4.422
82.83,55.942,4.101
82.86,52.853,3.803
82.9,50.081,3.322
82.93,46.852,2.841
82.96,43.413,2.383
82.99,40.324,1.718
83.03,36.885,0.985
83.06,32.919,0.447
83.09,29.691,-0.183
83.13,26.111,-0.985
83.16,22.531,-1.524
83.19,19.232,-1.913
83.22,15.372,-2.463
83.26,10.669,-2.807
83.29,5.51,-2.864
83.32,0.351,-2.864
83.35,-4.597,-2.577
83.39,-8.949,-2.348
83.42,-13.091,-2.131
83.45,-16.003,-2.051
83.48,-18.6,-2.154
83.52,-21.233,-2.36
83.55,-23.619,-2.795
83.58,-26.181,-3.276
83.61,-28.673,-3.78
83.65,-31.34,-4.445
83.68,-34.323,-5.121
83.71,-37.762,-5.682
83.74,-42.36,-6.083
83.78,-46.922,-6.415
83.81,-51.028,-6.553
83.84,-54.749,-6.553
83.87,-57.977,-6.679
83.91,-60.223,-7.114
83.94,-62.891,-7.572
83.97,-65.312,-8.156
84.0,-67.628,-9.073
84.04,-70.998,-9.772
84.07,-73.981,-10.425
84.1,-76.999,-11.261
84.13,-80.894,-11.742
84.17,-84.088,-12.28
84.2,-87.247,-13.025
84.23,-90.967,-13.575
84.26,-94.301,-14.171
84.3,-97.74,-14.778
84.33,-101.004,-15.396
84.36,-104.724,-16.095
84.39,-108.865,-16.679
84.43,-111.743,-17.493
84.46,-116.341,-18.054
84.49,-120.587,-18.329
84.52,-122.868,-19.096
84.56,-127.571,-19.062
84.59,-131.116,-18.959
84.62,-132.484,-19.978
84.65,-137.398,-19.841
84.69,-139.433,-20.391
84.72,-141.048,-21.479
84.75,-144.136,-21.078
84.79,-143.925,-22.098
84.82,-146.628,-23.037
84.85,-148.172,-23.541
84.88,-150.243,-24.721
84.92,-153.471,-25.592
84.95,-156.068,-27.127
84.98,-160.175,-27.871
85.01,-163.579,-28.009
85.05,-166.106,-28.891
85.08,-171.054,-29.498
85.11,-173.792,-29.567
85.14,-175.546,-29.693
85.18,-179.582,-29.75
85.21,-182.144,-30.231
85.24,-183.829,-31.067
85.27,-187.268,-30.907
85.31,-189.058,-31.022
85.34,-190.918,-31.743
85.37,-193.761,-31.64
85.4,-194.673,-31.445
85.44,-196.393,-31.961
85.47,-199.236,-32.179
85.5,-200.288,-32.476
85.53,-202.219,-32.981
85.57,-205.061,-33.026
85.6,-205.939,-33.29
85.63,-207.693,-33.633
85.66,-210.396,-33.599
85.7,-211.133,-34.149
85.73,-213.379,-34.825
85.76,-216.327,-34.939
85.79,-217.38,-35.569
85.83,-220.047,-36.074
85.86,-222.714,-35.856
85.89,-223.416,-36.177
85.92,-225.943,-36.463
85.96,-228.014,-36.417
85.99,-228.61,-36.887
86.02,-231.102,-37.173
86.05,-232.892,-37.231
86.09,-233.769,-37.666
86.12,-235.805,-37.631
86.15,-237.524,-37.746
86.18,-238.542,-38.33
86.22,-240.437,-38.571
86.25,-242.157,-38.674
86.28,-243.245,-39.144
86.31,-245.351,-39.499
86.35,-247.0,-39.648
86.38,-248.334,-40.037
86.41,-250.439,-40.266
86.44,-251.808,-40.461
86.48,-253.107,-40.839
86.51,-255.283,-41.034
86.54,-256.511,-41.263
86.58,-257.915,-41.607
86.61,-259.74,-41.687
86.64,-260.793,-41.744
86.67,-261.81,-41.893
86.71,-263.249,-41.847
86.74,-264.302,-42.099
86.77,-265.46,-42.626
86.8,-267.004,-42.935
86.84,-268.198,-43.061
86.87,-269.145,-43.073
86.9,-270.303,-42.821
86.93,-270.9,-42.89
86.97,-271.742,-43.256
87.0,-272.935,-43.439
87.03,-273.778,-43.852
87.06,-275.041,-44.218
87.1,-276.34,-44.23
87.13,-277.112,-44.333
87.16,-278.235,-44.436
87.19,-279.112,-44.402
87.23,-279.814,-44.482
87.26,-280.692,-44.665
87.29,-281.534,-44.894
87.32,-282.446,-44.86
87.36,-282.762,-44.871
87.39,-283.359,-44.86
87.42,-283.78,-44.654
87.45,-283.745,-44.711
87.49,-284.061,-44.665
87.52,-284.341,-44.631
87.55,-284.306,-44.837
87.58,-284.517,-44.631
87.62,-284.096,-44.15
87.65,-283.604,-43.863
87.68,-283.218,-43.646
87.71,-282.481,-43.417
87.75,-281.744,-43.325
87.78,-281.499,-43.543
87.81,-281.464,-43.714
87.84,-281.007,-43.84
87.88,-281.042,-43.714
87.91,-280.621,-43.313
87.94,-279.604,-42.89
87.97,-278.726,-42.294
88.01,-277.463,-41.675
88.04,-276.059,-41.526
88.07,-275.076,-41.446
88.1,-273.848,-41.274
88.14,-272.304,-41.171
88.17,-271.356,-40.828
88.2,-269.952,-40.301
88.24,-268.022,-39.991
88.27,-266.899,-39.636
88.3,-265.601,-39.51
88.33,-264.056,-39.625
88.37,-263.705,-39.716
88.4,-262.582,-39.739
88.43,-261.354,-39.464
88.46,-260.371,-38.651
88.5,-258.687,-38.113
88.53,-257.458,-38.262
88.56,-256.686,-38.055
88.59,-254.791,-37.78
88.63,-253.352,-37.391
88.66,-252.229,-36.658
88.69,-249.667,-36.016
88.72,-247.702,-35.753
88.76,-245.912,-34.962
88.79,-242.789,-34.447
88.82,-241.034,-34.493
88.85,-239.735,-34.218
88.89,-236.963,-34.332
88.92,-235.805,-34.183
88.95,-234.576,-33.588
88.98,-231.874,-33.416
89.02,-230.576,-33.187
89.05,-229.207,-32.557
89.08,-226.294,-32.557
89.11,-225.522,-32.465
89.15,-224.223,-32.064
89.18,-221.626,-32.259
89.21,-221.03,-31.812
89.24,-219.17,-30.93
89.28,-216.222,-30.873
89.31,-215.485,-30.483
89.34,-213.133,-30.014
89.37,-210.536,-30.105
89.41,-209.904,-29.693
89.44,-207.658,-29.303
89.47,-204.921,-29.086
89.5,-203.798,-28.249
89.54,-201.131,-27.711
89.57,-198.112,-27.654
89.6,-196.674,-27.241
89.63,-194.041,-27.069
89.67,-191.55,-27.184
89.7,-190.567,-26.634
89.73,-187.9,-26.176
89.76,-185.303,-25.912
89.8,-183.934,-25.076
89.83,-180.705,-24.549
89.86,-178.108,-24.286
89.89,-176.459,-23.69
89.93,-173.16,-23.369
89.96,-170.457,-22.888
89.99,-168.317,-22.029
90.03,-164.807,-21.594
90.06,-161.789,-21.055
90.09,-158.806,-20.242
90.12,-155.893,-20.001
90.16,-153.085,-19.956
90.19,-150.453,-19.52
90.22,-148.312,-18.913
90.25,-145.47,-18.627
90.29,-142.206,-18.088
90.32,-140.311,-17.332
90.35,-137.959,-17.309
90.38,-134.836,-17.39
90.42,-133.257,-16.599
90.45,-130.695,-15.488
90.48,-126.518,-15.075
90.51,-124.026,-14.274
90.55,-120.341,-13.369
90.58,-115.533,-12.876
90.61,-112.305,-12.086
90.64,-108.058,-11.593
90.68,-103.847,-11.662
90.71,-100.899,-11.238
90.74,-97.354,-10.677
90.77,-94.02,-10.321
90.81,-91.037,-9.863
90.84,-87.738,-9.416
90.87,-85.281,-8.809
90.9,-81.807,-8.122
90.94,-78.368,-7.595
90.97,-75.735,-6.908
91.0,-72.121,-6.438
91.03,-68.752,-5.968
91.07,-65.733,-5.27
91.1,-62.154,-4.8
91.13,-58.89,-4.502
91.16,-55.801,-3.975
91.2,-52.362,-3.46
91.23,-49.028,-3.07
91.26,-45.659,-2.612
91.29,-42.325,-2.108
91.33,-38.956,-1.558
91.36,-35.411,-1.008
91.39,-32.217,-0.401
91.42,-28.954,0.298
91.46,-25.339,0.882
91.49,-22.18,1.512
91.52,-18.811,2.199
91.55,-14.494,2.658
91.59,-9.441,2.978
91.62,-4.036,3.047
91.65,1.193,2.841
91.69,5.896,2.474
91.72,10.072,2.188
91.75,13.617,1.97
91.78,16.214,1.856
91.82,18.565,1.993
91.85,20.917,2.348
91.88,23.654,2.726
91.91,26.111,3.15
91.95,28.357,3.975
91.98,31.586,4.628
92.01,34.709,5.189
92.04,38.64,5.636
92.08,42.36,6.026
92.11,46.571,6.369
92.14,51.45,6.541
92.17,54.959,6.908
92.21,58.434,7.251
92.24,62.013,7.286
92.27,63.873,7.859
92.3,66.576,8.557
92.34,69.804,9.061
92.37,71.875,10.058
92.4,75.279,10.757
92.43,78.929,11.192
92.47,81.631,12.166
92.5,85.352,12.739
92.53,89.107,13.105
92.56,92.265,13.815
92.6,95.319,14.297
92.63,98.653,14.606
92.66,101.987,15.098
92.69,104.338,15.866
92.73,107.848,16.519
92.76,112.164,16.805
92.79,114.2,17.687
92.82,118.201,18.214
92.86,122.763,18.042
92.89,124.097,18.947
92.92,128.378,19.348
92.95,132.835,19.245
92.99,134.309,20.505
93.02,138.942,20.494
93.05,141.995,20.78
93.08,143.153,21.8
93.12,144.803,21.651
93.15,145.224,22.315
93.18,147.646,23.427
93.21,150.067,24.641
93.25,152.84,25.912
93.28,156.454,26.634
93.31,158.876,27.688
93.34,163.298,28.501
93.38,167.018,28.616
93.41,169.089,29.131
93.44,173.09,29.223
93.48,175.862,29.292
93.51,177.722,30.002
93.54,181.512,30.357
93.57,183.899,30.598
93.61,185.829,31.251
93.64,189.233,31.4
93.67,190.637,31.113
93.7,192.146,31.537
93.74,195.515,32.041
93.77,196.954,32.419
93.8,198.604,32.717
93.83,201.657,32.591
93.87,203.236,32.843
93.9,204.5,33.072
93.93,206.5,32.74
93.96,207.623,32.9
94.0,209.167,33.679
94.03,211.414,34.069
94.06,212.958,34.596
94.09,215.239,35.352
94.13,218.047,35.73
94.16,219.801,35.948
94.19,222.328,36.452
94.22,224.855,36.532
94.26,226.083,36.44
94.29,227.943,36.52
94.32,230.049,36.772
94.35,231.523,37.334
94.39,233.067,37.505
94.42,234.612,37.265
94.45,235.735,37.391
94.48,237.244,37.735
94.52,238.683,37.918
94.55,239.841,38.284
94.58,241.595,38.754
94.61,243.35,39.155
94.65,245.14,39.705
94.68,247.105,39.991
94.71,248.685,40.003
94.74,250.299,40.243
94.78,252.194,40.679
94.81,253.844,41.08
94.84,255.634,41.412
94.87,257.494,41.675
94.91,259.213,41.893
94.94,260.582,41.813
94.97,261.354,41.572
95.0,262.372,41.492
95.04,263.425,41.561
95.07,264.127,42.065
95.1,265.495,42.569
95.14,266.969,42.832
95.17,268.057,43.187
95.2,269.391,43.313
95.23,270.444,43.153
95.27,271.321,43.233
95.3,272.304,43.439
95.33,273.462,43.669
95.36,274.55,44.047
95.4,275.848,44.31
95.43,276.901,44.367
95.46,277.638,44.344
95.49,278.481,44.127
95.53,278.867,43.943
95.56,279.112,43.943
95.59,279.674,44.001
95.62,280.13,44.264
95.66,280.586,44.551
95.69,281.253,44.528
95.72,281.709,44.459
95.75,282.06,44.596
95.79,282.446,44.574
95.82,282.832,44.562
95.85,283.289,44.745
95.88,283.885,44.929
95.92,284.131,44.917
95.95,284.412,44.826
95.98,284.763,44.516
96.01,284.377,44.379
96.05,284.166,44.138
96.08,284.166,43.84
96.11,283.464,43.909
96.14,283.534,44.379
96.18,283.289,43.955
96.21,281.92,43.348
96.24,281.499,42.89
96.27,280.797,42.626
96.31,278.761,42.317
96.34,277.287,41.286
96.37,275.883,40.782
96.4,274.339,41.32
96.44,273.497,41.503
96.47,272.198,41.08
96.5,270.724,40.919
96.53,270.479,40.839
96.57,269.04,40.484
96.6,266.899,39.762
96.63,266.057,39.247
96.66,264.793,39.384
96.7,263.179,39.728
96.73,262.688,39.43
96.76,261.319,39.063
96.79,259.985,39.109
96.83,259.494,38.674
96.86,257.318,37.735
96.89,255.388,37.345
96.93,254.475,37.116
96.96,252.58,37.047
96.99,250.755,37.024
97.02,249.773,36.497
97.06,247.351,35.638
97.09,245.351,35.398
97.12,244.298,35.203
97.15,241.841,34.974
97.19,239.735,34.63
97.22,238.402,33.908
97.25,236.121,33.886
97.28,234.471,34.023
97.32,233.102,33.381
97.35,230.646,32.969
97.38,229.102,32.969
97.41,228.014,32.625
97.45,225.627,32.465
97.48,224.118,32.385
97.51,223.17,31.995
97.54,220.679,31.732
97.58,219.064,31.342
97.61,217.625,30.667
97.64,214.818,30.449
97.67,213.309,30.174
97.71,211.414,29.681
97.74,208.887,29.601
97.77,207.378,29.223
97.8,205.342,28.559
97.84,202.289,28.261
97.87,200.815,27.826
97.9,198.358,27.413
97.93,195.375,27.482
97.97,194.112,27.241
98.0,191.936,27.081
98.03,189.76,26.966
98.06,188.216,26.336
98.1,186.005,25.798
98.13,183.583,25.443
98.16,181.548,24.778
98.19,178.986,24.274
98.23,176.353,24.034
98.26,174.072,23.518
98.29,171.335,22.9
98.32,168.422,22.384
98.36,165.79,21.903
98.39,163.087,21.273
98.42,159.859,20.723
98.45,156.981,20.448
98.49,154.665,20.173
98.52,152.138,19.738
98.55,148.909,19.165
98.59,146.277,18.592
98.62,143.996,17.985
98.65,140.556,17.344
98.68,137.222,16.759
98.72,135.011,16.359
98.75,131.783,15.648
98.78,128.098,15.167
98.81,125.641,14.778
98.85,122.833,14.262
98.88,118.903,13.861
98.91,115.779,12.876
98.94,112.48,12.235
98.98,108.269,12.532
99.01,105.777,12.292
99.04,102.899,11.387
99.07,98.758,11.032
99.11,95.95,10.551
99.14,92.862,9.634
99.17,88.651,9.016
99.2,85.246,8.5
99.24,82.018,7.87
99.27,78.227,7.48
99.3,74.998,7.091
99.33,72.121,6.53
99.37,68.997,5.945
99.4,65.733,5.396
99.43,62.399,4.846
99.46,59.1,4.342
99.5,55.731,3.964
99.53,52.502,3.666
99.56,49.379,3.334
99.59,46.642,2.841
99.63,43.237,2.268
99.66,39.798,1.799
99.69,36.955,1.1
99.72,33.06,0.435
99.76,29.515,-0.046
99.79,26.602,-0.79
99.82,22.882,-1.489
99.85,19.232,-2.199
99.89,15.056,-2.704
99.92,10.107,-2.784
99.95,4.878,-2.921
99.98,-0.526,-3.001
100.02,-5.51,-2.612
100.05,-9.756,-2.142
100.08,-13.231,-1.833
100.11,-15.828,-1.844
100.15,-18.179,-2.005
100.18,-20.706,-2.165
100.21,-22.742,-2.635
100.24,-25.514,-3.219
100.28,-28.322,-3.689
100.31,-30.743,-4.571
100.34,-34.218,-5.315
100.38,-38.078,-5.9
100.41,-43.202,-6.083
100.44,-47.028,-6.22
100.47,-50.853,-6.507
100.51,-55.17,-6.53
100.54,-57.802,-6.931
100.57,-60.715,-7.538
100.6,-64.189,-7.859
100.64,-66.225,-8.683
100.67,-69.278,-9.52
100.7,-73.033,-9.955
100.73,-75.42,-10.78
100.77,-78.789,-11.49
100.8,-82.579,-11.902
100.83,-85.457,-12.601
100.86,-88.686,-13.254
100.9,-92.265,-13.747
100.93,-95.599,-14.274
100.96,-98.407,-14.858
100.99,-101.671,-15.35
101.03,-105.531,-15.774
101.06,-107.883,-16.553
101.09,-111.497,-17.183
101.12,-115.814,-17.435
101.16,-118.201,-18.226
101.19,-121.956,-18.65
101.22,-126.308,-18.569
101.25,-128.203,-19.222
101.29,-131.712,-19.452
101.32,-135.397,-19.406
101.35,-137.573,-20.425
101.38,-139.784,-20.666
101.42,-142.522,-20.941
101.45,-143.68,-22.281
101.48,-145.856,-23.289
101.51,-148.769,-23.999
101.55,-151.19,-25.168
101.58,-153.857,-25.901
101.61,-157.402,-26.898
101.64,-160.947,-27.837
101.68,-163.614,-28.181
101.71,-166.913,-28.375
101.74,-170.528,-28.937
101.77,-173.195,-29.544
101.81,-175.827,-29.475
101.84,-178.74,-29.624
101.87,-181.512,-30.529
101.9,-184.46,-31.239
101.94,-186.777,-31.159
101.97,-189.198,-31.354
102.0,-191.76,-31.755
102.04,-193.655,-31.881
102.07,-195.515,-31.743
102.1,-197.446,-31.927
102.13,-199.2,-32.408
102.17,-201.341,-32.637
102.2,-202.991,-32.809
102.23,-204.675,-33.095
102.26,-206.57,-33.164
102.3,-207.869,-33.301
102.33,-209.554,-33.622
102.36,-211.554,-34.046
102.39,-213.168,-34.561
102.43,-215.204,-35.065
102.46,-217.59,-35.455
102.49,-219.521,-35.787
102.52,-221.521,-35.902
102.56,-223.451,-35.982
102.59,-225.101,-36.268
102.62,-227.031,-36.623
102.65,-228.961,-36.887
102.69,-230.611,-37.276
102.72,-232.751,-37.574
102.75,-234.471,-37.723
102.78,-235.664,-37.7
102.82,-237.63,-37.906
102.85,-239.279,-38.388
102.88,-240.683,-38.811
102.91,-242.824,-38.937
102.95,-244.157,-39.247
102.98,-245.982,-39.682
103.01,-247.878,-39.797
103.04,-249.001,-39.934
103.08,-250.545,-40.175
103.11,-252.37,-40.278
103.14,-253.317,-40.69
103.17,-255.247,-41.091
103.21,-257.037,-41.343
103.24,-258.055,-41.687
103.27,-259.74,-41.755
103.3,-261.108,-41.515
103.34,-261.565,-41.629
103.37,-262.898,-41.721
103.4,-263.986,-41.79
103.43,-264.828,-42.512
103.47,-266.618,-43.004
103.5,-268.057,-43.084
103.53,-269.005,-43.302
103.56,-270.479,-43.245
103.6,-271.426,-43.084
103.63,-272.093,-43.394
103.66,-273.427,-43.669
103.69,-274.55,-43.909
103.73,-275.497,-44.367
103.76,-276.901,-44.505
103.79,-277.884,-44.299
103.83,-278.41,-44.425
103.86,-279.358,-44.333
103.89,-279.779,-44.15
103.92,-280.2,-44.482
103.96,-281.183,-44.631
103.99,-281.674,-44.642
104.02,-281.955,-44.78
104.05,-282.587,-44.642
104.09,-282.903,-44.585
104.12,-283.008,-44.665
104.15,-283.394,-44.493
104.18,-283.534,-44.402
104.22,-283.64,-44.631
104.25,-283.955,-44.596
104.28,-283.675,-44.402
104.31,-283.499,-44.207
104.35,-283.534,-44.001
104.38,-283.078,-43.852
104.41,-282.516,-43.726
104.44,-282.481,-43.703
104.48,-282.341,-43.863
104.51,-282.622,-44.367
104.54,-283.429,-44.997
104.57,-284.341,-45.616
104.61,-285.57,-45.845
104.64,-286.588,-45.857
104.67,-287.395,-45.845
104.7,-287.956,-45.49
104.74,-287.781,-44.768
104.77,-286.552,-43.863
104.8,-284.903,-42.649
104.83,-282.341,-41.286
104.87,-279.147,-40.117
104.9,-275.883,-39.224
104.93,-272.795,-38.64
104.96,-269.321,-38.697
105.0,-267.32,-38.823
105.03,-264.969,-38.754
105.06,-262.793,-38.617
105.09,-261.284,-38.193
105.13,-259.178,-37.918
105.16,-257.458,-37.861
105.19,-256.195,-37.666
105.22,-254.721,-37.586
105.26,-253.317,-37.609
105.29,-252.299,-37.334
105.32,-250.65,-36.887
105.35,-248.93,-36.383
105.39,-247.386,-35.684
105.42,-245.175,-35.295
105.45,-243.245,-35.134
105.49,-241.841,-34.859
105.52,-239.876,-34.779
105.55,-238.402,-34.722
105.58,-236.998,-34.367
105.62,-235.138,-33.863
105.65,-233.173,-33.381
105.68,-231.593,-33.129
105.71,-229.768,-32.935
105.75,-227.979,-32.797
105.78,-226.399,-32.454
105.81,-224.539,-32.064
105.84,-222.644,-31.72
105.88,-220.503,-31.297
105.91,-218.327,-30.712
105.94,-216.081,-30.208
105.97,-213.905,-30.082
106.01,-211.94,-29.865
106.04,-209.834,-29.555
106.07,-208.115,-29.635
106.1,-206.711,-29.395
106.14,-204.324,-28.822
106.17,-202.254,-28.295
106.2,-200.569,-27.826
106.23,-197.762,-27.528
106.27,-195.48,-27.287
106.3,-193.69,-27.115
106.33,-191.269,-27.001
106.36,-189.304,-26.531
106.4,-187.373,-25.924
106.43,-184.917,-25.603
106.46,-182.635,-25.168
106.49,-180.53,-24.492
106.53,-177.792,-24.263
106.56,-175.757,-24.091
106.59,-173.651,-23.381
106.62,-170.071,-22.751
106.66,-167.474,-21.949
106.69,-164.983,-21.204
106.72,-161.263,-20.849
106.75,-157.964,-20.196
106.79,-155.647,-19.692
106.82,-152.84,-19.841
106.85,-149.716,-19.474
106.88,-147.224,-18.569
106.92,-144.522,-18.065
106.95,-141.048,-17.905
106.98,-137.187,-15.866
107.01,-131.151,-12.063
107.05,-120.903,-9.325
107.08,-112.234,-9.073
107.11,-107.286,-10.745
107.14,-102.267,-12.338
107.18,-101.18,-13.311
107.21,-102.759,-14.136
107.24,-103.145,-15.339
107.28,-105.426,-15.637
107.31,-107.883,-14.629
107.34,-106.9,-13.918
107.37,-106.444,-13.025
107.41,-104.829,-11.456
107.44,-100.197,-10.367
107.47,-96.407,-9.187
107.5,-91.599,-7.95
107.54,-86.334,-7.561
107.57,-82.263,-7.366
107.6,-78.087,-6.965
107.63,-74.542,-6.575
107.67,-71.349,-6.312
107.7,-68.015,-5.957
107.73,-65.172,-5.292
107.76,-61.908,-4.708
107.8,-58.469,-4.41
107.83,-55.415,-3.998
107.86,-52.397,-3.505
107.89,-49.133,-3.208
107.93,-46.01,-3.047
107.96,-43.483,-2.486
107.99,-40.184,-1.844
108.02,-36.815,-1.489
108.06,-34.323,-0.859
108.09,-30.814,-0.229
108.12,-27.55,0.229
108.15,-24.883,0.997
108.19,-21.408,1.673
108.22,-17.793,2.28
108.25,-13.091,2.956
108.28,-7.545,3.265
108.32,-1.685,3.219
108.35,3.825,2.967
108.38,9.019,2.772
108.41,13.722,2.509
108.45,16.776,2.096
108.48,19.267,2.005
108.51,21.829,2.314
108.54,24.391,2.692
108.58,26.146,3.185
108.61,28.778,3.746
108.64,31.551,4.422
108.67,34.639,5.281
108.71,38.394,5.831
108.74,42.711,6.369
108.77,48.116,6.575
108.8,52.187,6.621
108.84,55.731,6.564
108.87,58.89,6.541
108.9,60.82,6.976
108.93,62.891,7.595
108.97,65.417,8.03
109.0,67.453,8.821
109.03,70.226,9.726
109.07,73.56,10.344
109.1,76.543,11.043
109.13,80.017,11.868
109.16,83.983,12.567
109.2,87.598,13.243
109.23,91.107,13.781
109.26,94.827,14.136
109.29,98.091,14.606
109.33,100.829,15.144
109.36,103.917,15.454
109.39,107.04,15.854
109.42,109.883,16.656
109.46,113.252,17.229
109.49,116.586,17.619
109.52,119.78,18.077
109.55,123.114,18.489
109.59,126.378,18.879
109.62,129.712,19.268
109.65,132.941,19.704
109.68,136.591,20.414
109.72,140.451,20.987
109.75,141.995,21.937
109.78,145.399,22.487
109.81,147.189,23.415
109.85,149.751,24.458
109.88,152.594,24.813
109.91,154.665,25.764
109.94,157.823,26.554
109.98,160.526,27.173
110.01,163.438,27.757
110.04,166.562,28.181
110.07,169.264,28.605
110.11,172.072,28.925
110.14,175.09,29.189
110.17,177.477,29.75
110.2,180.319,30.357
110.24,183.443,30.689
110.27,185.724,31.148
110.3,188.391,31.537
110.33,191.269,31.571
110.37,192.813,31.766
110.4,194.954,32.087
110.43,197.656,32.224
110.46,199.13,32.648
110.5,201.727,33.015
110.53,204.289,33.164
110.56,205.377,33.519
110.59,207.693,33.519
110.63,209.518,33.37
110.66,210.466,33.897
110.69,212.958,34.344
110.73,214.713,34.55
110.76,215.871,35.169
110.79,218.748,35.524
110.82,220.433,35.535
110.86,221.521,35.718
110.89,224.048,35.81
110.92,225.557,36.039
110.95,226.961,36.669
110.99,229.417,36.956
111.02,230.891,37.036
111.05,232.225,37.379
111.08,234.647,37.528
111.12,235.91,37.62
111.15,237.138,38.032
111.18,239.735,38.353
111.21,241.034,38.811
111.25,242.683,39.419
111.28,245.386,39.648
111.31,246.86,39.991
111.34,248.579,40.289
111.38,250.755,40.186
111.41,251.949,40.346
111.44,253.598,40.908
111.47,255.563,41.011
111.51,256.511,41.011
111.54,257.915,41.309
111.57,259.669,41.297
111.6,259.915,41.217
111.64,260.757,41.206
111.67,262.021,41.091
111.7,262.267,41.492
111.73,263.565,41.996
111.77,264.934,42.202
111.8,265.881,42.855
111.83,267.776,43.279
111.86,269.075,43.268
111.9,270.058,43.462
111.93,271.567,43.428
111.96,272.549,43.359
111.99,273.532,43.737
112.03,274.936,44.035
112.06,275.989,44.207
112.09,277.007,44.425
112.12,278.024,44.299
112.16,278.726,44.195
112.19,279.147,44.15
112.22,279.323,43.691
112.25,279.533,43.669
112.29,279.955,44.092
112.32,280.516,44.299
112.35,280.832,44.413
112.38,281.429,44.631
112.42,282.166,44.619
112.45,282.376,44.493
112.48,282.411,44.333
112.52,282.832,44.15
112.55,282.727,44.173
112.58,282.727,44.207
112.61,282.727,44.047
112.65,282.481,43.943
112.68,282.236,43.863
112.71,282.166,43.588
112.74,281.393,43.428
112.78,281.253,43.588
112.81,281.464,43.714
112.84,280.902,43.852
112.87,280.937,43.703
112.91,280.727,43.233
112.94,279.709,42.844
112.97,278.867,42.477
113.0,277.989,42.019
113.04,276.936,41.916
113.07,275.954,41.985
113.1,275.111,41.698
113.13,273.883,41.229
113.17,272.304,40.77
113.2,270.97,40.198
113.23,269.04,39.739
113.26,267.39,39.636
113.3,266.373,39.625
113.33,264.828,39.774
113.36,263.916,39.785
113.39,263.249,39.522
113.43,261.845,39.212
113.46,260.547,38.788
113.49,259.424,38.307
113.52,257.95,38.158
113.56,256.757,38.136
113.59,255.563,37.826
113.62,254.089,37.494
113.65,252.51,37.162
113.69,250.931,36.486
113.72,248.895,35.695
113.75,246.474,35.191
113.78,244.649,34.859
113.82,242.543,34.63
113.85,240.437,34.687
113.88,239.139,34.722
113.91,237.77,34.596
113.95,235.664,34.183
113.98,234.05,33.336
114.01,232.436,32.981
114.04,229.979,33.003
114.08,228.47,32.545
114.11,226.329,32.018
114.14,224.188,32.064
114.18,222.96,31.824
114.21,220.679,31.365
114.24,218.433,31.079
114.27,217.239,30.598
114.31,214.572,30.231
114.34,212.326,30.094
114.37,211.133,29.613
114.4,208.641,29.452
114.44,206.606,29.452
114.47,205.763,28.834
114.5,202.885,28.49
114.53,200.78,28.352
114.57,199.692,27.734
114.6,196.533,27.619
114.63,194.568,27.562
114.66,193.375,27.001
114.7,190.356,26.898
114.73,188.672,26.462
114.76,187.128,25.523
114.79,183.618,25.237
114.83,181.512,24.698
114.86,179.477,23.908
114.89,175.932,23.873
114.92,174.002,23.472
114.96,171.44,22.716
114.99,168.001,22.453
115.02,165.86,21.88
115.05,163.193,21.101
115.09,159.508,20.654
115.12,156.665,20.15
115.15,154.068,19.406
115.18,150.909,18.959
115.22,147.295,18.684
115.25,145.154,18.191
115.28,142.873,17.561
115.31,138.907,17.344
115.35,136.485,16.782
115.38,134.871,15.958
115.41,130.379,15.854
115.44,127.782,15.499
115.48,126.483,14.411
115.51,121.605,14.274
115.54,119.043,14.09
115.57,117.148,12.968
115.61,111.778,12.727
115.64,109.181,12.601
115.67,106.935,11.765
115.7,101.846,11.662
115.74,99.53,11.284
115.77,96.828,10.241
115.8,92.265,9.783
115.83,89.423,9.13
115.87,85.632,8.225
115.9,81.702,7.824
115.93,78.648,7.458
115.97,74.963,6.999
116.0,71.98,6.507
116.03,68.892,5.923
116.06,65.523,5.567
116.1,62.856,5.155
116.13,59.872,4.628
116.16,56.468,4.147
116.19,53.345,3.597
116.23,50.186,3.059
116.26,46.642,2.726
116.29,43.237,2.337
116.32,40.289,1.673
116.36,36.604,1.077
116.39,32.99,0.619
116.42,30.042,-0.08
116.45,26.392,-0.768
116.49,22.987,-1.409
116.52,19.513,-2.211
116.55,15.021,-2.841
116.58,9.686,-3.024
116.62,4.282,-2.967
