Trigger_Date,2023/06/26
Trigger_Time,T 11:11:53.594 PDT
Samples_Per_Cycle,512
Microseconds_Per_Sample,32.561
Time (ms),Voltage (V),Current (A)
-16.67,-9.862,-1.993
-16.64,-13.231,-1.718
-16.61,-15.582,-1.707
-16.57,-17.618,-1.902
-16.54,-19.969,-2.028
-16.51,-22.636,-2.245
-16.48,-24.461,-2.807
-16.44,-26.707,-3.517
-16.41,-29.866,-3.883
-16.38,-32.007,-4.525
-16.35,-35.13,-5.224
-16.31,-38.57,-5.785
-16.28,-43.588,-6.049
-16.25,-48.01,-6.232
-16.22,-51.344,-6.828
-16.18,-56.187,-6.85
-16.15,-59.206,-6.931
-16.12,-61.171,-7.71
-16.09,-65.242,-8.019
-16.05,-67.348,-8.672
-16.02,-69.594,-9.966
-15.99,-74.367,-10.482
-15.96,-77.49,-11.364
-15.92,-80.684,-12.464
-15.89,-85.703,-12.761
-15.86,-89.352,-13.426
-15.82,-92.651,-14.251
-15.79,-96.301,-14.48
-15.76,-100.021,-14.686
-15.73,-102.303,-15.167
-15.69,-104.759,-15.809
-15.66,-109.006,-16.095
-15.63,-111.287,-16.759
-15.6,-113.814,-17.745
-15.56,-119.078,-17.79
-15.53,-121.394,-18.398
-15.5,-124.026,-19.268
-15.47,-129.712,-18.902
-15.43,-131.888,-19.875
-15.4,-135.117,-20.906
-15.37,-140.837,-20.414
-15.34,-142.767,-21.009
-15.3,-143.399,-21.571
-15.27,-145.189,-21.342
-15.24,-146.101,-22.315
-15.21,-147.435,-23.335
-15.17,-149.33,-23.954
-15.14,-152.068,-25.099
-15.11,-154.594,-26.302
-15.08,-157.718,-27.264
-15.04,-161.894,-27.654
-15.01,-164.351,-28.421
-14.98,-167.86,-29.017
-14.95,-171.756,-28.914
-14.91,-173.756,-29.349
-14.88,-177.09,-29.968
-14.85,-180.6,-30.185
-14.82,-182.39,-30.735
-14.78,-185.619,-31.205
-14.75,-188.461,-31.228
-14.72,-190.076,-31.503
-14.69,-192.708,-31.697
-14.65,-194.778,-31.652
-14.62,-196.007,-32.098
-14.59,-198.674,-32.511
-14.55,-200.955,-32.614
-14.52,-202.534,-33.015
-14.49,-204.745,-33.175
-14.46,-206.465,-33.038
-14.42,-207.588,-33.244
-14.39,-209.518,-33.542
-14.36,-211.378,-33.908
-14.33,-213.028,-34.573
-14.29,-215.414,-35.088
-14.26,-217.696,-35.638
-14.23,-219.766,-36.039
-14.2,-222.012,-35.993
-14.16,-223.978,-36.085
-14.13,-225.873,-36.417
-14.1,-227.838,-36.704
-14.07,-229.488,-36.818
-14.03,-231.172,-37.093
-14.0,-233.173,-37.54
-13.97,-234.822,-37.62
-13.94,-236.015,-37.517
-13.9,-237.314,-37.551
-13.87,-238.858,-37.735
-13.84,-239.841,-38.01
-13.81,-241.28,-38.422
-13.77,-243.175,-38.823
-13.74,-244.473,-39.407
-13.71,-246.333,-39.671
-13.68,-248.018,-39.636
-13.64,-249.211,-39.888
-13.61,-251.001,-40.163
-13.58,-252.615,-40.404
-13.55,-253.984,-40.873
-13.51,-255.949,-41.274
-13.48,-257.669,-41.469
-13.45,-258.687,-41.698
-13.42,-260.371,-41.549
-13.38,-261.249,-41.263
-13.35,-261.986,-41.584
-13.32,-263.495,-41.904
-13.29,-264.688,-42.225
-13.25,-265.811,-42.89
-13.22,-267.706,-43.061
-13.19,-268.794,-43.004
-13.15,-269.707,-43.176
-13.12,-271.04,-43.13
-13.09,-271.988,-43.13
-13.06,-272.9,-43.531
-13.02,-274.269,-43.886
-12.99,-275.462,-44.138
-12.96,-276.48,-44.413
-12.93,-277.744,-44.31
-12.89,-278.445,-44.138
-12.86,-278.902,-44.138
-12.83,-279.674,-43.955
-12.8,-279.99,-44.001
-12.76,-280.446,-44.448
-12.73,-281.393,-44.528
-12.7,-281.815,-44.505
-12.67,-282.095,-44.528
-12.63,-282.446,-44.241
-12.6,-282.306,-43.921
-12.57,-282.166,-43.955
-12.54,-282.762,-44.104
-12.5,-282.797,-44.448
-12.47,-283.148,-44.711
-12.44,-283.675,-44.596
-12.41,-283.71,-44.665
-12.37,-284.026,-44.482
-12.34,-283.64,-43.646
-12.31,-282.411,-43.279
-12.28,-282.095,-43.176
-12.24,-281.604,-42.981
-12.21,-280.27,-42.901
-12.18,-280.341,-43.256
-12.15,-280.025,-43.084
-12.11,-278.831,-42.912
-12.08,-278.094,-42.122
-12.05,-276.831,-41.309
-12.02,-275.287,-41.32
-11.98,-274.515,-41.435
-11.95,-273.357,-41.194
-11.92,-271.777,-41.045
-11.88,-271.111,-40.69
-11.85,-269.566,-40.209
-11.82,-267.636,-39.957
-11.79,-266.969,-39.556
-11.75,-265.39,-39.396
-11.72,-263.741,-39.693
-11.69,-263.67,-39.499
-11.66,-262.091,-39.407
-11.62,-261.038,-39.396
-11.59,-260.512,-38.685
-11.56,-258.617,-38.136
-11.53,-256.967,-37.941
-11.49,-256.335,-37.551
-11.46,-254.265,-37.265
-11.43,-252.615,-37.242
-11.4,-251.949,-36.772
-11.36,-249.422,-36.429
-11.33,-247.667,-35.948
-11.3,-246.509,-35.18
-11.27,-243.736,-35.1
-11.23,-242.227,-35.111
-11.2,-240.929,-34.573
-11.17,-238.472,-34.435
-11.14,-237.419,-34.447
-11.1,-236.015,-33.908
-11.07,-233.243,-33.404
-11.04,-231.804,-33.015
-11.01,-230.4,-32.774
-10.97,-227.873,-32.82
-10.94,-226.54,-32.602
-10.91,-225.311,-32.19
-10.88,-223.03,-32.213
-10.84,-221.767,-31.858
-10.81,-220.222,-31.067
-10.78,-217.415,-30.793
-10.75,-215.871,-30.472
-10.71,-213.87,-29.842
-10.68,-211.308,-29.67
-10.65,-209.554,-29.567
-10.62,-207.729,-29.154
-10.58,-205.096,-28.822
-10.55,-203.271,-28.375
-10.52,-201.236,-27.826
-10.48,-198.393,-27.654
-10.45,-196.288,-27.379
-10.42,-194.252,-27.115
-10.39,-191.936,-27.058
-10.35,-190.146,-26.76
-10.32,-188.216,-26.21
-10.29,-185.654,-25.764
-10.26,-183.443,-25.202
-10.22,-181.161,-24.503
-10.19,-178.284,-24.148
-10.16,-175.862,-23.873
-10.13,-173.897,-23.392
-10.09,-170.703,-23.014
-10.06,-168.176,-22.464
-10.03,-165.93,-21.743
-10.0,-162.631,-21.365
-9.96,-159.473,-20.757
-9.93,-157.297,-20.162
-9.9,-154.63,-20.104
-9.87,-151.471,-19.898
-9.83,-149.295,-19.051
-9.8,-146.768,-18.443
-9.77,-142.838,-17.962
-9.74,-140.03,-17.298
-9.7,-138.275,-16.427
-9.67,-134.274,-16.473
-9.64,-131.256,-16.45
-9.61,-130.449,-15.373
-9.57,-126.448,-15.11
-9.54,-123.395,-15.236
-9.51,-122.237,-14.022
-9.48,-117.393,-13.071
-9.44,-113.112,-12.784
-9.41,-110.971,-11.845
-9.38,-105.637,-11.559
-9.35,-101.881,-11.685
-9.31,-100.127,-10.929
-9.28,-95.74,-10.596
-9.25,-92.511,-10.39
-9.21,-90.265,-9.313
-9.18,-86.053,-8.557
-9.15,-82.544,-8.133
-9.12,-79.175,-7.412
-9.08,-75.42,-6.77
-9.05,-71.945,-6.312
-9.02,-68.295,-5.819
-8.99,-65.031,-5.166
-8.95,-61.662,-4.594
-8.92,-58.012,-4.284
-8.89,-54.713,-3.975
-8.86,-51.765,-3.54
-8.82,-48.607,-3.104
-8.79,-45.097,-2.749
-8.76,-42.325,-2.062
-8.73,-39.026,-1.34
-8.69,-34.814,-1.088
-8.66,-32.253,-0.355
-8.63,-28.708,0.481
-8.6,-24.847,0.825
-8.56,-22.496,1.249
-8.53,-19.653,1.821
-8.5,-15.828,2.451
-8.47,-10.774,3.104
-8.43,-4.878,3.46
-8.4,1.018,3.116
-8.37,6.177,2.623
-8.34,10.529,2.268
-8.3,14.143,1.959
-8.27,16.284,1.638
-8.24,18.074,1.466
-8.21,19.829,1.684
-8.17,22.25,2.119
-8.14,23.97,2.704
-8.11,26.321,3.402
-8.08,29.515,3.975
-8.04,32.042,4.766
-8.01,35.622,5.487
-7.98,39.482,6.22
-7.94,45.027,6.575
-7.91,49.8,6.575
-7.88,53.38,6.77
-7.85,57.732,6.679
-7.81,60.153,6.793
-7.78,61.697,7.469
-7.75,65.031,7.801
-7.72,67.032,8.534
-7.68,69.173,9.806
-7.65,73.524,10.379
-7.62,76.753,11.215
-7.59,80.157,12.372
-7.55,85.071,12.865
-7.52,89.037,13.46
-7.49,92.406,14.205
-7.46,96.196,14.48
-7.42,99.881,14.697
-7.39,102.338,15.224
-7.36,104.97,15.763
-7.33,108.83,16.106
-7.29,111.392,16.805
-7.26,114.165,17.642
-7.23,118.797,17.859
-7.2,121.675,18.363
-7.16,124.272,18.993
-7.13,128.764,18.856
-7.1,131.432,19.303
-7.07,133.783,20.059
-7.03,138.1,19.978
-7.0,141.013,20.62
-6.97,141.75,21.903
-6.94,145.119,21.903
-6.9,147.014,22.854
-6.87,149.12,24.148
-6.84,151.225,24.572
-6.81,153.822,25.512
-6.77,156.49,26.325
-6.74,159.157,27.081
-6.71,162.842,27.826
-6.68,165.79,28.295
-6.64,168.668,28.788
-6.61,171.791,28.857
-6.58,174.283,28.879
-6.54,176.74,29.395
-6.51,179.688,29.945
-6.48,182.214,30.346
-6.45,184.531,30.793
-6.41,187.444,31.171
-6.38,189.584,31.297
-6.35,191.62,31.697
-6.32,194.708,32.293
-6.28,196.709,32.591
-6.25,198.569,32.728
-6.22,201.376,32.717
-6.19,203.693,33.267
-6.15,205.518,33.668
-6.12,207.553,33.381
-6.09,208.992,33.221
-6.06,210.291,33.611
-6.02,212.396,33.908
-5.99,213.905,34.206
-5.96,215.274,34.848
-5.93,218.011,35.191
-5.89,219.485,35.329
-5.86,220.784,35.661
-5.83,223.346,35.695
-5.8,224.574,35.982
-5.76,226.224,36.509
-5.73,228.645,36.6
-5.7,229.979,37.036
-5.67,231.909,37.586
-5.63,234.155,37.425
-5.6,234.962,37.357
-5.57,236.577,37.654
-5.54,238.542,37.826
-5.5,239.455,38.284
-5.47,241.245,38.834
-5.44,243.666,39.063
-5.41,244.965,39.545
-5.37,246.86,39.934
-5.34,248.965,39.785
-5.31,249.948,40.003
-5.27,251.738,40.427
-5.24,253.773,40.61
-5.21,254.826,41.011
-5.18,256.686,41.332
-5.14,258.511,41.32
-5.11,259.248,41.469
-5.08,260.617,41.343
-5.05,261.67,41.045
-5.01,262.196,41.481
-4.98,263.635,41.939
-4.95,264.934,42.179
-4.92,266.022,42.786
-4.88,267.741,43.119
-4.85,269.18,42.993
-4.82,269.882,43.119
-4.79,271.286,43.13
-4.75,272.128,43.13
-4.72,272.935,43.543
-4.69,274.445,43.737
-4.66,275.427,44.024
-4.62,276.41,44.322
-4.59,277.673,44.195
-4.56,278.305,43.978
-4.53,278.726,44.035
-4.49,279.498,43.795
-4.46,279.604,43.772
-4.43,279.99,44.104
-4.4,280.797,44.161
-4.36,280.972,44.253
-4.33,281.393,44.528
-4.3,282.271,44.493
-4.27,282.376,44.379
-4.23,282.306,44.344
-4.2,282.832,44.035
-4.17,283.008,44.425
-4.14,283.218,44.814
-4.1,283.359,44.047
-4.07,282.762,43.646
-4.04,282.657,43.886
-4.01,282.411,43.554
-3.97,281.358,43.142
-3.94,281.113,43.279
-3.91,281.709,43.886
-3.87,281.183,44.161
-3.84,280.832,43.588
-3.81,280.937,42.89
-3.78,279.709,42.89
-3.74,279.323,42.798
-3.71,278.13,41.916
-3.68,276.585,41.71
-3.65,276.41,41.95
-3.61,275.217,41.687
-3.58,273.567,41.16
-3.55,272.795,40.908
-3.52,271.216,40.209
-3.48,269.11,39.751
-3.45,267.812,39.464
-3.42,266.057,39.178
-3.39,264.091,39.132
-3.35,263.144,38.983
-3.32,261.88,39.052
-3.29,260.477,39.018
-3.26,259.81,38.662
-3.22,258.406,38.353
-3.19,256.932,38.055
-3.16,256.265,37.769
-3.13,254.616,37.62
-3.09,253.177,37.586
-3.06,252.44,37.059
-3.03,250.404,36.326
-3.0,248.123,35.661
-2.96,246.404,35.008
-2.93,244.087,34.756
-2.9,242.122,34.859
-2.87,240.788,34.664
-2.83,238.718,34.424
-2.8,237.209,34.378
-2.77,235.805,34.034
-2.74,233.629,33.519
-2.7,231.839,33.015
-2.67,230.26,32.683
-2.64,228.154,32.557
-2.6,226.189,32.419
-2.57,224.785,32.087
-2.54,222.96,31.846
-2.51,220.854,31.56
-2.47,219.24,31.033
-2.44,217.239,30.621
-2.41,215.028,30.518
-2.38,213.695,30.208
-2.34,211.484,29.968
-2.31,209.694,29.991
-2.28,208.606,29.647
-2.25,206.36,29.2
-2.21,204.184,28.696
-2.18,202.464,27.963
-2.15,199.692,27.539
-2.12,196.884,27.356
-2.08,195.2,26.932
-2.05,192.567,26.795
-2.02,190.111,26.76
-1.99,188.672,26.119
-1.95,185.97,25.683
-1.92,183.513,25.363
-1.89,181.653,24.549
-1.86,178.459,24.16
-1.82,175.862,23.954
-1.79,174.213,23.312
-1.76,171.019,22.911
-1.73,168.176,22.487
-1.69,166.211,21.685
-1.66,162.842,21.296
-1.63,159.613,20.849
-1.6,157.367,20.23
-1.56,154.945,20.013
-1.53,151.576,19.841
-1.5,149.295,19.085
-1.47,147.119,18.329
-1.43,143.224,18.031
-1.4,139.96,17.47
-1.37,138.977,16.462
-1.34,135.222,16.439
-1.3,131.116,16.347
-1.27,130.589,15.03
-1.24,126.694,14.846
-1.2,122.588,15.179
-1.17,122.377,14.148
-1.14,117.85,13.22
-1.11,113.217,13.197
-1.07,112.059,12.257
-1.04,107.04,11.834
-1.01,102.759,12.005
-0.98,101.25,10.711
-0.94,95.915,9.84
-0.91,91.774,9.783
-0.88,89.212,8.935
-0.85,84.755,8.305
-0.81,81.386,8.019
-0.78,78.262,7.492
-0.75,74.858,7.011
-0.72,72.121,6.564
-0.68,68.681,6.117
-0.65,65.839,5.567
-0.62,63.031,4.96
-0.59,59.416,4.594
-0.55,56.152,4.09
-0.52,53.064,3.437
-0.49,49.519,2.956
-0.46,45.589,2.623
-0.42,42.676,2.028
-0.39,39.447,1.42
-0.36,35.376,1.272
-0.33,32.779,0.619
-0.29,29.585,-0.321
-0.26,25.655,-0.699
-0.23,23.163,-1.157
-0.2,20.11,-1.902
-0.16,16.284,-2.509
-0.13,11.336,-2.944
-0.1,5.826,-3.116
-0.07,0.456,-2.841
-0.03,-4.352,-2.497
0.0,-8.669,-2.325
0.03,-12.599,-2.028
0.07,-15.302,-1.753
0.1,-17.442,-1.833
0.13,-19.759,-2.131
0.16,-22.672,-2.429
0.2,-24.812,-2.978
0.23,-27.129,-3.712
0.26,-30.252,-4.067
0.29,-32.639,-4.571
0.33,-36.043,-5.235
0.36,-39.307,-5.923
0.39,-44.185,-6.152
0.42,-48.537,-6.175
0.46,-51.941,-6.656
0.49,-56.152,-6.919
0.52,-59.486,-7.091
0.55,-61.732,-7.778
0.59,-65.453,-8.385
0.62,-68.471,-9.016
0.65,-70.787,-9.978
0.68,-74.788,-10.493
0.72,-78.157,-11.112
0.75,-80.93,-12.109
0.78,-85.001,-12.613
0.81,-88.966,-13.346
0.85,-93.073,-14.961
0.88,-98.267,-16.118
0.91,-103.496,-16.336
0.94,-107.181,-16.45
0.98,-110.094,-16.943
1.01,-114.024,-17.126
1.04,-116.972,-17.218
1.07,-118.832,-17.653
1.11,-121.921,-17.699
1.14,-124.307,-17.63
1.17,-125.43,-18.1
1.2,-128.098,-18.306
1.24,-131.046,-18.764
1.27,-132.66,-19.944
1.3,-136.626,-20.654
1.34,-141.083,-21.113
1.37,-142.662,-22.648
1.4,-146.277,-23.06
1.43,-148.769,-23.381
1.47,-151.155,-24.71
1.5,-153.717,-25.546
1.53,-156.349,-26.29
1.56,-159.683,-27.058
1.6,-162.631,-27.894
1.63,-165.93,-28.524
1.66,-169.37,-28.776
1.69,-171.967,-29.04
1.73,-174.879,-29.315
1.76,-177.933,-29.578
1.79,-180.214,-30.208
1.82,-183.127,-30.655
1.86,-185.829,-30.735
1.89,-187.654,-31.067
1.92,-190.146,-31.297
1.95,-192.322,-31.205
1.99,-193.48,-31.491
2.02,-195.901,-31.961
2.05,-198.112,-32.293
2.08,-199.657,-32.843
2.12,-202.429,-33.072
2.15,-204.535,-33.107
2.18,-205.904,-33.439
2.21,-208.15,-33.485
2.25,-209.869,-33.427
2.28,-211.028,-34.115
2.31,-213.765,-34.63
2.34,-215.73,-34.882
2.38,-217.169,-35.432
2.41,-220.152,-35.718
2.44,-221.837,-35.741
2.47,-222.995,-35.925
2.51,-225.452,-35.833
2.54,-227.031,-36.051
2.57,-228.119,-36.761
2.6,-230.54,-36.921
2.64,-231.944,-37.013
2.67,-233.278,-37.528
2.7,-235.629,-37.574
2.74,-236.507,-37.563
2.77,-237.805,-37.883
2.8,-240.262,-38.136
2.83,-241.385,-38.731
2.87,-243.385,-39.522
2.9,-245.947,-39.602
2.93,-247.07,-39.762
2.96,-248.79,-39.911
3.0,-250.685,-39.671
3.03,-251.212,-39.751
3.06,-252.721,-40.152
3.09,-254.405,-40.358
3.13,-255.142,-40.816
3.16,-256.827,-41.171
3.19,-258.582,-41.103
3.22,-259.248,-41.377
3.26,-260.512,-41.481
3.29,-261.705,-41.194
3.32,-262.442,-41.687
3.35,-264.197,-42.294
3.39,-265.811,-42.638
3.42,-266.969,-43.245
3.45,-268.829,-43.451
3.48,-270.268,-43.107
3.52,-271.005,-43.348
3.55,-271.356,-42.764
3.58,-267.075,-38.032
3.61,-260.406,-33.347
3.65,-257.002,-32.981
3.68,-253.598,-34.676
3.71,-249.211,-36.131
3.74,-249.036,-37.013
3.78,-250.475,-39.167
3.81,-252.65,-42.363
3.84,-257.108,-44.115
3.87,-261.459,-45.387
3.91,-267.18,-47.231
3.94,-272.163,-47.598
3.97,-275.357,-46.75
4.01,-278.551,-46.028
4.04,-280.902,-45.742
4.07,-282.341,-45.49
4.1,-283.008,-44.871
4.14,-283.394,-44.127
4.17,-283.253,-43.737
4.2,-282.516,-43.52
4.23,-282.095,-43.13
4.27,-281.253,-42.993
4.3,-280.411,-43.004
4.33,-280.13,-42.844
4.36,-279.428,-42.958
4.4,-279.533,-43.485
4.43,-280.06,-43.817
4.46,-279.99,-43.932
4.49,-280.341,-43.886
4.53,-280.481,-43.543
4.56,-279.674,-43.084
4.59,-279.112,-42.534
4.62,-278.34,-42.007
4.66,-276.971,-41.893
4.69,-276.27,-41.813
4.72,-275.322,-41.572
4.75,-273.883,-41.492
4.79,-273.181,-41.114
4.82,-271.497,-40.495
4.85,-269.566,-40.094
4.88,-268.619,-39.693
4.92,-267.285,-39.636
4.95,-265.636,-39.877
4.98,-265.004,-39.842
5.01,-264.091,-39.613
5.05,-262.723,-39.464
5.08,-261.705,-38.869
5.11,-260.126,-38.227
5.14,-258.336,-38.032
5.18,-257.213,-37.872
5.21,-255.774,-37.448
5.24,-253.703,-37.265
5.27,-252.756,-37.082
5.31,-250.931,-36.612
5.34,-248.685,-36.142
5.37,-247.316,-35.558
5.41,-245.316,-35.283
5.44,-243.315,-35.237
5.47,-241.982,-34.894
5.5,-240.121,-34.516
5.54,-238.086,-34.401
5.57,-236.577,-33.954
5.6,-234.471,-33.278
5.63,-232.33,-33.107
5.67,-230.786,-32.889
5.7,-228.926,-32.648
5.73,-226.996,-32.671
5.76,-225.873,-32.602
5.8,-224.294,-32.339
5.83,-222.258,-31.915
5.86,-220.714,-31.239
5.89,-218.678,-30.632
5.93,-216.046,-30.495
5.96,-214.467,-30.185
5.99,-212.466,-29.75
6.02,-209.869,-29.704
6.06,-208.536,-29.269
6.09,-206.219,-28.501
6.12,-203.026,-28.169
6.15,-201.587,-27.608
6.19,-198.674,-27.356
6.22,-195.691,-27.528
6.25,-194.673,-27.218
6.28,-192.322,-27.058
6.32,-189.935,-27.001
6.35,-189.023,-26.336
6.38,-186.496,-25.912
6.41,-183.759,-25.592
6.45,-182.355,-24.675
6.48,-179.442,-24.309
6.51,-176.529,-24.217
6.54,-175.02,-23.415
6.58,-172.002,-22.888
6.61,-168.562,-22.567
6.64,-166.667,-21.64
6.68,-163.368,-21.113
6.71,-159.683,-20.757
6.74,-157.367,-20.127
6.77,-155.121,-19.956
6.81,-151.611,-19.875
6.84,-149.33,-19.291
6.87,-147.716,-18.673
6.9,-144.066,-18.501
6.94,-141.013,-17.939
6.97,-140.135,-16.977
7.0,-136.52,-16.885
7.03,-132.555,-16.748
7.07,-132.133,-15.35
7.1,-128.098,-14.594
7.13,-122.798,-14.583
7.16,-121.745,-13.3
7.2,-116.727,-12.647
7.23,-111.708,-13.208
7.26,-111.076,-12.544
7.29,-106.725,-12.212
7.33,-102.969,-12.59
7.36,-102.548,-11.559
7.39,-97.845,-10.757
7.42,-93.985,-10.459
7.46,-91.563,-9.13
7.49,-86.755,-8.305
7.52,-83.07,-7.95
7.55,-79.385,-7.274
7.59,-75.42,-6.747
7.62,-72.401,-6.381
7.65,-68.716,-6.049
7.68,-65.768,-5.51
7.72,-62.82,-4.823
7.75,-59.135,-4.468
7.78,-55.907,-4.147
7.81,-52.924,-3.574
7.85,-49.59,-3.082
7.88,-45.975,-2.841
7.91,-43.202,-2.303
7.94,-40.044,-1.501
7.98,-35.867,-1.191
8.01,-33.165,-0.676
8.04,-29.971,0.195
8.08,-25.9,0.71
8.11,-22.987,1.398
8.14,-19.759,2.234
8.17,-15.337,2.761
8.21,-10.143,3.059
8.24,-4.457,3.208
8.27,1.123,3.047
8.3,6.107,2.52
8.34,10.002,1.947
8.37,12.915,1.466
8.4,14.775,1.249
8.43,16.495,1.478
8.47,18.565,2.062
8.5,21.584,2.612
8.53,24.216,3.15
8.56,26.988,3.861
8.6,30.463,4.387
8.63,33.516,5.109
8.66,37.411,5.739
8.69,41.132,6.209
8.73,46.185,6.518
8.76,50.853,6.701
8.79,54.468,6.736
8.82,58.047,6.747
8.86,60.96,7.102
8.89,62.75,7.767
8.92,65.382,7.985
8.95,67.909,8.443
8.99,69.839,9.703
9.02,73.314,10.379
9.05,76.753,10.837
9.08,79.631,11.948
9.12,83.772,12.727
9.15,87.914,13.151
9.18,91.177,13.873
9.21,94.862,14.342
9.25,98.512,14.64
9.28,101.46,15.179
9.31,104.303,15.706
9.35,107.812,16.198
9.38,111.217,16.851
9.41,114.34,17.664
9.44,118.06,18.088
9.48,121.956,18.203
9.51,124.658,18.902
9.54,127.887,19.119
9.57,131.853,19.051
9.61,133.572,19.669
9.64,136.52,20.265
9.67,140.591,20.265
9.7,140.872,21.307
9.74,143.399,21.708
9.77,145.856,21.914
9.8,147.33,23.358
9.83,149.541,24.114
9.87,151.611,24.881
9.9,154.805,25.855
9.93,157.402,26.76
9.96,160.385,27.585
10.0,164.246,28.032
10.03,167.159,28.582
10.06,170.177,29.154
10.09,173.862,29.303
10.13,176.459,29.807
10.16,179.512,30.518
10.19,183.092,30.735
10.22,185.233,31.148
10.26,187.97,31.56
10.29,191.058,31.468
10.32,192.392,31.629
10.35,194.743,31.972
10.39,197.34,32.121
10.42,198.639,32.58
10.45,201.201,32.832
10.48,203.482,32.809
10.52,204.535,33.084
10.55,206.711,33.141
10.58,208.43,33.026
10.62,209.203,33.519
10.65,211.484,34.012
10.68,213.554,34.218
10.71,214.502,34.985
10.75,217.625,35.547
10.78,219.942,35.65
10.81,220.679,35.776
10.84,223.907,36.016
10.88,225.697,36.326
10.91,226.82,36.91
10.94,229.698,36.944
10.97,231.453,37.162
11.01,232.716,37.803
11.04,235.243,37.574
11.07,236.366,37.505
11.1,237.419,38.032
11.14,239.595,37.861
11.17,240.437,38.032
11.2,241.841,38.892
11.23,244.508,39.224
11.27,245.386,39.407
11.3,246.825,39.659
11.33,249.106,39.464
11.36,249.702,39.671
11.4,251.282,40.117
11.43,253.247,40.255
11.46,254.089,40.793
11.49,256.125,41.286
11.53,257.985,41.423
11.56,258.862,41.618
11.59,260.406,41.423
11.62,261.494,41.08
11.66,261.986,41.458
11.69,263.39,41.847
11.72,264.758,42.042
11.75,265.706,42.683
11.79,267.39,43.061
11.82,268.759,42.924
11.85,269.426,43.05
11.88,270.865,43.153
11.92,271.953,43.084
11.95,272.62,43.554
11.98,274.269,43.898
12.02,275.462,44.069
12.05,276.375,44.436
12.08,277.744,44.356
12.11,278.445,44.127
12.15,278.972,44.173
12.18,279.674,43.966
12.21,279.919,43.875
12.24,280.235,44.253
12.28,281.042,44.287
12.31,281.288,44.15
12.34,281.393,44.344
12.37,281.779,44.058
12.41,281.815,43.852
12.44,281.534,43.978
12.47,281.885,43.955
12.5,282.166,44.218
12.54,282.552,44.768
12.57,283.148,44.677
12.6,283.499,44.516
12.63,283.534,44.425
12.67,283.85,44.253
12.7,283.464,43.943
12.73,283.008,43.68
12.76,282.692,43.6
12.8,282.236,43.474
12.83,281.358,43.187
12.86,280.762,42.764
12.89,279.604,42.351
12.93,278.305,42.076
12.96,277.287,41.526
12.99,275.462,41.355
13.02,274.585,41.446
13.06,273.708,41.32
13.09,272.339,41.194
13.12,271.251,40.896
13.15,270.198,40.381
13.19,268.584,39.934
13.22,267.18,39.648
13.25,265.881,39.51
13.29,264.548,39.579
13.32,263.741,39.453
13.35,262.547,39.281
13.38,261.214,39.098
13.42,260.266,38.559
13.45,258.652,38.101
13.48,257.108,38.01
13.51,256.195,37.792
13.55,254.651,37.563
13.58,253.247,37.448
13.61,252.229,37.185
13.64,250.79,36.715
13.68,248.895,36.326
13.71,247.386,35.695
13.74,245.561,35.203
13.77,243.631,35.329
13.81,242.157,35.146
13.84,240.262,34.447
13.87,238.156,34.172
13.9,236.682,33.92
13.94,234.576,33.301
13.97,231.944,32.912
14.0,230.4,32.66
14.03,228.54,32.396
14.07,226.048,32.339
14.1,224.715,32.121
14.13,223.1,31.846
14.16,220.854,31.629
14.2,219.205,31.171
14.23,217.52,30.644
14.26,215.028,30.54
14.29,213.695,30.357
14.33,211.975,29.922
14.36,209.413,29.933
14.39,208.501,29.59
14.42,206.465,28.879
14.46,203.307,28.524
14.49,201.938,27.86
14.52,199.551,27.333
14.55,196.007,27.436
14.59,194.919,27.047
14.62,192.603,26.783
14.65,189.619,26.955
14.69,188.812,26.119
14.72,186.145,25.546
14.75,183.022,25.431
14.78,181.688,24.526
14.82,178.775,24.068
14.85,175.757,24.091
14.88,174.529,23.358
14.91,171.265,22.945
14.95,168.176,22.671
14.98,166.457,21.788
15.01,163.298,21.319
15.04,159.718,20.952
15.08,157.578,20.265
15.11,155.437,19.875
15.14,151.717,19.738
15.17,148.979,19.085
15.21,147.365,18.214
15.24,143.68,17.894
15.27,139.644,17.516
15.3,138.802,16.542
15.34,135.608,16.427
15.37,130.975,16.45
15.4,130.344,15.053
15.43,126.659,14.102
15.47,121.149,14.468
15.5,120.341,13.712
15.53,116.376,12.922
15.56,111.322,13.277
15.6,110.76,12.578
15.63,106.689,12.051
15.66,102.618,12.429
15.69,101.987,11.513
15.73,97.74,10.665
15.76,93.985,10.39
15.79,91.844,9.359
15.82,87.106,8.58
15.86,83.667,8.088
15.89,80.052,7.343
15.92,75.876,6.862
15.96,72.893,6.335
15.99,68.997,5.877
16.02,65.628,5.441
16.05,62.68,4.88
16.09,59.1,4.525
16.12,55.907,4.17
16.15,53.064,3.597
16.18,49.695,3.07
16.22,45.834,2.623
16.25,42.57,1.936
16.28,39.131,1.146
16.31,34.639,0.745
16.35,31.586,0.218
16.38,28.357,-0.527
16.41,24.567,-0.905
16.44,21.899,-1.363
16.48,18.916,-1.993
16.51,14.915,-2.486
16.54,10.283,-2.715
16.57,5.37,-2.681
16.61,0.772,-2.509
16.64,-3.685,-2.371
16.67,-7.651,-2.177
16.7,-11.406,-1.947
16.74,-14.389,-1.821
16.77,-16.6,-1.867
16.8,-18.987,-2.062
16.83,-21.584,-2.303
16.87,-23.935,-2.704
16.9,-26.041,-3.288
16.93,-28.954,-3.872
16.96,-31.726,-4.651
17.0,-35.095,-5.441
17.03,-38.78,-6.037
17.06,-43.658,-6.404
17.09,-48.607,-6.564
17.13,-52.888,-6.873
17.16,-56.854,-7.034
17.19,-60.399,-7.206
17.23,-62.891,-7.698
17.26,-65.663,-8.305
17.29,-68.752,-8.821
17.32,-70.927,-9.68
17.36,-73.946,-10.402
17.39,-77.596,-10.929
17.42,-80.157,-11.685
17.45,-83.421,-12.235
17.49,-86.931,-12.59
17.52,-89.774,-13.346
17.55,-93.073,-13.999
17.58,-96.758,-14.445
17.62,-100.056,-15.259
17.65,-103.847,-16.175
17.68,-108.128,-17.057
17.71,-112.936,-17.894
17.75,-117.183,-18.638
17.78,-121.289,-19.28
17.81,-126.518,-19.371
17.84,-129.993,-19.566
17.88,-132.59,-19.875
17.91,-137.187,-19.44
17.94,-137.924,-19.875
17.97,-139.433,-20.597
18.01,-142.767,-20.23
18.04,-142.381,-21.296
18.07,-143.82,-22.075
18.1,-145.821,-22.579
18.14,-148.067,-24.034
18.17,-150.067,-24.71
18.2,-152.103,-25.363
18.23,-155.858,-26.13
18.27,-158.35,-27.035
18.3,-161.298,-27.837
18.33,-165.509,-28.123
18.36,-168.036,-28.765
18.4,-171.159,-29.406
18.43,-174.985,-29.303
18.46,-177.02,-29.75
18.49,-180.003,-30.495
18.53,-183.513,-30.518
18.56,-184.987,-30.804
18.59,-187.724,-31.297
18.63,-190.813,-31.319
18.66,-191.83,-31.64
18.69,-193.936,-31.858
18.72,-196.744,-31.675
18.76,-197.481,-32.144
18.79,-199.797,-32.58
18.82,-202.394,-32.362
18.85,-203.096,-32.82
18.89,-205.553,-33.255
18.92,-207.588,-33.152
18.95,-208.325,-33.599
18.98,-210.887,-34.126
19.02,-213.133,-34.401
19.05,-214.397,-35.088
19.08,-217.345,-35.524
19.11,-219.731,-35.673
19.15,-221.17,-36.337
19.18,-224.118,-36.406
19.21,-226.118,-36.303
19.24,-227.347,-36.91
19.28,-230.19,-37.105
19.31,-231.699,-36.944
19.34,-232.295,-37.196
19.37,-234.927,-37.242
19.41,-235.629,-37.173
19.44,-236.296,-37.609
19.47,-238.823,-37.803
19.5,-239.665,-38.055
19.54,-240.753,-38.708
19.57,-243.35,-38.685
19.6,-244.193,-38.937
19.63,-245.667,-39.648
19.67,-248.264,-39.739
19.7,-249.071,-39.957
19.73,-250.65,-40.301
19.76,-252.861,-40.243
19.8,-253.458,-40.495
19.83,-255.107,-40.965
19.86,-257.213,-41.114
19.9,-258.02,-41.469
19.93,-259.634,-41.744
19.96,-261.249,-41.446
19.99,-261.88,-41.687
20.03,-263.39,-42.088
20.06,-264.864,-42.237
20.09,-265.881,-42.764
20.12,-267.32,-42.935
20.16,-268.373,-42.489
20.19,-268.654,-42.34
20.22,-269.496,-42.374
20.25,-270.128,-42.363
20.29,-270.549,-42.821
20.32,-271.672,-43.313
20.35,-272.971,-43.634
20.38,-273.918,-44.058
20.42,-275.357,-44.218
20.45,-276.726,-44.23
20.48,-277.673,-44.654
20.51,-279.147,-44.791
20.55,-280.516,-44.871
20.58,-281.534,-45.398
20.61,-283.183,-45.639
20.64,-284.131,-45.421
20.68,-284.833,-45.467
20.71,-285.5,-45.1
20.74,-285.289,-44.539
20.77,-285.324,-44.459
20.81,-285.535,-44.436
20.84,-285.149,-44.344
20.87,-284.692,-44.15
20.9,-284.798,-44.184
20.94,-284.271,-43.978
20.97,-283.675,-43.966
21.0,-283.218,-43.565
21.03,-282.832,-43.405
21.07,-282.411,-43.772
21.1,-282.587,-43.989
21.13,-282.095,-43.703
21.16,-281.288,-43.176
21.2,-280.516,-42.603
21.23,-279.288,-42.191
21.26,-277.779,-41.87
21.3,-276.691,-41.629
21.33,-275.743,-41.607
21.36,-274.655,-41.87
21.39,-274.199,-41.755
21.43,-273.076,-41.366
21.46,-271.707,-41.022
21.49,-270.76,-40.461
21.52,-268.9,-39.945
21.56,-267.075,-39.522
21.59,-265.987,-39.178
21.62,-264.372,-39.212
21.65,-262.933,-39.35
21.69,-262.126,-39.098
21.72,-260.582,-38.731
21.75,-259.003,-38.388
21.78,-257.704,-37.883
21.82,-256.125,-37.494
21.85,-254.405,-37.414
21.88,-253.247,-37.185
21.91,-251.562,-36.864
21.95,-250.053,-36.726
21.98,-248.755,-36.28
22.01,-246.579,-35.753
22.04,-244.824,-35.386
22.08,-243.385,-34.894
22.11,-241.139,-34.676
22.14,-239.279,-34.584
22.17,-238.121,-34.275
22.21,-236.226,-34.321
22.24,-234.576,-34.138
22.27,-233.418,-33.404
22.3,-231.067,-33.084
22.34,-229.523,-33.072
22.37,-228.294,-32.568
22.4,-225.452,-32.167
22.43,-224.188,-32.11
22.47,-223.206,-31.95
22.5,-220.363,-31.801
22.53,-218.994,-31.251
22.57,-217.766,-30.632
22.6,-215.028,-30.667
22.63,-213.554,-30.426
22.66,-212.186,-29.807
22.7,-209.413,-29.796
22.73,-208.325,-29.647
22.76,-206.711,-28.948
22.79,-203.587,-28.65
22.83,-202.219,-28.112
22.86,-200.078,-27.447
22.89,-196.393,-27.505
22.92,-195.129,-27.161
22.96,-192.989,-26.772
22.99,-189.795,-26.852
23.02,-188.672,-26.084
23.05,-186.285,-25.363
23.09,-182.671,-25.237
23.12,-181.372,-24.32
23.15,-178.494,-23.782
23.18,-175.055,-23.965
23.22,-173.581,-23.266
23.25,-170.633,-22.716
23.28,-167.334,-22.51
23.31,-165.509,-21.766
23.35,-162.737,-21.158
23.38,-159.087,-20.746
23.41,-156.49,-20.059
23.44,-154.559,-19.91
23.48,-150.839,-19.486
23.51,-147.54,-18.535
23.54,-146.101,-18.031
23.57,-142.873,-17.859
23.61,-139.188,-17.882
23.64,-138.416,-17.195
23.67,-136.029,-16.885
23.7,-132.028,-17.057
23.74,-131.537,-15.946
23.77,-128.589,-14.846
23.8,-123.149,-14.686
23.83,-121.851,-13.724
23.87,-117.744,-12.784
23.9,-112.129,-13.059
23.93,-110.901,-12.372
23.97,-106.689,-11.708
24.0,-101.952,-12.017
24.03,-100.758,-11.181
24.06,-96.547,-10.379
24.1,-92.581,-10.264
24.13,-90.335,-9.371
24.16,-85.983,-8.626
24.19,-82.79,-8.133
24.23,-79.35,-7.435
24.26,-75.244,-6.919
24.29,-72.401,-6.358
24.32,-68.646,-5.957
24.36,-65.417,-5.613
24.39,-62.68,-4.926
24.42,-59.1,-4.468
24.45,-55.696,-4.124
24.49,-52.608,-3.448
24.52,-49.168,-2.864
24.55,-45.308,-2.635
24.58,-42.114,-2.188
24.62,-39.026,-1.352
24.65,-35.025,-0.905
24.68,-31.902,-0.458
24.71,-28.954,0.275
24.75,-25.163,0.882
24.78,-21.97,1.512
24.81,-18.741,2.188
24.84,-14.354,2.738
24.88,-9.195,3.013
24.91,-3.79,2.967
24.94,1.263,2.704
24.97,5.791,2.429
25.01,9.862,2.096
25.04,13.126,1.73
25.07,15.231,1.375
25.1,16.986,1.489
25.14,18.951,1.936
25.17,21.513,2.406
25.2,24.251,2.91
25.24,26.778,3.677
25.27,29.866,4.376
25.3,33.06,4.995
25.33,36.85,5.567
25.37,40.71,6.083
25.4,45.273,6.438
25.43,49.835,6.553
25.46,53.871,6.679
25.5,57.17,6.919
25.53,60.469,7.137
25.56,62.926,7.538
25.59,65.031,8.271
25.63,68.26,8.832
25.66,70.822,9.6
25.69,73.56,10.573
25.72,77.56,11.1
25.76,80.719,11.879
25.79,84.088,12.727
25.82,88.229,13.151
25.85,91.634,13.804
25.89,95.038,14.354
25.92,98.477,14.663
25.95,101.741,15.213
25.98,104.865,15.774
26.02,107.532,16.439
26.05,111.568,16.954
26.08,115.042,17.367
26.11,117.393,18.203
26.15,122.061,18.317
26.18,125.36,18.604
26.21,127.361,19.612
26.24,132.66,19.52
26.28,135.397,19.795
26.31,137.292,20.826
26.34,142.346,20.666
26.37,142.451,21.571
26.41,144.662,22.27
26.44,147.084,22.235
26.47,147.856,23.679
26.51,150.278,24.286
26.54,151.646,24.95
26.57,155.296,26.038
26.6,158.209,26.863
26.64,160.526,27.814
26.67,165.053,28.078
26.7,167.72,28.536
26.73,170.282,29.269
26.77,174.634,29.223
26.8,176.599,29.647
26.83,179.301,30.575
26.86,183.583,30.609
26.9,184.952,31.022
26.93,187.759,31.594
26.96,191.234,31.388
26.99,192.006,31.629
27.03,194.463,32.076
27.06,197.411,32.018
27.09,197.937,32.534
27.12,200.885,32.866
27.16,203.517,32.625
27.19,203.903,33.072
27.22,206.29,33.301
27.25,208.571,33.038
27.29,208.992,33.645
27.32,211.554,34.298
27.35,214.011,34.355
27.38,214.713,34.951
27.42,217.696,35.501
27.45,219.977,35.489
27.48,220.573,35.661
27.51,223.486,35.879
27.55,225.276,35.993
27.58,225.943,36.44
27.61,228.645,36.543
27.64,230.26,36.784
27.68,231.488,37.574
27.71,234.261,37.723
27.74,235.489,37.54
27.77,236.507,37.883
27.81,238.893,37.964
27.84,240.016,38.158
27.87,241.28,38.766
27.91,243.701,38.983
27.94,244.859,39.293
27.97,246.333,39.705
28.0,248.544,39.613
28.04,249.316,39.785
28.07,250.966,40.312
28.1,253.317,40.45
28.13,254.019,40.896
28.17,255.949,41.366
28.2,258.266,41.389
28.23,258.757,41.572
28.26,260.161,41.503
28.3,261.354,41.091
28.33,261.88,41.435
28.36,263.249,41.916
28.39,264.583,42.111
28.43,265.636,42.706
28.46,267.39,43.107
28.49,268.724,43.061
28.52,269.672,43.142
28.56,270.97,43.199
28.59,272.023,43.233
28.62,272.865,43.611
28.65,274.304,43.955
28.69,275.533,44.15
28.72,276.48,44.425
28.75,277.603,44.39
28.78,278.516,44.115
28.82,278.831,44.001
28.85,279.218,44.001
28.88,279.884,43.886
28.91,280.095,44.138
28.95,280.656,44.425
28.98,281.183,44.356
29.01,281.464,44.31
29.04,281.99,44.413
29.08,282.692,44.551
29.11,282.552,44.528
29.14,282.692,44.15
29.18,283.324,44.562
29.21,283.92,45.215
29.24,284.166,44.917
29.27,284.412,44.505
29.31,284.412,44.207
29.34,284.026,44.001
29.37,283.253,43.359
29.4,282.481,43.027
29.44,281.885,43.245
29.47,281.323,43.291
29.5,280.376,42.912
29.53,279.428,42.557
29.57,278.726,42.202
29.6,277.252,41.916
29.63,276.094,41.572
29.66,275.287,41.4
29.7,274.129,41.561
29.73,273.251,41.652
29.76,272.585,41.309
29.79,271.181,41.045
29.83,270.479,40.69
29.86,269.18,40.198
29.89,267.426,39.911
29.92,266.443,39.659
29.96,265.179,39.487
29.99,263.6,39.487
30.02,262.968,39.258
30.05,261.494,38.96
30.09,259.915,38.777
30.12,259.143,38.227
30.15,257.353,37.883
30.18,255.739,37.838
30.22,254.932,37.483
30.25,253.212,37.185
30.28,251.492,37.116
30.31,250.439,36.509
30.35,248.334,35.948
30.38,246.333,35.776
30.41,245.07,35.169
30.44,242.613,34.768
30.48,240.578,34.825
30.51,239.665,34.447
30.54,237.209,34.206
30.58,235.384,34.034
30.61,234.296,33.324
30.64,231.453,33.026
30.67,229.733,32.923
30.71,228.575,32.362
30.74,225.522,32.202
30.77,224.118,32.167
30.8,223.135,31.606
30.84,219.977,31.445
30.87,218.468,31.205
30.9,217.45,30.495
30.93,214.151,30.506
30.97,213.133,30.449
31.0,211.94,29.91
31.03,208.957,30.025
31.06,208.22,29.704
31.1,206.57,28.857
31.13,203.236,28.65
31.16,202.078,28.078
31.19,199.973,27.39
31.23,196.147,27.528
31.26,194.989,27.207
31.29,193.094,26.806
31.32,189.725,27.012
31.36,188.918,26.233
31.39,186.496,25.477
31.42,183.057,25.454
31.45,181.898,24.561
31.49,178.986,23.999
31.52,175.652,24.16
31.55,174.564,23.461
31.58,171.545,22.831
31.62,168.141,22.579
31.65,166.422,21.788
31.68,163.333,21.25
31.71,159.929,20.849
31.75,157.297,20.299
31.78,155.156,20.001
31.81,151.962,19.772
31.85,148.839,19.268
31.88,147.084,18.501
31.91,144.241,18.272
31.94,140.17,17.813
31.98,138.626,16.771
32.01,136.415,16.542
32.04,131.888,16.588
32.07,130.589,15.602
32.11,127.852,14.468
32.14,122.588,14.537
32.17,121.008,13.918
32.2,117.639,13.025
32.24,112.691,13.243
32.27,111.322,12.807
32.3,107.812,12.074
32.33,103.461,12.109
32.37,101.811,11.41
32.4,97.845,10.585
32.43,93.95,10.173
32.46,91.072,9.233
32.5,86.404,8.5
32.53,83.176,7.996
32.56,79.385,7.423
32.59,75.385,7.045
32.63,72.682,6.392
32.66,68.892,5.877
32.69,65.417,5.579
32.72,62.645,4.903
32.76,59.03,4.376
32.79,55.661,4.101
32.82,52.783,3.608
32.85,49.484,3.059
32.89,45.799,2.612
32.92,42.395,2.062
32.95,39.131,1.352
32.98,35.306,0.825
33.02,31.831,0.367
33.05,28.813,-0.298
33.08,25.339,-0.848
33.12,22.25,-1.283
33.15,19.337,-1.902
33.18,15.442,-2.463
33.21,10.704,-2.784
33.25,5.58,-2.841
33.28,0.526,-2.795
33.31,-4.282,-2.589
33.34,-8.633,-2.268
33.38,-12.248,-1.799
33.41,-14.81,-1.558
33.44,-16.74,-1.604
33.47,-18.776,-1.89
33.51,-21.127,-2.303
33.54,-23.83,-2.681
33.57,-25.97,-3.196
33.6,-28.603,-3.975
33.64,-31.796,-4.731
33.67,-35.411,-5.499
33.7,-39.587,-6.22
33.73,-44.255,-6.77
33.77,-49.519,-7.011
33.8,-54.643,-7.057
33.83,-58.328,-7.286
33.86,-62.013,-7.458
33.9,-64.716,-7.584
33.93,-66.33,-8.317
33.96,-69.418,-8.821
33.99,-71.629,-9.394
34.03,-73.63,-10.402
34.06,-77.35,-11.02
34.09,-80.438,-11.742
34.12,-83.492,-12.601
34.16,-87.703,-13.002
34.19,-91.072,-13.598
34.22,-94.336,-14.297
34.25,-97.635,-14.732
34.29,-101.285,-15.247
34.32,-104.829,-15.877
34.35,-107.426,-16.714
34.38,-112.024,-17.252
34.42,-116.095,-17.642
34.45,-118.13,-18.741
34.48,-123.57,-18.741
34.52,-127.185,-18.707
34.55,-128.343,-19.681
34.58,-133.678,-19.268
34.61,-136.029,-19.326
34.65,-137.292,-20.952
34.68,-142.381,-20.551
34.71,-142.171,-21.113
34.74,-143.89,-21.834
34.78,-145.68,-21.995
34.81,-146.979,-23.828
34.84,-149.997,-24.423
34.87,-151.05,-25.259
34.91,-155.261,-26.394
34.94,-158.876,-27.31
34.97,-160.912,-28.066
35.0,-165.474,-28.089
35.04,-168.211,-28.295
35.07,-170.703,-29.441
35.1,-175.02,-29.452
35.13,-176.915,-29.498
35.17,-179.301,-30.369
35.2,-183.688,-30.609
35.23,-185.197,-30.919
35.26,-187.479,-31.514
35.3,-191.304,-31.423
35.33,-192.287,-31.709
35.36,-194.252,-32.133
35.39,-197.762,-31.904
35.43,-198.288,-32.316
35.46,-200.464,-32.912
35.49,-203.552,-32.534
35.52,-203.728,-32.866
35.56,-206.009,-33.301
35.59,-208.325,-33.061
35.62,-208.466,-33.565
35.65,-211.028,-34.115
35.69,-213.625,-34.241
35.72,-214.467,-35.123
35.75,-217.239,-35.535
35.79,-219.836,-35.386
35.82,-220.644,-35.925
35.85,-223.311,-36.268
35.88,-225.522,-36.016
35.92,-226.224,-36.394
35.95,-228.61,-36.749
35.98,-230.54,-36.795
36.01,-231.558,-37.391
36.05,-234.05,-37.666
36.08,-235.454,-37.46
36.11,-236.647,-38.021
36.14,-239.244,-38.456
36.18,-240.613,-38.571
36.21,-241.736,-38.857
36.24,-244.298,-39.086
36.27,-245.526,-39.453
36.31,-246.86,-39.797
36.34,-248.895,-39.636
36.37,-249.878,-39.682
36.4,-251.106,-40.049
36.44,-252.861,-40.255
36.47,-253.984,-40.587
36.5,-255.493,-41.045
36.53,-257.248,-41.24
36.57,-258.266,-41.412
36.6,-259.634,-41.526
36.63,-260.898,-41.366
36.66,-261.494,-41.607
36.7,-262.898,-41.962
36.73,-264.372,-42.122
36.76,-265.495,-42.752
36.79,-267.075,-43.096
36.83,-268.408,-42.809
36.86,-268.935,-42.615
36.89,-269.777,-42.58
36.92,-270.549,-42.523
36.96,-271.075,-42.958
36.99,-272.234,-43.439
37.02,-273.532,-43.806
37.05,-274.655,-44.253
37.09,-276.094,-44.493
37.12,-277.533,-44.516
37.15,-278.586,-44.688
37.19,-279.674,-44.803
37.22,-280.832,-44.848
37.25,-281.674,-45.123
37.28,-282.797,-45.261
37.32,-283.604,-45.1
37.35,-283.92,-45.009
37.38,-284.377,-44.86
37.41,-284.587,-44.402
37.45,-283.99,-44.012
37.48,-283.64,-43.943
37.51,-283.78,-43.989
37.54,-283.324,-44.127
37.58,-283.113,-44.173
37.61,-283.359,-44.127
37.64,-282.867,-44.047
37.67,-282.306,-43.611
37.71,-282.166,-43.439
37.74,-281.709,-43.588
37.77,-281.218,-43.577
37.8,-280.867,-43.187
37.84,-280.656,-43.417
37.87,-280.13,-43.394
37.9,-279.744,-42.947
37.93,-278.34,-42.134
37.97,-277.112,-41.607
38.0,-276.164,-41.412
38.03,-274.62,-41.435
38.06,-273.357,-41.263
38.1,-272.374,-40.805
38.13,-270.444,-40.564
38.16,-269.321,-40.266
38.19,-268.092,-39.705
38.23,-266.022,-39.579
38.26,-265.179,-39.613
38.29,-264.267,-39.567
38.32,-262.758,-39.625
38.36,-262.196,-39.441
38.39,-261.249,-39.041
38.42,-259.459,-38.788
38.46,-258.722,-38.319
38.49,-257.283,-37.803
38.52,-255.388,-37.78
38.55,-254.651,-37.551
38.59,-253.107,-37.15
38.62,-251.176,-37.059
38.65,-250.334,-36.44
38.68,-247.772,-35.455
38.72,-245.421,-35.409
38.75,-244.824,-35.375
38.78,-242.473,-34.985
38.81,-240.086,-34.859
38.85,-239.384,-34.321
38.88,-237.244,-34.046
38.91,-234.857,-34.172
38.94,-234.436,-33.599
38.98,-231.628,-32.969
39.01,-229.558,-33.095
39.04,-229.312,-32.866
39.07,-226.434,-32.763
39.11,-224.925,-32.694
39.14,-224.609,-32.03
39.17,-221.486,-31.812
39.2,-219.801,-31.423
39.24,-218.819,-30.38
39.27,-215.028,-30.254
39.3,-213.449,-30.082
39.33,-212.01,-29.326
39.37,-208.466,-29.452
39.4,-207.378,-29.349
39.43,-205.904,-28.559
39.46,-202.008,-28.433
39.5,-200.955,-27.963
39.53,-199.06,-27.253
39.56,-195.235,-27.528
39.59,-194.182,-27.207
39.63,-192.357,-26.817
39.66,-189.058,-27.024
39.69,-188.216,-26.256
39.72,-186.145,-25.477
39.76,-182.6,-25.397
39.79,-181.267,-24.469
39.82,-178.564,-23.839
39.86,-175.16,-23.965
39.89,-173.756,-23.312
39.92,-170.773,-22.739
39.95,-167.439,-22.545
39.99,-165.649,-21.697
40.02,-162.596,-21.227
40.05,-159.297,-20.861
40.08,-156.665,-20.162
40.12,-154.384,-19.944
40.15,-151.611,-19.669
40.18,-148.418,-19.096
40.21,-146.172,-18.375
40.25,-143.539,-17.825
40.28,-139.714,-17.642
40.31,-137.398,-16.885
40.34,-135.573,-16.255
40.38,-131.432,-16.336
40.41,-129.256,-15.809
40.44,-127.396,-14.904
40.47,-123.079,-14.697
40.51,-120.728,-14.251
40.54,-118.13,-13.323
40.57,-113.708,-13.105
40.6,-111.041,-12.761
40.64,-108.058,-12.017
40.67,-103.777,-11.719
40.7,-100.793,-11.226
40.73,-97.319,-10.367
40.77,-93.318,-9.817
40.8,-89.809,-9.187
40.83,-85.738,-8.546
40.86,-82.579,-7.859
40.9,-78.648,-7.332
40.93,-74.683,-6.965
40.96,-71.945,-6.346
40.99,-68.295,-5.877
41.03,-64.856,-5.441
41.06,-61.908,-4.743
41.09,-58.293,-4.25
41.13,-54.994,-4.044
41.16,-51.906,-3.597
41.19,-48.677,-3.013
41.22,-45.448,-2.566
41.26,-41.939,-2.188
41.29,-38.885,-1.65
41.32,-35.832,-1.077
41.35,-32.323,-0.687
41.39,-29.515,-0.08
41.42,-26.462,0.745
41.45,-22.917,1.329
41.48,-19.724,2.039
41.52,-15.302,2.761
41.55,-9.967,3.185
41.58,-4.247,3.242
41.61,1.439,3.013
41.65,6.352,2.612
41.68,10.634,2.142
41.71,13.863,1.684
41.74,15.863,1.432
41.78,17.618,1.501
41.81,19.408,1.753
41.84,21.303,2.188
41.87,24.075,2.589
41.91,26.216,3.208
41.94,28.638,4.135
41.97,32.077,4.8
42.0,35.762,5.43
42.04,40.149,5.945
42.07,43.904,6.507
42.1,48.888,6.724
42.13,53.801,6.598
42.17,56.644,6.976
42.2,60.364,7.274
42.23,63.628,7.366
42.26,64.645,8.282
42.3,68.19,8.878
42.33,71.138,9.325
42.36,72.858,10.551
42.4,77.104,11.112
42.43,80.754,11.696
42.46,83.527,12.865
42.49,88.019,13.311
42.53,91.879,13.689
42.56,95.038,14.354
42.59,97.986,14.743
42.62,101.601,15.064
42.66,104.865,15.511
42.69,106.654,16.439
42.72,111.076,16.874
42.75,114.937,17.149
42.79,116.235,18.375
42.82,121.605,18.466
42.85,125.5,18.317
42.88,126.308,19.658
42.92,131.958,19.383
42.95,135.152,19.406
42.98,136.169,20.826
43.01,141.89,20.723
43.05,144.031,21.273
43.08,144.698,22.189
43.11,146.277,22.304
43.14,147.821,23.53
43.18,150.558,24.79
43.21,151.997,25.638
43.24,156.139,26.554
43.27,159.648,27.31
43.31,161.613,28.204
43.34,166.246,28.249
43.37,168.948,28.364
43.4,170.844,29.04
43.44,174.809,28.971
43.47,176.81,29.189
43.5,178.88,30.197
43.53,182.951,30.449
43.57,184.636,30.77
43.6,186.812,31.503
43.63,190.637,31.423
43.66,191.76,31.514
43.7,193.655,32.087
43.73,196.919,32.156
43.76,198.218,32.499
43.8,200.429,33.003
43.83,203.377,32.981
43.86,204.43,33.164
43.89,206.29,33.336
43.93,208.501,33.175
43.96,209.448,33.576
43.99,211.554,34.16
44.02,213.8,34.367
44.06,214.923,34.882
44.09,217.38,35.409
44.12,219.731,35.501
44.15,220.538,35.604
44.19,223.03,35.799
44.22,225.452,36.383
44.25,226.715,36.91
44.28,229.102,37.116
44.32,231.067,37.105
44.35,232.436,37.357
44.38,234.366,37.551
44.41,235.91,37.483
44.45,236.998,37.643
44.48,238.612,37.987
44.51,240.121,38.273
44.54,241.49,38.697
44.58,243.35,39.167
44.61,245.421,39.522
44.64,246.719,39.877
44.67,248.615,39.957
44.71,250.334,40.003
44.74,251.598,40.427
44.77,253.352,40.793
44.8,255.142,40.965
44.84,256.406,41.332
44.87,258.231,41.664
44.9,259.74,41.584
44.93,260.512,41.423
44.97,261.459,41.4
45.0,262.582,41.435
45.03,263.425,41.893
45.07,264.828,42.408
45.1,266.232,42.718
45.13,267.426,43.061
45.16,268.759,43.119
45.2,269.812,43.004
45.23,270.689,43.119
45.26,271.953,43.245
45.29,272.865,43.439
45.33,273.953,43.943
45.36,275.462,44.207
45.39,276.41,44.367
45.42,277.393,44.39
45.46,278.375,44.195
45.49,278.831,43.966
45.52,279.007,43.898
45.55,279.604,43.886
45.59,280.13,44.104
45.62,280.446,44.413
45.65,281.007,44.482
45.68,281.534,44.356
45.72,281.955,44.493
45.75,282.516,44.631
45.78,282.341,44.253
45.81,282.516,44.15
45.85,283.183,44.264
45.88,283.183,44.677
45.91,283.078,44.47
45.94,283.429,44.069
45.98,282.973,43.817
46.01,282.587,43.84
46.04,282.271,43.428
46.07,281.429,43.199
46.11,281.148,43.451
46.14,281.218,43.508
46.17,280.376,43.382
46.2,279.814,43.187
46.24,279.639,42.718
46.27,278.235,42.351
46.3,277.217,42.042
46.33,276.656,41.652
46.37,275.111,41.733
46.4,274.374,41.721
46.43,273.637,41.24
46.47,271.848,40.896
46.5,270.689,40.541
46.53,269.461,39.945
46.56,267.215,39.671
46.6,266.162,39.579
46.63,265.285,39.293
46.66,263.004,39.407
46.69,262.477,39.304
46.73,261.494,38.8
46.76,259.248,38.72
46.79,258.757,38.342
46.82,257.529,37.815
46.86,255.177,37.838
46.89,254.651,37.54
46.92,253.247,37.013
46.95,250.966,37.07
46.99,250.229,36.589
47.02,248.228,35.776
47.05,245.561,35.524
47.08,244.754,35.18
47.12,242.683,34.825
47.15,240.086,34.939
47.18,239.771,34.573
47.21,237.56,34.298
47.25,235.313,34.332
47.28,234.822,33.599
47.31,232.19,33.175
47.34,230.014,33.324
47.38,229.628,32.751
47.41,226.855,32.385
47.44,224.925,32.534
47.47,224.399,32.018
47.51,221.556,31.606
47.54,219.591,31.377
47.57,218.503,30.655
47.6,215.379,30.392
47.64,213.519,30.323
47.67,212.396,29.681
47.7,209.273,29.635
47.74,207.799,29.487
47.77,206.36,28.731
47.8,202.956,28.433
47.83,201.341,28.02
47.87,199.411,27.39
47.9,195.901,27.436
47.93,194.322,27.218
47.96,192.673,26.863
48.0,189.865,26.909
48.03,188.391,26.405
48.06,186.461,25.672
48.09,183.443,25.5
48.13,181.653,24.893
48.16,179.372,24.286
48.19,176.529,24.171
48.22,174.529,23.702
48.26,172.037,23.06
48.29,168.913,22.602
48.32,166.457,21.949
48.35,163.614,21.273
48.39,160.385,20.7
48.42,157.262,20.242
48.45,154.489,19.944
48.48,151.997,19.532
48.52,148.383,19.062
48.55,145.856,18.524
48.58,143.89,17.871
48.61,140.065,17.458
48.65,136.801,16.931
48.68,135.046,15.98
48.71,131.712,15.9
48.74,128.273,15.866
48.78,126.799,14.949
48.81,123.5,14.423
48.84,119.885,14.365
48.87,117.99,13.598
48.91,114.305,12.83
48.94,110.304,12.761
48.97,108.128,12.269
49.01,104.443,11.65
49.04,100.443,11.421
49.07,97.951,10.688
49.1,94.266,9.817
49.14,89.984,9.313
49.17,86.404,8.615
49.2,83.035,7.824
49.23,79.105,7.446
49.27,75.56,7.171
49.3,72.542,6.495
49.33,69.032,5.911
49.36,65.628,5.544
49.4,62.575,5.052
49.43,59.311,4.41
49.46,55.872,3.964
49.49,52.538,3.574
49.53,49.239,3.127
49.56,46.15,2.566
49.59,42.465,2.177
49.62,39.236,1.879
49.66,36.604,1.157
49.69,32.779,0.596
49.72,29.62,0.069
49.75,26.848,-0.756
49.79,23.058,-1.317
49.82,19.899,-1.902
49.85,15.933,-2.577
49.88,10.95,-2.967
49.92,5.475,-3.036
49.95,0.035,-2.944
49.98,-5.019,-2.692
50.01,-9.406,-2.234
50.05,-12.915,-1.73
50.08,-15.372,-1.546
50.11,-17.197,-1.673
50.14,-19.302,-1.821
50.18,-21.057,-2.222
50.21,-24.04,-2.772
50.24,-26.672,-3.425
50.27,-29.129,-4.399
50.31,-32.814,-5.052
50.34,-36.604,-5.682
50.37,-41.693,-6.094
50.41,-45.378,-6.575
50.44,-50.046,-6.805
50.47,-54.959,-6.541
50.5,-57.24,-6.873
50.54,-60.399,-7.194
50.57,-63.557,-7.148
50.6,-63.979,-8.099
50.63,-67.207,-8.935
50.67,-70.752,-9.394
50.7,-72.507,-10.699
50.73,-76.859,-11.433
50.76,-81.0,-11.799
50.8,-83.702,-12.819
50.83,-88.019,-13.334
50.86,-92.02,-13.655
50.89,-95.213,-14.365
50.93,-98.091,-14.835
50.96,-101.811,-15.133
50.99,-105.356,-15.602
51.02,-107.111,-16.565
51.06,-111.357,-17.046
51.09,-115.744,-17.275
51.12,-117.113,-18.443
51.15,-121.921,-18.581
51.19,-126.237,-18.352
51.22,-127.08,-19.555
51.25,-131.923,-19.406
51.28,-135.538,-19.199
51.32,-136.555,-20.757
51.35,-140.837,-20.987
51.38,-143.855,-20.906
51.41,-143.75,-22.086
51.45,-145.645,-22.35
51.48,-147.54,-23.472
51.51,-150.102,-24.893
51.54,-152.138,-25.603
51.58,-155.472,-26.462
51.61,-159.438,-27.321
51.64,-161.824,-28.352
51.68,-165.965,-28.57
51.71,-169.159,-28.559
51.74,-171.265,-29.154
51.77,-174.879,-29.223
51.81,-177.441,-29.326
51.84,-179.372,-30.162
51.87,-182.916,-30.621
51.9,-185.338,-30.758
51.94,-187.198,-31.274
51.97,-190.356,-31.514
52.0,-192.287,-31.64
52.03,-193.936,-32.018
52.07,-196.709,-32.202
52.1,-198.534,-32.545
52.13,-200.429,-32.992
52.16,-203.166,-32.912
52.2,-204.605,-32.969
52.23,-206.149,-33.301
52.26,-208.255,-33.29
52.29,-209.413,-33.507
52.33,-211.098,-34.034
52.36,-213.344,-34.424
52.39,-215.099,-34.917
52.42,-217.064,-35.432
52.46,-219.45,-35.592
52.49,-221.31,-35.948
52.52,-222.995,-36.062
52.55,-224.96,-36.016
52.59,-226.785,-36.383
52.62,-228.435,-36.921
52.65,-230.47,-37.07
52.68,-231.944,-37.185
52.72,-233.418,-37.517
52.75,-235.278,-37.54
52.78,-236.858,-37.849
52.81,-238.297,-38.422
52.85,-240.472,-38.64
52.88,-242.017,-38.777
52.91,-243.561,-39.315
52.94,-245.772,-39.693
52.98,-247.211,-39.705
53.01,-248.369,-39.751
53.04,-250.264,-39.819
53.08,-251.422,-39.991
53.11,-252.475,-40.404
53.14,-254.37,-40.61
53.17,-255.528,-40.942
53.21,-256.932,-41.4
53.24,-258.827,-41.377
53.27,-259.529,-41.435
53.3,-260.757,-41.549
53.34,-262.091,-41.377
53.37,-262.758,-41.824
53.4,-264.267,-42.42
53.43,-266.022,-42.683
53.47,-267.11,-43.061
53.5,-268.549,-43.245
53.53,-269.777,-42.993
53.56,-270.514,-43.016
53.6,-271.567,-43.199
53.63,-272.725,-43.405
53.66,-273.743,-43.886
53.69,-275.322,-44.333
53.73,-276.691,-44.516
53.76,-277.568,-44.722
53.79,-278.972,-44.631
53.82,-279.884,-44.322
53.86,-280.025,-44.39
53.89,-280.902,-44.39
53.92,-281.499,-44.333
53.95,-281.499,-44.665
53.99,-282.306,-44.562
54.02,-282.587,-44.31
54.05,-282.481,-44.47
54.08,-282.867,-44.31
54.12,-282.832,-43.875
54.15,-282.376,-44.069
54.18,-282.973,-44.241
54.21,-282.867,-44.104
54.25,-282.411,-44.276
54.28,-283.078,-44.115
54.31,-282.903,-44.218
54.35,-282.271,-44.069
54.38,-282.236,-43.336
54.41,-281.674,-43.302
54.44,-281.148,-43.634
54.48,-281.393,-43.554
54.51,-281.885,-44.425
54.54,-282.973,-45.593
54.57,-284.412,-45.811
54.61,-285.464,-45.776
54.64,-286.517,-45.925
54.67,-287.57,-45.639
54.7,-287.605,-45.02
54.74,-286.833,-44.264
54.77,-285.675,-43.073
54.8,-283.148,-41.664
54.83,-280.095,-40.381
54.87,-277.077,-39.258
54.9,-273.286,-38.605
54.93,-270.163,-38.502
54.96,-267.812,-38.422
55.0,-264.828,-38.582
55.03,-263.004,-38.536
55.06,-261.319,-38.067
55.09,-258.757,-37.872
55.13,-257.458,-37.723
55.16,-256.195,-37.494
55.19,-254.195,-37.7
55.22,-253.563,-37.654
55.26,-252.44,-37.253
55.29,-250.51,-37.013
55.32,-249.387,-36.383
55.35,-247.491,-35.466
55.39,-244.894,-35.1
55.42,-243.42,-34.813
55.45,-241.42,-34.584
55.48,-239.279,-34.722
55.52,-238.297,-34.699
55.55,-236.928,-34.538
55.58,-235.068,-34.493
55.61,-234.331,-34.103
55.65,-232.716,-33.702
55.68,-230.54,-33.381
55.71,-229.663,-32.832
55.75,-227.452,-32.522
55.78,-225.311,-32.488
55.81,-224.083,-31.743
55.84,-221.521,-31.033
55.88,-218.959,-30.815
55.91,-217.31,-30.323
55.94,-214.713,-29.979
55.97,-212.326,-29.991
56.01,-210.992,-29.773
56.04,-208.887,-29.635
56.07,-206.781,-29.441
56.1,-205.167,-28.765
56.14,-202.885,-28.261
56.17,-200.464,-27.997
56.2,-198.463,-27.574
56.23,-196.007,-27.356
56.27,-193.761,-27.402
56.3,-192.111,-27.081
56.33,-189.97,-26.554
56.36,-187.268,-26.027
56.4,-185.513,-25.385
56.43,-183.022,-24.904
56.46,-179.933,-24.549
56.49,-177.968,-24.011
56.53,-175.581,-23.919
56.56,-172.844,-23.713
56.59,-170.633,-22.831
56.62,-167.896,-22.006
56.66,-164.597,-21.697
56.69,-161.859,-21.113
56.72,-159.087,-20.322
56.75,-155.577,-20.024
56.79,-152.91,-20.001
56.82,-151.225,-19.44
56.85,-147.821,-18.844
56.88,-144.312,-18.363
56.92,-142.873,-17.756
56.95,-139.153,-16.404
56.98,-131.396,-13.644
57.02,-124.448,-10.367
57.05,-117.007,-8.855
57.08,-108.058,-10.573
57.11,-104.303,-12.143
57.15,-103.004,-12.177
57.18,-100.302,-13.483
57.21,-101.566,-14.4
57.24,-103.706,-14.423
57.28,-103.461,-14.789
57.31,-105.18,-14.342
57.34,-105.531,-13.002
57.37,-103.04,-12.326
57.41,-101.495,-11.33
57.44,-98.126,-9.691
57.47,-93.073,-8.729
57.5,-88.931,-8.065
57.54,-84.474,-7.492
57.57,-80.333,-7.057
57.6,-76.262,-6.621
57.63,-72.437,-6.346
57.67,-69.383,-5.888
57.7,-65.733,-5.327
57.73,-62.259,-4.846
57.76,-59.171,-4.319
57.8,-55.731,-3.952
57.83,-52.257,-3.62
57.86,-49.028,-3.15
57.89,-46.396,-2.726
57.93,-42.781,-2.406
57.96,-39.517,-1.89
57.99,-36.99,-1.02
58.02,-32.99,-0.573
58.06,-29.726,-0.286
58.09,-27.374,0.561
58.12,-23.584,1.123
58.15,-20.706,1.512
58.19,-17.688,2.165
58.22,-13.441,2.509
58.25,-8.984,2.566
58.29,-4.352,2.555
58.32,0.105,2.497
58.35,4.527,2.394
58.38,8.598,2.325
58.42,12.88,2.28
58.45,16.144,2.383
58.48,19.373,2.612
58.51,22.215,3.104
58.55,25.865,3.654
58.58,29.164,4.067
58.61,31.691,4.834
58.64,35.201,5.338
58.68,38.675,5.693
58.71,43.623,5.785
58.74,46.782,6.083
58.77,50.221,6.266
58.81,54.117,5.923
58.84,55.591,6.22
58.87,57.767,6.873
58.9,60.96,7.125
58.94,62.329,7.962
58.97,65.207,8.912
59.0,69.243,9.416
59.03,71.805,10.459
59.07,75.525,11.249
59.1,80.017,11.57
59.13,83.105,12.59
59.16,86.966,13.346
59.2,91.283,13.518
59.23,94.441,14.045
59.26,97.249,14.697
59.29,100.793,15.03
59.33,104.163,15.362
59.36,106.374,16.164
59.39,109.988,16.828
59.42,114.2,17.172
59.46,116.446,17.928
59.49,120.061,18.34
59.52,124.377,18.306
59.55,126.483,19.108
59.59,129.922,19.44
59.62,134.064,19.303
59.65,136.064,20.162
59.69,138.521,20.929
59.72,142.662,20.941
59.75,143.575,21.914
59.78,145.821,22.797
59.82,148.137,23.255
59.85,150.102,24.458
59.88,152.699,25.248
59.91,155.086,26.13
59.95,158.56,26.955
59.98,161.368,27.688
60.01,164.561,28.215
60.04,168.106,28.501
60.08,170.633,28.937
60.11,173.581,29.292
60.14,176.775,29.521
60.17,179.091,30.082
60.21,181.934,30.621
60.24,185.057,30.815
60.27,187.128,31.205
60.3,189.584,31.583
60.34,192.287,31.594
60.37,193.971,31.846
60.4,196.112,32.293
60.43,198.499,32.465
60.47,200.148,32.717
60.5,202.57,33.015
60.53,204.816,33.118
60.56,205.974,33.278
60.6,207.904,33.45
60.63,210.115,33.588
60.66,211.238,34.092
60.69,213.239,34.55
60.73,215.485,34.722
60.76,217.029,35.283
60.79,219.24,35.707
60.82,221.381,35.547
60.86,222.539,35.787
60.89,224.82,36.268
60.92,227.136,36.52
60.96,228.365,37.001
60.99,230.681,37.437
61.02,233.032,37.631
61.05,234.401,37.975
61.09,236.472,38.032
61.12,238.647,38.136
61.15,239.595,38.525
61.18,241.736,38.685
61.22,243.456,38.811
61.25,244.649,39.453
61.28,247.0,39.716
61.31,248.264,39.556
61.35,249.071,39.705
61.38,251.001,39.739
61.41,252.019,39.968
61.44,253.001,40.461
61.48,254.897,40.53
61.51,255.879,40.736
61.54,256.967,41.183
61.57,258.722,41.08
61.61,259.283,41.034
61.64,260.266,41.446
61.67,261.986,41.481
61.7,262.547,41.721
61.74,263.916,42.34
61.77,265.881,42.466
61.8,266.653,43.016
61.83,268.338,43.439
61.87,269.987,43.107
61.9,270.654,43.176
61.93,271.848,43.531
61.96,273.427,43.531
62.0,274.339,43.886
62.03,275.638,44.425
62.06,277.077,44.448
62.09,277.919,44.356
62.13,278.691,44.402
62.16,279.744,44.253
62.19,279.639,43.875
62.22,279.849,43.886
62.26,280.692,43.943
62.29,280.551,44.299
62.32,281.078,44.39
62.36,281.604,44.207
62.39,281.709,44.39
62.42,282.06,44.402
62.45,282.376,44.001
62.49,282.06,44.092
62.52,282.552,44.344
62.55,282.797,44.287
62.58,282.622,44.253
62.62,282.587,44.058
62.65,282.446,43.726
62.68,281.85,43.451
62.71,281.464,43.199
62.75,281.042,43.153
62.78,280.692,43.474
62.81,280.832,43.611
62.84,280.376,43.577
62.88,280.06,43.348
62.91,279.744,42.844
62.94,278.691,42.374
62.97,277.568,41.962
63.01,276.62,41.687
63.04,275.533,41.664
63.07,274.339,41.618
63.1,273.462,41.263
63.14,272.269,40.793
63.17,270.549,40.404
63.2,269.356,39.831
63.23,267.32,39.396
63.27,265.636,39.396
63.3,264.864,39.35
63.33,263.179,39.35
63.36,262.196,39.361
63.4,261.565,39.052
63.43,259.81,38.766
63.46,258.862,38.376
63.49,257.739,37.929
63.53,255.879,37.838
63.56,254.756,37.597
63.59,253.563,37.162
63.63,251.633,37.059
63.66,250.58,36.807
63.69,249.071,36.188
63.72,246.79,35.913
63.76,245.737,35.707
63.79,244.193,35.329
63.82,241.876,35.123
63.85,240.753,34.802
63.89,239.104,34.321
63.92,236.472,33.966
63.95,234.892,33.485
63.98,232.751,32.832
64.02,230.119,32.442
64.05,228.294,32.316
64.08,226.54,32.041
64.11,224.013,31.938
64.15,222.539,31.801
64.18,220.749,31.423
64.21,218.362,31.193
64.24,216.924,30.793
64.28,214.993,30.449
64.31,212.923,30.334
64.34,211.484,30.048
64.37,209.94,29.704
64.41,207.693,29.578
64.44,206.114,29.12
64.47,204.184,28.387
64.5,201.447,28.043
64.54,199.306,27.711
64.57,197.27,27.276
64.6,194.357,27.264
64.63,192.603,27.104
64.67,191.058,26.703
64.7,188.181,26.543
64.73,186.601,25.901
64.76,184.601,25.156
64.8,181.197,24.881
64.83,179.231,24.217
64.86,177.231,23.667
64.9,173.616,23.724
64.93,171.616,23.071
64.96,169.37,22.178
64.99,165.79,22.04
65.03,163.263,21.433
65.06,160.876,20.494
65.09,157.297,20.299
65.12,153.998,19.875
65.16,152.313,19.211
65.19,149.225,18.947
65.22,145.435,18.741
65.25,143.925,17.985
65.29,141.679,17.424
65.32,137.222,17.435
65.35,135.608,16.737
65.38,134.274,15.82
65.42,129.045,15.935
65.45,127.15,15.328
65.48,125.5,13.884
65.51,119.289,13.747
65.55,116.656,13.357
65.58,114.13,12.04
65.61,107.812,12.189
65.64,105.602,12.28
65.68,103.461,11.318
65.71,98.091,11.41
65.74,96.442,11.078
65.77,93.88,9.921
65.81,89.247,9.542
65.84,86.65,8.855
65.87,83.176,7.95
65.9,79.42,7.526
65.94,76.262,7.068
65.97,72.647,6.507
66.0,69.629,5.854
66.03,66.049,5.315
66.07,62.329,4.892
66.1,59.241,4.342
66.13,55.872,3.872
66.16,52.327,3.643
66.2,49.309,3.288
66.23,46.571,2.681
66.26,42.957,2.245
66.3,39.622,2.016
66.33,37.341,1.329
66.36,33.586,0.71
66.39,30.252,0.332
66.43,27.901,-0.481
66.46,24.11,-1.088
66.49,20.952,-1.558
66.52,17.688,-2.303
66.56,13.091,-2.784
66.59,7.861,-2.99
66.62,2.386,-3.013
66.65,-2.773,-2.795
66.69,-7.405,-2.371
66.72,-11.406,-2.062
66.75,-14.74,-1.97
66.78,-17.372,-2.199
66.82,-20.25,-2.371
66.85,-22.461,-2.704
66.88,-25.514,-3.288
66.91,-28.427,-3.815
66.95,-31.024,-4.674
66.98,-34.569,-5.43
67.01,-38.359,-5.911
67.04,-43.413,-6.014
67.08,-47.238,-6.129
67.11,-50.888,-6.472
67.14,-55.064,-6.541
67.17,-57.626,-6.828
67.21,-60.118,-7.343
67.24,-63.417,-7.641
67.27,-65.277,-8.202
67.3,-67.488,-8.981
67.34,-70.857,-9.416
67.37,-73.279,-10.264
67.4,-75.946,-11.009
67.43,-79.701,-11.272
67.47,-82.649,-12.143
67.5,-86.018,-13.197
67.53,-90.37,-13.644
67.57,-94.055,-14.285
67.6,-97.459,-15.167
67.63,-101.46,-15.476
67.66,-105.005,-15.706
67.7,-107.567,-16.152
67.73,-110.655,-16.702
67.76,-114.445,-17.218
67.79,-117.323,-17.802
67.83,-120.306,-18.295
67.86,-124.413,-18.547
67.89,-127.641,-19.257
67.92,-130.554,-19.692
67.96,-135.011,-19.726
67.99,-137.679,-20.253
68.02,-139.398,-21.25
68.05,-143.575,-21.227
68.09,-144.662,-21.857
68.12,-146.382,-22.785
68.15,-148.663,-23.106
68.18,-150.488,-24.091
68.22,-152.664,-24.927
68.25,-154.665,-25.844
68.28,-158.244,-26.749
68.31,-161.192,-27.539
68.35,-163.93,-28.272
68.38,-167.755,-28.593
68.41,-170.879,-28.879
68.44,-173.125,-29.418
68.48,-176.845,-29.693
68.51,-179.652,-30.082
68.54,-181.863,-30.827
68.57,-185.478,-31.056
68.61,-187.689,-31.113
68.64,-189.655,-31.583
68.67,-192.708,-31.709
68.7,-194.217,-31.778
68.74,-196.007,-32.247
68.77,-199.095,-32.396
68.8,-200.394,-32.694
68.83,-202.184,-33.049
68.87,-205.026,-32.877
68.9,-205.974,-33.026
68.93,-207.448,-33.439
68.97,-209.764,-33.427
69.0,-210.817,-33.771
69.03,-212.642,-34.447
69.06,-215.379,-34.722
69.1,-216.643,-35.18
69.13,-218.819,-35.65
69.16,-221.451,-35.569
69.19,-222.258,-35.833
69.23,-224.504,-36.234
69.26,-226.855,-36.291
69.29,-227.698,-36.784
69.32,-230.225,-37.242
69.36,-232.541,-37.322
69.39,-233.348,-37.643
69.42,-235.664,-37.906
69.45,-237.805,-37.883
69.49,-238.472,-38.204
69.52,-240.718,-38.605
69.55,-242.613,-38.594
69.58,-243.526,-39.155
69.62,-245.947,-39.659
69.65,-247.737,-39.831
69.68,-248.334,-39.774
69.71,-250.404,-39.648
69.75,-251.843,-39.831
69.78,-252.335,-40.392
69.81,-254.405,-40.438
69.84,-255.493,-40.576
69.88,-256.441,-41.274
69.91,-258.652,-41.332
69.94,-259.494,-41.194
69.97,-260.231,-41.526
70.01,-262.056,-41.412
70.04,-262.617,-41.675
70.07,-263.986,-42.431
70.1,-265.987,-42.683
70.14,-267.145,-43.073
70.17,-268.654,-43.325
70.2,-270.233,-43.061
70.24,-270.865,-43.119
70.27,-272.128,-43.405
70.3,-273.427,-43.428
70.33,-274.304,-43.909
70.37,-275.778,-44.425
70.4,-277.252,-44.299
70.43,-277.849,-44.379
70.46,-279.007,-44.574
70.5,-280.13,-44.379
70.53,-280.06,-44.047
70.56,-280.376,-43.84
70.59,-280.972,-43.943
70.63,-281.183,-44.344
70.66,-281.288,-44.207
70.69,-281.815,-43.932
70.72,-281.99,-44.241
70.76,-282.201,-44.459
70.79,-282.446,-44.001
70.82,-282.271,-43.932
70.85,-282.587,-44.31
70.89,-283.078,-44.253
70.92,-282.762,-44.425
70.95,-283.324,-44.459
70.98,-283.429,-44.161
71.02,-282.657,-44.001
71.05,-282.903,-43.691
71.08,-283.043,-43.875
71.11,-282.973,-44.574
71.15,-283.71,-44.837
71.18,-284.061,-44.688
71.21,-284.061,-44.505
71.24,-283.78,-43.817
71.28,-282.587,-42.741
71.31,-280.621,-41.71
71.34,-278.621,-40.828
71.37,-276.199,-40.209
71.41,-273.567,-39.9
71.44,-271.602,-39.579
71.47,-269.286,-39.327
71.5,-267.039,-39.224
71.54,-265.53,-39.086
71.57,-263.881,-38.995
71.6,-262.302,-39.075
71.64,-261.53,-39.063
71.67,-260.512,-39.018
71.7,-259.564,-39.075
71.73,-259.003,-38.869
71.77,-257.845,-38.445
71.8,-256.476,-38.124
71.83,-255.598,-37.712
71.86,-253.914,-37.379
71.9,-252.545,-37.116
71.93,-251.422,-36.749
71.96,-249.808,-36.589
71.99,-248.369,-36.429
72.03,-246.965,-35.948
72.06,-245.28,-35.558
72.09,-243.631,-35.421
72.12,-242.368,-35.191
72.16,-240.578,-34.871
72.19,-238.998,-34.607
72.22,-238.016,-34.55
72.25,-236.261,-34.309
72.29,-234.155,-33.702
72.32,-232.646,-32.923
72.35,-230.295,-32.637
72.38,-228.189,-32.476
72.42,-226.294,-31.835
72.45,-223.767,-31.468
72.48,-221.696,-31.388
72.51,-220.187,-30.987
72.55,-217.485,-30.632
72.58,-215.414,-30.529
72.61,-214.151,-30.162
72.64,-211.589,-29.979
72.68,-209.694,-29.807
72.71,-208.43,-29.338
72.74,-206.219,-29.269
72.77,-204.43,-29.074
72.81,-203.026,-28.33
72.84,-200.253,-28.1
72.87,-198.323,-27.871
72.91,-196.568,-27.276
72.94,-193.62,-27.173
72.97,-191.971,-26.978
73.0,-190.497,-26.497
73.04,-187.408,-26.348
73.07,-185.689,-25.878
73.1,-184.355,-25.076
73.13,-180.74,-24.881
73.17,-178.705,-24.183
73.2,-176.74,-23.427
73.23,-173.16,-23.415
73.26,-171.054,-22.98
73.3,-169.019,-22.224
73.33,-165.404,-22.121
73.36,-162.947,-21.422
73.39,-161.017,-20.723
73.43,-157.578,-20.505
73.46,-154.665,-20.208
73.49,-152.84,-19.555
73.52,-150.137,-19.062
73.56,-146.172,-18.753
73.59,-144.241,-17.836
73.62,-141.855,-16.817
73.65,-136.626,-16.656
73.69,-133.994,-16.244
73.72,-133.292,-15.224
73.75,-127.711,-15.27
73.78,-124.974,-14.846
73.82,-123.746,-13.54
73.85,-117.709,-13.689
73.88,-115.253,-13.666
73.91,-113.954,-12.59
73.95,-108.514,-12.945
73.98,-107.251,-13.231
74.01,-106.163,-12.2
74.04,-101.425,-12.12
74.08,-100.092,-11.673
74.11,-97.565,-10.344
74.14,-92.757,-9.714
74.18,-89.844,-8.832
74.21,-85.562,-7.824
74.24,-81.105,-7.332
74.27,-77.385,-6.759
74.31,-73.068,-6.289
74.34,-69.875,-5.98
74.37,-66.611,-5.613
74.4,-63.066,-5.201
74.44,-60.329,-4.582
74.47,-56.995,-4.009
74.5,-53.204,-3.528
74.53,-49.625,-2.967
74.57,-46.396,-2.348
74.6,-42.36,-1.925
74.63,-38.499,-1.558
74.66,-35.867,-0.882
74.7,-32.042,-0.321
74.73,-28.427,0.08
74.76,-25.76,0.974
74.79,-22.005,1.741
74.83,-18.46,2.222
74.86,-13.898,2.864
74.89,-8.318,3.265
74.92,-2.597,3.127
74.96,2.492,2.6
74.99,6.773,2.199
75.02,10.423,1.936
75.05,13.406,1.558
75.09,15.337,1.443
75.12,17.197,1.684
75.15,19.443,1.993
75.18,21.689,2.474
75.22,24.461,3.082
75.25,27.585,3.654
75.28,30.006,4.387
75.31,33.411,5.132
75.35,36.955,5.739
75.38,41.658,6.026
75.41,45.905,6.232
75.44,49.835,6.598
75.48,54.082,6.507
75.51,57.065,6.61
75.54,59.627,7.228
75.58,62.82,7.71
75.61,65.347,8.237
75.64,67.628,9.084
75.67,71.278,9.703
75.71,74.226,10.413
75.74,77.034,11.272
75.77,81.035,11.811
75.8,84.579,12.509
75.84,87.773,13.334
75.87,91.809,13.792
75.9,95.284,14.193
75.93,98.196,14.801
75.97,101.495,15.19
76.0,104.759,15.602
76.03,107.672,16.187
76.06,110.62,16.828
76.1,114.375,17.424
76.13,118.025,17.894
76.16,120.692,18.375
76.19,124.448,18.569
76.23,128.133,18.799
76.26,130.028,19.486
76.29,133.994,19.669
76.32,137.468,19.841
76.36,138.38,21.147
76.39,143.153,21.296
76.42,145.013,21.582
76.45,145.821,22.808
76.49,148.137,23.175
76.52,149.962,24.171
76.55,152.91,25.168
76.58,155.191,25.947
76.62,158.104,26.932
76.65,162.0,27.493
76.68,164.316,28.169
76.71,168.001,28.639
76.75,171.37,28.731
76.78,173.37,29.349
76.81,177.231,29.865
76.85,180.179,30.14
76.88,182.144,30.804
76.91,185.759,30.964
76.94,188.04,30.873
76.98,189.374,31.319
77.01,192.462,31.4
77.04,194.252,31.285
77.07,194.989,32.007
77.11,198.323,32.293
77.14,200.113,32.373
77.17,201.447,33.038
77.2,204.675,33.118
77.24,206.044,33.072
77.27,207.202,33.519
77.3,210.185,33.611
77.33,211.378,33.908
77.37,212.817,34.63
77.4,215.906,34.745
77.43,217.134,35.077
77.46,218.854,35.673
77.5,221.837,35.581
77.53,222.82,35.65
77.56,224.504,36.165
77.59,226.996,36.142
77.63,228.049,36.543
77.66,229.698,36.898
77.69,231.979,36.761
77.72,232.716,37.047
77.76,234.612,37.563
77.79,236.542,37.437
77.82,237.209,37.849
77.85,239.525,38.514
77.89,241.771,38.662
77.92,242.508,39.098
77.95,245.105,39.464
77.98,247.211,39.556
78.02,247.878,39.911
78.05,250.194,39.98
78.08,251.773,40.014
78.11,252.615,40.495
78.15,254.791,40.679
78.18,256.09,40.782
78.21,257.108,41.332
78.25,259.319,41.435
78.28,260.02,41.217
78.31,260.582,41.4
78.34,262.372,41.263
78.38,263.039,41.446
78.41,263.881,42.351
78.44,266.057,42.546
78.47,266.899,42.832
78.51,268.373,43.313
78.54,270.128,43.004
78.57,270.724,43.038
78.6,271.918,43.371
78.64,273.322,43.371
78.67,274.129,43.714
78.7,275.462,44.207
78.73,276.866,44.184
78.77,277.533,44.241
78.8,278.551,44.23
78.83,279.358,43.932
78.86,279.428,43.932
78.9,279.919,44.024
78.93,280.621,43.989
78.96,280.937,44.241
78.99,281.393,44.436
79.03,281.92,44.23
79.06,282.025,44.23
79.09,282.657,44.516
79.12,283.043,44.344
79.16,282.867,44.081
79.19,283.604,44.505
79.22,284.096,44.665
79.25,283.745,44.39
79.29,283.78,43.966
79.32,283.71,43.714
79.35,282.762,43.474
79.38,282.025,42.97
79.42,281.464,42.809
79.45,280.937,43.21
79.48,280.692,43.382
79.52,280.305,43.187
79.55,279.674,43.038
79.58,279.358,42.741
79.61,278.586,42.26
79.65,277.357,41.893
79.68,276.34,41.664
79.71,275.533,41.538
79.74,274.409,41.4
79.78,273.181,41.183
79.81,272.163,40.782
79.84,270.865,40.278
79.87,269.11,39.923
79.91,267.706,39.453
79.94,265.881,39.212
79.97,264.723,39.247
80.0,263.635,39.132
80.04,261.986,39.086
80.07,261.179,38.914
80.1,260.091,38.536
80.13,258.371,38.25
80.17,257.283,37.929
80.2,256.195,37.54
80.23,254.195,37.402
80.26,253.247,37.139
80.3,251.878,36.692
80.33,249.597,36.452
80.36,248.264,35.89
80.39,246.404,35.203
80.43,243.806,35.008
80.46,242.438,34.756
80.49,240.437,34.183
80.52,238.016,34.309
80.56,237.173,34.286
80.59,235.313,33.759
80.62,232.611,33.267
80.65,231.593,32.9
80.69,229.909,32.809
80.72,227.312,32.786
80.75,226.469,32.27
80.79,224.785,31.892
80.82,222.398,32.133
80.85,221.696,31.663
80.88,219.31,31.01
80.92,216.853,30.976
80.95,216.327,30.449
80.98,213.695,29.991
81.01,211.133,30.105
81.05,210.747,29.544
81.08,207.904,29.235
81.11,205.518,29.097
81.14,204.675,28.204
81.18,201.482,27.803
81.21,198.674,27.78
81.24,197.726,27.104
81.27,194.498,27.127
81.31,192.287,27.253
81.34,191.585,26.531
81.37,188.391,26.325
81.4,186.215,25.958
81.44,185.022,24.95
81.47,181.302,24.721
81.5,178.986,24.332
81.53,177.582,23.53
81.57,173.862,23.53
81.6,171.37,23.094
81.63,169.475,22.006
81.66,165.755,21.766
81.7,162.737,21.353
81.73,160.561,20.437
81.76,157.542,20.127
81.79,154.173,20.104
81.83,152.278,19.543
81.86,149.962,18.993
81.89,146.031,18.673
81.92,143.925,18.237
81.96,142.206,17.252
81.99,137.538,16.885
82.02,134.45,16.576
82.05,133.713,15.694
82.09,129.185,15.683
82.12,126.308,15.591
82.15,125.746,14.434
82.19,120.763,14.193
82.22,117.92,14.079
82.25,116.481,12.83
82.28,110.971,12.613
82.32,108.093,12.578
82.35,105.952,11.41
82.38,100.372,11.032
82.41,97.424,10.711
82.45,94.231,9.657
82.48,89.598,9.21
82.51,86.79,8.637
82.54,82.649,7.985
82.58,79.105,7.492
82.61,76.086,6.782
82.64,71.945,6.392
82.67,68.962,5.911
82.71,65.733,5.258
82.74,61.908,4.88
82.77,58.89,4.422
82.8,55.766,3.906
82.84,52.222,3.586
82.87,49.098,3.208
82.9,46.115,2.612
82.93,42.641,2.028
82.97,38.78,1.524
83.0,35.727,0.905
83.03,32.253,0.321
83.06,28.743,-0.103
83.1,25.865,-0.722
83.13,22.777,-1.398
83.16,19.478,-1.97
83.19,15.617,-2.451
83.23,11.02,-2.738
83.26,5.896,-2.807
83.29,0.912,-2.784
83.32,-4.036,-2.589
83.36,-8.212,-2.188
83.39,-11.687,-1.707
83.42,-14.214,-1.524
83.46,-16.179,-1.695
83.49,-18.53,-2.016
83.52,-21.127,-2.474
83.55,-23.9,-3.15
83.59,-27.058,-3.769
83.62,-30.006,-4.319
83.65,-33.025,-4.949
83.68,-36.324,-5.579
83.72,-40.465,-6.06
83.75,-45.483,-6.278
83.78,-49.73,-6.495
83.81,-53.52,-6.644
83.85,-57.31,-6.644
83.88,-59.697,-6.942
83.91,-62.119,-7.492
83.94,-65.172,-7.893
83.98,-66.962,-8.775
84.01,-69.945,-9.623
84.04,-73.595,-10.115
84.07,-76.227,-11.112
84.11,-80.017,-12.005
84.14,-84.299,-12.521
84.17,-87.633,-13.334
84.2,-91.528,-13.884
84.24,-95.213,-14.171
84.27,-98.442,-14.583
84.3,-101.18,-15.041
84.33,-104.128,-15.625
84.37,-108.023,-16.129
84.4,-110.655,-16.851
84.43,-113.814,-17.71
84.46,-119.043,-17.871
84.5,-121.043,-18.581
84.53,-124.413,-19.119
84.56,-129.712,-18.65
84.59,-130.695,-19.497
84.63,-134.099,-20.013
84.66,-139.082,-19.635
84.69,-139.398,-21.365
84.72,-143.961,-21.536
84.76,-145.75,-21.227
84.79,-145.996,-22.51
84.82,-148.172,-22.98
84.86,-149.12,-24.045
84.89,-152.524,-24.904
84.92,-154.208,-25.752
84.95,-157.402,-26.955
84.99,-161.859,-27.516
85.02,-163.965,-28.352
85.05,-167.685,-28.914
85.08,-171.896,-28.799
85.12,-173.37,-29.349
85.15,-177.055,-29.922
85.18,-180.811,-30.025
85.21,-182.179,-30.815
85.25,-185.864,-31.251
85.28,-189.058,-30.987
85.31,-189.83,-31.514
85.34,-193.199,-31.697
85.38,-195.059,-31.423
85.41,-195.796,-31.995
85.44,-199.13,-32.339
85.47,-200.885,-32.396
85.51,-201.973,-32.889
85.54,-205.026,-32.866
85.57,-206.255,-32.797
85.6,-207.027,-33.221
85.64,-209.764,-33.233
85.67,-210.922,-33.462
85.7,-212.08,-34.367
85.73,-215.344,-34.653
85.77,-216.573,-35.02
85.8,-218.327,-35.718
85.83,-221.837,-35.902
85.86,-223.1,-36.119
85.9,-224.89,-36.589
85.93,-228.224,-36.589
85.96,-229.137,-36.852
85.99,-230.962,-37.276
86.03,-233.524,-37.036
86.06,-234.225,-37.288
86.09,-235.77,-37.46
86.13,-237.805,-37.379
86.16,-238.402,-37.872
86.19,-240.157,-38.296
86.22,-242.122,-38.227
86.26,-242.859,-38.685
86.29,-244.789,-39.189
86.32,-246.579,-39.258
86.35,-247.562,-39.579
86.39,-249.562,-39.842
86.42,-251.141,-39.923
86.45,-252.229,-40.278
86.48,-254.265,-40.576
86.52,-255.739,-40.828
86.55,-257.002,-41.24
86.58,-258.792,-41.297
86.61,-259.845,-41.229
86.65,-260.722,-41.309
86.68,-262.091,-41.286
86.71,-263.039,-41.572
86.74,-264.267,-42.202
86.78,-265.987,-42.603
86.81,-267.355,-42.844
86.84,-268.513,-43.084
86.87,-270.093,-43.016
86.91,-271.075,-42.981
86.94,-272.023,-43.291
86.97,-273.462,-43.474
87.0,-274.55,-43.783
87.04,-275.778,-44.276
87.07,-277.357,-44.333
87.1,-278.024,-44.299
87.13,-278.937,-44.276
87.17,-279.849,-43.943
87.2,-279.99,-43.852
87.23,-280.376,-43.921
87.26,-281.042,-44.012
87.3,-281.393,-44.207
87.33,-281.815,-44.379
87.36,-282.341,-44.241
87.39,-282.516,-44.218
87.43,-282.622,-44.264
87.46,-283.078,-44.138
87.49,-283.324,-44.161
87.53,-283.464,-44.516
87.56,-283.955,-44.505
87.59,-284.201,-44.333
87.62,-283.99,-44.241
87.66,-284.271,-44.184
87.69,-283.429,-43.462
87.72,-282.166,-42.786
87.75,-282.025,-42.878
87.79,-281.744,-43.428
87.82,-281.078,-43.714
87.85,-281.148,-43.394
87.88,-280.727,-43.038
87.92,-279.744,-42.786
87.95,-279.007,-42.076
87.98,-277.393,-41.297
88.01,-275.638,-40.988
88.05,-274.76,-40.793
88.08,-272.9,-40.656
88.11,-271.391,-40.633
88.14,-270.584,-40.301
88.18,-268.935,-40.049
88.21,-267.426,-39.797
88.24,-266.373,-39.235
88.27,-264.653,-38.983
88.31,-263.179,-39.121
88.34,-262.512,-38.926
88.37,-261.073,-38.8
88.4,-259.95,-38.834
88.44,-259.283,-38.399
88.47,-257.458,-38.032
88.5,-256.3,-37.769
88.53,-255.458,-37.334
88.57,-253.387,-37.185
88.6,-252.299,-36.99
88.63,-251.387,-36.578
88.66,-249.141,-36.452
88.7,-247.878,-36.028
88.73,-246.614,-35.352
88.76,-244.017,-35.249
88.8,-242.824,-35.065
88.83,-241.525,-34.424
88.86,-238.577,-34.183
88.89,-237.63,-34.103
88.93,-236.191,-33.53
88.96,-232.962,-33.255
88.99,-231.979,-32.774
89.02,-229.944,-32.27
89.06,-226.996,-32.373
89.09,-225.697,-31.755
89.12,-223.697,-31.274
89.15,-221.205,-31.812
89.19,-220.749,-31.606
89.22,-218.538,-30.884
89.25,-215.836,-30.919
89.28,-215.836,-30.54
89.32,-213.239,-30.117
89.35,-210.782,-30.14
89.38,-210.677,-29.498
89.41,-207.904,-29.372
89.45,-205.904,-29.509
89.48,-205.553,-28.49
89.51,-202.008,-28.112
89.54,-199.692,-27.986
89.58,-198.639,-27.047
89.61,-194.989,-26.989
89.64,-192.708,-26.875
89.67,-191.479,-26.142
89.71,-188.04,-26.004
89.74,-185.794,-25.615
89.77,-184.355,-24.675
89.8,-180.635,-24.458
89.84,-178.214,-24.022
89.87,-176.459,-23.266
89.9,-172.949,-23.266
89.93,-170.668,-22.831
89.97,-168.387,-22.006
90.0,-165.053,-21.823
90.03,-162.491,-21.307
90.07,-159.894,-20.54
90.1,-156.805,-20.07
90.13,-153.963,-19.875
90.16,-151.331,-19.452
90.2,-148.839,-18.501
90.23,-145.54,-18.26
90.26,-142.451,-17.997
90.29,-141.153,-17.367
90.33,-138.1,-17.206
90.36,-134.766,-16.977
90.39,-133.783,-16.164
90.42,-130.695,-15.832
90.46,-127.15,-15.58
90.49,-125.536,-14.48
90.52,-121.605,-13.838
90.55,-117.744,-13.609
90.59,-115.147,-12.807
90.62,-110.971,-12.269
90.65,-107.146,-12.223
90.68,-104.443,-11.639
90.72,-100.653,-11.055
90.75,-97.284,-10.677
90.78,-93.81,-9.955
90.81,-90.23,-9.142
90.85,-86.79,-8.34
90.88,-82.404,-7.904
90.91,-79.14,-7.48
90.94,-76.016,-6.873
90.98,-72.191,-6.553
91.01,-69.243,-6.06
91.04,-66.154,-5.361
91.07,-62.54,-4.88
91.11,-59.346,-4.387
91.14,-56.047,-3.838
91.17,-52.467,-3.379
91.2,-48.923,-2.875
91.24,-45.308,-2.371
91.27,-41.974,-1.902
91.3,-38.324,-1.42
91.33,-34.85,-1.02
91.37,-32.007,-0.355
91.4,-28.427,0.309
91.43,-25.023,0.894
91.47,-22.075,1.684
91.5,-18.39,2.303
91.53,-14.108,2.612
91.56,-9.125,2.864
91.6,-3.79,2.99
91.63,1.334,2.818
91.66,6.036,2.394
91.69,9.827,1.97
91.73,13.055,1.673
91.76,15.196,1.524
91.79,17.126,1.684
91.82,19.373,2.039
91.86,22.005,2.429
91.89,24.04,2.864
91.92,26.637,3.356
91.95,29.515,3.849
91.99,31.866,4.662
92.02,35.271,5.384
92.05,39.131,5.991
92.08,44.431,6.266
92.12,48.888,6.495
92.15,52.713,6.896
92.18,57.416,6.885
92.21,60.118,7.148
92.25,62.575,7.801
92.28,66.295,7.927
92.31,67.699,8.672
92.34,70.296,9.714
92.38,74.367,10.081
92.41,76.472,11.043
92.44,80.052,12.005
92.47,84.579,12.303
92.51,87.527,13.117
92.54,91.248,13.838
92.57,95.143,14.102
92.6,98.618,14.652
92.64,101.25,15.236
92.67,104.338,15.774
92.7,108.76,16.187
92.74,110.936,17.046
92.77,114.235,17.802
92.8,119.675,17.733
92.83,121.324,18.592
92.87,124.553,19.131
92.9,130.133,18.615
92.93,131.01,19.818
92.96,135.081,20.586
93.0,140.276,19.978
93.03,141.223,21.284
93.06,144.136,21.399
93.09,145.645,20.872
93.13,146.277,22.292
93.16,148.102,22.865
93.19,149.365,23.621
93.22,151.997,24.641
93.26,154.279,25.729
93.29,157.367,26.909
93.32,161.333,27.321
93.35,163.368,28.009
93.39,167.264,28.513
93.42,170.773,28.49
93.45,172.458,29.051
93.48,176.178,29.406
93.52,179.126,29.555
93.55,180.67,30.277
93.58,184.425,30.632
93.61,186.917,30.758
93.65,188.461,31.342
93.68,191.725,31.526
93.71,193.936,31.526
93.74,195.27,32.19
93.78,198.428,32.488
93.81,200.639,32.522
93.84,202.113,33.038
93.87,205.061,33.175
93.91,206.676,33.015
93.94,207.904,33.301
93.97,210.326,33.473
94.0,211.729,33.782
94.04,213.133,34.424
94.07,215.941,34.722
94.1,217.52,35.169
94.14,219.626,35.787
94.17,222.012,35.604
94.2,223.17,35.432
94.23,225.241,36.142
94.27,227.522,36.497
94.3,228.961,36.681
94.33,230.611,36.852
94.36,232.611,36.956
94.4,233.98,37.208
94.43,235.349,37.391
94.46,237.068,37.322
94.49,238.051,37.586
94.53,239.7,38.067
94.56,241.42,38.365
94.59,242.754,38.754
94.62,244.789,39.224
94.66,246.754,39.602
94.69,248.299,39.774
94.72,249.948,39.934
94.75,251.843,40.14
94.79,253.317,40.45
94.82,254.826,40.759
94.85,256.651,40.931
94.88,258.125,41.16
94.92,259.248,41.435
94.95,260.477,41.206
94.98,261.424,40.908
95.01,262.126,41.251
95.05,263.425,41.595
95.08,264.478,41.927
95.11,265.741,42.477
95.14,267.426,42.775
95.18,268.619,42.924
95.21,269.707,43.016
95.24,271.111,42.97
95.27,272.058,43.038
95.31,273.076,43.394
95.34,274.445,43.646
95.37,275.533,43.966
95.41,276.691,44.241
95.44,277.919,44.161
95.47,278.621,43.978
95.5,279.112,43.898
95.54,279.674,43.623
95.57,279.779,43.565
95.6,280.27,43.875
95.63,280.902,44.081
95.67,281.218,44.173
95.7,281.744,44.184
95.73,282.236,44.127
95.76,282.692,44.39
95.8,283.008,44.322
95.83,282.973,43.691
95.86,283.289,43.966
95.89,283.85,44.596
95.93,283.675,44.23
95.96,283.429,43.932
95.99,283.71,43.783
96.02,283.394,43.588
96.06,282.271,43.291
96.09,282.306,42.993
96.12,282.06,43.107
96.15,281.148,43.417
96.19,281.148,43.096
96.22,280.341,42.615
96.25,279.218,42.397
96.28,278.691,41.916
96.32,277.182,41.389
96.35,275.673,41.263
96.38,275.182,41.206
96.41,273.918,41.103
96.45,272.444,41.068
96.48,272.058,40.564
96.51,270.374,40.14
96.54,268.724,39.957
96.58,267.987,39.419
96.61,265.987,39.201
96.64,264.653,39.384
96.68,264.197,39.121
96.71,262.372,38.972
96.74,261.214,38.903
96.77,260.512,38.353
96.81,258.652,37.987
96.84,257.143,37.895
96.87,256.651,37.437
96.9,254.335,37.162
96.94,253.036,37.07
96.97,252.229,36.52
97.0,249.597,36.211
97.03,248.193,35.799
97.07,246.895,35.077
97.1,243.877,34.951
97.13,242.613,34.813
97.16,240.999,34.092
97.2,238.156,34.08
97.23,237.244,34.115
97.26,235.664,33.553
97.29,232.506,33.015
97.33,231.348,32.637
97.36,230.119,32.431
97.39,227.066,32.591
97.42,226.259,32.35
97.46,225.031,31.904
97.49,222.504,32.179
97.52,221.977,31.835
97.55,220.047,31.079
97.59,217.45,30.919
97.62,216.678,30.472
97.65,214.362,29.922
97.68,211.659,29.899
97.72,210.852,29.429
97.75,208.36,29.074
97.78,205.728,28.902
97.81,204.57,28.112
97.85,201.552,27.677
97.88,198.744,27.619
97.91,197.481,27.047
97.94,194.463,26.989
97.98,192.287,27.035
98.01,191.269,26.474
98.04,188.356,26.245
98.08,186.215,25.844
98.11,184.636,25.007
98.14,181.548,24.641
98.17,178.986,24.137
98.21,176.915,23.587
98.24,174.178,23.438
98.27,171.44,22.968
98.3,169.054,22.109
98.34,166.141,21.72
98.37,163.087,21.307
98.4,160.104,20.609
98.43,157.542,20.162
98.47,154.63,20.07
98.5,151.962,19.749
98.53,149.892,19.051
98.56,146.838,18.409
98.6,143.61,18.237
98.63,141.539,17.367
98.66,138.696,16.507
98.69,134.52,16.404
98.73,132.309,15.866
98.76,129.922,15.202
98.79,126.167,15.098
98.82,123.746,14.675
98.86,121.219,13.815
98.89,117.218,13.506
98.92,114.235,13.14
98.95,111.497,12.418
98.99,107.356,12.189
99.02,104.373,11.914
99.05,101.53,11.032
99.08,97.635,10.413
99.12,93.81,9.921
99.15,90.511,9.073
99.18,86.861,8.156
99.21,82.404,7.732
99.25,78.964,7.354
99.28,75.665,6.782
99.31,72.086,6.392
99.35,68.962,6.026
99.38,66.154,5.476
99.41,62.82,4.96
99.44,59.627,4.548
99.48,56.503,4.032
99.51,53.169,3.517
99.54,49.765,3.024
99.57,46.045,2.543
99.61,42.851,1.982
99.64,39.166,1.375
99.67,35.201,0.985
99.7,32.428,0.367
99.74,28.954,-0.298
99.77,25.444,-0.664
99.8,22.882,-1.306
99.83,19.618,-2.028
99.87,15.652,-2.451
99.9,11.02,-2.715
99.93,6.036,-2.795
99.96,1.088,-2.726
100.0,-3.65,-2.532
100.03,-7.791,-2.211
100.06,-11.406,-1.764
100.09,-14.073,-1.501
100.13,-16.039,-1.718
100.16,-18.39,-2.142
100.19,-21.373,-2.532
100.22,-23.83,-3.104
100.26,-26.743,-3.826
100.29,-30.287,-4.296
100.32,-33.095,-4.96
100.35,-36.674,-5.625
100.39,-40.465,-6.152
100.42,-45.905,-6.358
100.45,-50.327,-6.415
100.48,-53.52,-6.679
100.52,-57.767,-6.564
100.55,-59.943,-6.736
100.58,-61.487,-7.526
100.61,-65.137,-7.801
100.65,-66.786,-8.557
100.68,-69.102,-9.749
100.71,-73.524,-10.161
100.75,-76.227,-11.009
100.78,-79.631,-12.109
100.81,-84.544,-12.441
100.84,-87.843,-13.105
100.88,-91.212,-13.838
100.91,-95.178,-14.102
100.94,-98.688,-14.514
100.97,-101.215,-15.064
101.01,-103.917,-15.671
101.04,-108.234,-16.095
101.07,-110.796,-16.794
101.1,-113.603,-17.71
101.14,-118.938,-17.745
101.17,-121.078,-18.272
101.2,-123.57,-19.051
101.23,-129.08,-18.615
101.27,-130.624,-19.383
101.3,-133.432,-20.196
101.33,-138.942,-19.864
101.36,-140.907,-21.032
101.4,-143.259,-21.628
101.43,-146.242,-21.158
101.46,-146.628,-22.029
101.49,-148.347,-23.049
101.53,-150.418,-23.679
101.56,-152.594,-24.847
101.59,-155.086,-25.764
101.62,-157.788,-26.772
101.66,-161.894,-27.482
101.69,-164.386,-28.123
101.72,-167.685,-28.639
101.75,-171.545,-28.685
101.79,-173.651,-29.074
101.82,-176.704,-29.59
101.85,-180.144,-29.876
101.88,-182.144,-30.46
101.92,-185.197,-30.919
101.95,-188.11,-30.953
101.98,-189.76,-31.331
102.02,-192.497,-31.594
102.05,-194.673,-31.56
102.08,-195.937,-31.927
102.11,-198.674,-32.305
102.15,-200.78,-32.454
102.18,-202.219,-32.74
102.21,-204.5,-32.82
102.24,-206.29,-32.763
102.28,-207.413,-32.969
102.31,-209.238,-33.221
102.34,-210.992,-33.404
102.37,-212.221,-34.034
102.41,-214.607,-34.642
102.44,-216.994,-34.951
102.47,-218.433,-35.478
102.5,-221.24,-35.959
102.54,-223.592,-36.245
102.57,-225.066,-36.326
102.6,-227.382,-36.337
102.63,-229.172,-36.394
102.67,-230.681,-36.807
102.7,-232.892,-37.334
102.73,-234.506,-37.402
102.76,-235.805,-37.345
102.8,-237.349,-37.402
102.83,-239.104,-37.712
102.86,-240.262,-38.113
102.89,-241.771,-38.422
102.93,-243.701,-38.617
102.96,-245.07,-39.041
102.99,-246.579,-39.315
103.02,-248.299,-39.327
103.06,-249.527,-39.453
103.09,-250.896,-39.774
103.12,-252.65,-40.049
103.15,-253.984,-40.427
103.19,-255.704,-40.896
103.22,-257.494,-41.148
103.25,-258.617,-41.355
103.28,-260.266,-41.309
103.32,-261.319,-41.114
103.35,-262.196,-41.355
103.38,-263.705,-41.572
103.42,-264.758,-41.881
103.45,-265.846,-42.5
103.48,-267.636,-42.718
103.51,-268.794,-42.66
103.55,-269.742,-42.89
103.58,-271.181,-42.947
103.61,-272.128,-43.004
103.64,-273.181,-43.405
103.68,-274.655,-43.68
103.71,-275.813,-43.921
103.74,-276.971,-44.218
103.77,-278.27,-44.035
103.81,-278.867,-43.886
103.84,-279.393,-43.932
103.87,-279.99,-43.669
103.9,-280.235,-43.577
103.94,-280.551,-43.955
103.97,-281.323,-44.058
104.0,-281.499,-44.035
104.03,-281.744,-44.184
104.07,-282.552,-43.989
104.1,-282.446,-43.909
104.13,-282.481,-44.069
104.16,-283.008,-43.909
104.2,-282.973,-44.047
104.23,-283.043,-44.184
104.26,-283.394,-43.932
104.29,-283.008,-43.726
104.33,-283.253,-43.932
104.36,-283.148,-43.52
104.39,-281.815,-42.935
104.42,-281.709,-42.958
104.46,-281.92,-43.256
104.49,-280.972,-43.462
104.52,-280.972,-43.187
104.55,-280.727,-42.718
104.59,-279.358,-42.512
104.62,-278.726,-41.939
104.65,-277.217,-41.24
104.69,-275.638,-41.08
104.72,-275.006,-40.999
104.75,-273.567,-40.782
104.78,-271.953,-40.656
104.82,-271.216,-40.22
104.85,-269.496,-39.819
104.88,-267.776,-39.579
104.91,-266.689,-39.075
104.95,-264.864,-38.903
104.98,-263.67,-39.098
105.01,-263.039,-38.983
105.04,-261.6,-38.949
105.08,-260.652,-38.926
105.11,-259.985,-38.388
105.14,-258.09,-37.975
105.17,-256.862,-37.723
105.21,-256.09,-37.231
105.24,-253.879,-37.013
105.27,-252.545,-36.875
105.3,-251.773,-36.452
105.34,-249.597,-36.234
105.37,-247.913,-35.856
105.4,-246.649,-35.169
105.43,-244.333,-34.939
105.47,-242.648,-34.848
105.5,-241.245,-34.367
105.53,-238.683,-34.046
105.56,-237.489,-34.023
105.6,-235.84,-33.611
105.63,-233.453,-33.278
105.66,-231.909,-32.877
105.69,-230.26,-32.316
105.73,-227.908,-32.339
105.76,-226.224,-32.041
105.79,-224.574,-31.606
105.82,-222.539,-31.835
105.86,-221.416,-31.778
105.89,-219.766,-31.125
105.92,-217.45,-30.781
105.96,-216.257,-30.54
105.99,-214.432,-30.105
106.02,-211.87,-29.922
106.05,-210.641,-29.544
106.09,-208.746,-29.166
106.12,-206.149,-28.971
106.15,-204.465,-28.192
106.18,-202.008,-27.516
106.22,-199.025,-27.321
106.25,-196.989,-26.932
106.28,-194.357,-26.657
106.31,-191.901,-26.691
106.35,-190.251,-26.394
106.38,-188.04,-26.004
106.41,-185.619,-25.603
106.44,-183.723,-25.053
106.48,-181.302,-24.492
106.51,-178.635,-24.057
106.54,-176.424,-23.61
106.57,-173.897,-23.289
106.61,-171.194,-22.842
106.64,-168.562,-22.224
106.67,-166.035,-21.628
106.7,-162.877,-21.181
106.74,-159.824,-20.643
106.77,-157.437,-19.933
106.8,-154.665,-19.83
106.83,-151.366,-19.566
106.87,-148.698,-18.409
106.9,-146.382,-17.974
106.93,-142.662,-17.871
106.96,-140.205,-17.493
107.0,-138.907,-16.954
107.03,-135.608,-16.794
107.06,-132.73,-16.507
107.09,-131.537,-15.545
107.13,-127.782,-15.018
107.16,-123.991,-14.571
107.19,-121.921,-13.483
107.22,-117.358,-12.91
107.26,-113.147,-12.945
107.29,-111.006,-12.246
107.32,-106.689,-11.902
107.36,-103.11,-12.005
107.39,-101.355,-11.238
107.42,-97.6,-10.528
107.45,-93.95,-10.115
107.49,-91.107,-9.13
107.52,-87.036,-8.225
107.55,-82.895,-7.801
107.58,-79.245,-7.251
107.62,-75.806,-6.724
107.65,-73.489,-7.206
107.68,-71.664,-7.973
107.71,-71.103,-7.561
107.75,-69.664,-6.553
107.78,-66.821,-5.888
107.81,-63.979,-4.834
107.84,-59.943,-3.597
107.88,-55.064,-2.761
107.91,-49.73,-2.016
107.94,-44.676,-1.02
107.97,-39.236,-0.046
108.01,-33.27,0.321
108.04,-29.305,0.859
108.07,-25.058,1.592
108.1,-20.882,1.982
108.14,-17.021,2.509
108.17,-12.038,2.967
108.2,-6.528,3.15
108.23,-1.053,2.921
108.27,3.474,2.291
108.3,6.984,1.707
108.33,9.511,1.34
108.36,11.336,0.974
108.4,12.634,0.687
108.43,13.722,0.825
108.46,14.986,1.375
108.49,16.916,1.97
108.53,19.829,2.555
108.56,23.093,3.494
108.59,26.813,4.41
108.63,30.989,4.823
108.66,34.007,5.201
108.69,37.727,5.762
108.72,41.483,6.484
108.76,46.887,6.747
108.79,51.485,6.633
108.82,54.854,7.057
108.85,59.311,7.251
108.89,62.119,7.469
108.92,64.154,8.202
108.95,67.804,8.489
108.98,69.875,8.912
109.02,71.664,9.76
109.05,75.209,10.092
109.08,77.806,10.963
109.11,80.754,12.166
109.15,85.211,12.67
109.18,88.896,13.323
109.21,92.476,14.262
109.24,96.547,14.709
109.28,100.443,14.892
109.31,103.145,15.362
109.34,106.093,16.141
109.37,110.41,16.611
109.41,113.358,17.183
109.44,115.99,17.905
109.47,120.973,18.077
109.5,123.816,18.615
109.54,126.132,19.165
109.57,130.8,18.776
109.6,133.081,19.52
109.63,135.608,20.402
109.67,140.17,20.082
109.7,142.627,20.654
109.73,143.645,21.777
109.76,146.487,21.823
109.8,147.786,22.59
109.83,149.681,23.736
109.86,152.103,24.515
109.89,154.875,25.615
109.93,157.507,26.462
109.96,160.315,27.276
109.99,164.386,27.803
110.03,167.159,28.41
110.06,169.966,28.834
110.09,173.476,28.822
110.12,176.108,29.257
110.16,178.88,30.002
110.19,182.039,30.254
110.22,184.355,30.495
110.25,186.917,30.919
110.29,189.514,31.136
110.32,191.69,31.285
110.35,192.813,30.976
110.38,191.585,28.341
110.42,188.567,25.156
110.45,186.04,24.4
110.48,184.039,25.065
110.51,181.653,25.523
110.55,180.811,26.6
110.58,182.109,28.249
110.61,184.671,30.54
110.64,188.567,33.21
110.68,194.392,35.535
110.71,200.85,37.471
110.74,207.623,38.903
110.77,214.607,39.476
110.81,220.012,39.464
110.84,224.75,38.857
110.87,228.4,37.906
110.9,230.646,37.231
110.94,232.436,36.818
110.97,233.945,36.429
111.0,234.576,36.291
111.03,235.559,36.578
111.07,236.682,36.841
111.1,237.314,36.898
111.13,238.297,37.219
111.16,239.981,37.551
111.2,241.069,37.998
111.23,242.508,38.502
111.26,244.543,38.857
111.3,246.053,39.304
111.33,247.772,39.613
111.36,249.738,39.567
111.39,250.755,39.728
111.43,252.475,40.186
111.46,254.546,40.45
111.49,255.598,40.782
111.52,257.353,41.125
111.56,259.283,41.125
111.59,259.81,41.217
111.62,261.073,41.068
111.65,262.021,40.667
111.69,262.407,41.103
111.72,263.881,41.675
111.75,265.179,41.916
111.78,266.092,42.5
111.82,267.847,42.741
111.85,269.075,42.603
111.88,269.812,42.741
111.91,271.075,42.786
111.95,272.058,42.775
111.98,272.865,43.21
112.01,274.445,43.554
112.04,275.533,43.772
112.08,276.515,44.138
112.11,277.884,44.024
112.14,278.586,43.806
112.17,279.007,43.795
112.21,279.604,43.543
112.24,279.814,43.428
112.27,280.13,43.691
112.3,280.727,43.783
112.34,281.007,43.806
112.37,281.253,43.886
112.4,281.709,43.806
112.43,281.779,43.634
112.47,281.429,43.462
112.5,281.674,43.245
112.53,281.393,43.336
112.57,281.113,43.543
112.6,281.464,43.268
112.63,280.902,43.256
112.66,280.867,43.371
112.7,281.042,43.165
112.73,280.411,43.096
112.76,280.586,43.279
112.79,281.078,43.348
112.83,280.692,43.623
112.86,281.042,43.623
112.89,281.148,43.153
112.92,280.235,42.798
112.96,279.568,42.271
112.99,278.726,41.595
113.02,277.147,41.435
113.05,276.515,41.4
113.09,275.357,41.103
113.12,273.602,40.954
113.15,272.83,40.518
113.18,271.321,39.9
113.22,269.18,39.476
113.25,267.847,39.063
113.28,266.162,38.892
113.31,264.513,39.109
113.35,263.741,39.029
113.38,262.653,38.892
113.41,261.354,38.914
113.44,260.477,38.536
113.48,259.108,37.987
113.51,257.634,37.78
113.54,256.757,37.563
113.57,255.072,37.219
113.61,253.352,36.956
113.64,252.44,36.612
113.67,250.615,36.383
113.7,248.86,36.119
113.74,247.702,35.592
113.77,245.807,35.466
113.8,244.333,35.466
113.83,243.14,34.974
113.87,241.28,34.584
113.9,239.49,34.424
113.93,238.051,33.908
113.97,235.664,33.278
114.0,233.348,32.717
114.03,231.664,32.419
114.06,229.417,32.339
114.1,227.312,32.179
114.13,225.662,31.778
114.16,223.662,31.491
114.19,221.486,31.205
114.23,219.521,30.598
114.26,217.239,30.128
114.29,215.099,29.979
114.32,213.168,29.784
114.36,211.203,29.567
114.39,209.378,29.487
114.42,207.974,29.315
114.45,206.009,29.017
114.49,203.868,28.364
114.52,201.938,27.803
114.55,199.937,27.757
114.58,197.551,27.562
114.62,195.445,27.058
114.65,193.269,26.691
114.68,191.304,26.817
114.71,189.725,26.462
114.75,187.233,25.718
114.78,184.706,25.237
114.81,183.022,24.687
114.84,180.319,24.251
114.88,177.126,23.702
114.91,174.915,22.831
114.94,172.353,22.808
114.97,169.334,22.556
115.01,167.053,21.937
115.04,164.07,21.204
115.07,160.455,20.54
115.1,157.999,19.91
115.14,155.402,19.463
115.17,151.752,19.222
115.2,148.979,18.867
115.24,147.295,18.249
115.27,143.82,17.882
115.3,140.451,17.584
115.33,139.433,16.794
115.37,136.345,16.622
115.4,132.449,16.507
115.43,131.607,15.247
115.46,127.747,14.617
115.5,122.974,14.594
115.53,121.429,13.483
115.56,116.902,12.601
115.59,111.848,12.75
115.63,110.199,12.109
115.66,105.882,11.742
115.69,101.987,12.063
115.72,100.829,11.341
115.76,97.249,10.596
115.79,93.704,10.23
115.82,91.177,9.256
115.85,87.282,8.294
115.89,83.421,7.824
115.92,79.736,7.389
115.95,76.227,6.873
115.98,73.103,6.301
116.02,69.383,5.945
116.05,66.365,5.43
116.08,63.277,4.731
116.11,59.451,4.376
116.15,56.223,4.09
116.18,53.204,3.654
116.21,50.046,3.288
116.24,46.677,2.944
116.28,43.764,2.314
116.31,40.57,1.546
116.34,36.253,1.077
116.37,33.305,0.481
116.41,30.006,-0.263
116.44,26.041,-0.573
116.47,23.514,-1.088
116.5,20.636,-1.799
116.54,17.091,-2.188
116.57,13.055,-2.371
116.6,8.353,-2.726
116.64,3.229,-2.967
116.67,-2.071,-2.852
