Trigger_Date,2023/08/04
Trigger_Time,T 10:16:08.628 PDT
Samples_Per_Cycle,512
Microseconds_Per_Sample,32.536
Time (ms),Voltage (V),Current (A)
-16.66,1.755,2.303
-16.63,4.948,3.024
-16.59,8.247,3.643
-16.56,12.529,4.284
-16.53,17.337,4.766
-16.5,21.794,5.098
-16.46,24.707,5.544
-16.43,25.83,6.312
-16.4,26.462,7.412
-16.37,28.006,8.626
-16.33,30.392,9.726
-16.3,33.586,10.94
-16.27,37.833,12.131
-16.24,42.36,13.025
-16.2,46.782,13.644
-16.17,51.134,14.182
-16.14,55.696,14.583
-16.11,60.188,14.823
-16.07,64.294,14.961
-16.04,68.12,15.121
-16.01,71.805,15.259
-15.97,75.209,15.408
-15.94,78.508,15.648
-15.91,81.807,16.015
-15.88,85.106,16.404
-15.84,88.335,16.817
-15.81,91.528,17.241
-15.78,94.757,17.607
-15.75,97.845,17.985
-15.71,101.004,18.386
-15.68,104.163,18.821
-15.65,107.462,19.36
-15.62,110.901,20.001
-15.58,114.481,20.586
-15.55,117.955,21.113
-15.52,121.324,21.491
-15.49,124.693,21.995
-15.45,128.098,22.327
-15.42,131.502,22.854
-15.39,135.011,23.346
-15.36,138.451,23.839
-15.32,141.82,24.332
-15.29,145.154,24.698
-15.26,148.242,24.881
-15.23,151.155,25.156
-15.19,154.138,25.523
-15.16,157.086,25.844
-15.13,159.824,26.142
-15.1,162.631,26.6
-15.06,165.79,27.161
-15.03,168.808,27.574
-15.0,171.581,27.871
-14.97,174.283,28.169
-14.93,176.915,28.421
-14.9,179.477,28.65
-14.87,182.144,29.04
-14.84,184.952,29.464
-14.8,187.654,29.853
-14.77,190.216,30.231
-14.74,192.813,30.529
-14.71,195.34,30.701
-14.67,197.551,30.815
-14.64,199.727,31.045
-14.61,202.008,31.423
-14.58,204.43,31.789
-14.54,206.886,32.053
-14.51,209.167,32.35
-14.48,211.238,32.602
-14.45,213.028,32.648
-14.41,214.818,32.706
-14.38,216.888,32.981
-14.35,218.994,33.359
-14.32,220.995,33.702
-14.28,223.065,34.069
-14.25,225.311,34.538
-14.22,227.628,34.825
-14.19,229.523,34.871
-14.15,231.383,35.134
-14.12,233.699,35.501
-14.09,235.945,35.844
-14.06,237.946,36.062
-14.02,239.806,36.188
-13.99,241.631,36.337
-13.96,243.456,36.474
-13.93,245.07,36.486
-13.89,246.439,36.566
-13.86,248.018,36.738
-13.83,249.527,36.933
-13.8,251.071,37.139
-13.76,252.65,37.448
-13.73,254.37,37.757
-13.7,256.055,37.952
-13.66,257.388,37.998
-13.63,258.792,38.136
-13.6,260.371,38.33
-13.57,261.951,38.548
-13.53,263.354,38.766
-13.5,264.723,38.869
-13.47,265.952,38.949
-13.44,267.25,39.029
-13.4,268.513,39.052
-13.37,269.672,39.212
-13.34,270.9,39.441
-13.31,272.269,39.693
-13.27,273.637,39.957
-13.24,275.006,40.198
-13.21,276.375,40.335
-13.18,277.638,40.392
-13.14,278.691,40.392
-13.11,279.709,40.381
-13.08,280.656,40.369
-13.05,281.534,40.45
-13.01,282.516,40.621
-12.98,283.534,40.828
-12.95,284.482,40.908
-12.92,285.149,40.896
-12.88,285.78,40.839
-12.85,286.272,40.644
-12.82,286.447,40.358
-12.79,286.552,40.289
-12.75,287.254,40.69
-12.72,287.746,40.633
-12.69,287.746,40.541
-12.66,288.026,40.736
-12.62,288.377,40.667
-12.59,288.272,40.381
-12.56,287.991,40.22
-12.53,288.237,40.415
-12.49,288.728,40.598
-12.46,288.904,40.633
-12.43,288.974,40.747
-12.4,289.185,40.679
-12.36,289.149,40.415
-12.33,288.728,40.083
-12.3,288.272,39.785
-12.27,287.921,39.739
-12.23,287.781,39.854
-12.2,287.57,39.888
-12.17,287.149,39.819
-12.14,286.588,39.602
-12.1,285.886,39.258
-12.07,285.043,38.972
-12.04,284.166,38.743
-12.01,283.429,38.651
-11.97,282.832,38.777
-11.94,282.236,38.823
-11.91,281.569,38.662
-11.88,280.516,38.342
-11.84,279.463,37.952
-11.81,278.2,37.494
-11.78,276.656,37.047
-11.75,275.111,36.807
-11.71,273.778,36.692
-11.68,272.444,36.509
-11.65,270.9,36.337
-11.62,269.321,36.108
-11.58,267.776,35.776
-11.55,266.197,35.558
-11.52,264.723,35.466
-11.49,263.495,35.432
-11.45,262.267,35.375
-11.42,261.038,35.317
-11.39,259.915,35.203
-11.35,258.652,34.928
-11.32,257.248,34.584
-11.29,255.739,34.309
-11.26,254.37,34.16
-11.22,253.142,34.0
-11.19,251.562,33.622
-11.16,249.773,33.336
-11.13,247.948,32.923
-11.09,245.877,32.339
-11.06,243.35,31.652
-11.03,241.245,31.537
-11.0,239.56,31.594
-10.96,237.735,31.319
-10.93,235.559,31.113
-10.9,233.945,31.171
-10.87,232.576,31.102
-10.83,230.821,30.712
-10.8,228.68,30.243
-10.77,226.575,29.842
-10.74,224.574,29.429
-10.7,222.469,29.04
-10.67,220.117,28.696
-10.64,217.976,28.444
-10.61,215.871,28.146
-10.57,213.449,27.722
-10.54,210.957,27.287
-10.51,208.711,26.921
-10.48,206.149,26.6
-10.44,203.728,26.371
-10.41,201.622,26.164
-10.38,199.551,25.993
-10.35,197.34,25.718
-10.31,194.849,25.225
-10.28,192.322,24.675
-10.25,189.76,24.183
-10.22,186.987,23.61
-10.18,184.074,23.152
-10.15,181.372,22.934
-10.12,178.88,22.625
-10.09,176.003,22.121
-10.05,173.019,21.617
-10.02,170.036,21.181
-9.99,166.983,20.597
-9.96,163.649,19.921
-9.92,160.28,19.566
-9.89,157.191,19.108
-9.86,154.068,18.821
-9.83,150.945,18.398
-9.79,147.47,17.722
-9.76,143.996,17.241
-9.73,140.802,16.84
-9.7,137.714,16.53
-9.66,134.695,16.29
-9.63,131.818,16.106
-9.6,129.08,15.854
-9.57,126.308,15.499
-9.53,123.43,15.041
-9.5,120.341,14.457
-9.47,117.078,13.85
-9.44,113.779,13.277
-9.4,110.515,12.83
-9.37,107.286,12.487
-9.34,104.163,12.04
-9.31,100.723,11.49
-9.27,97.249,10.974
-9.24,93.774,10.436
-9.21,90.335,9.978
-9.18,86.896,9.474
-9.14,83.456,9.119
-9.11,80.438,9.027
-9.08,77.736,8.901
-9.04,74.998,8.615
-9.01,71.98,8.191
-8.98,68.822,7.652
-8.95,65.593,7.022
-8.91,62.119,6.346
-8.88,58.504,5.728
-8.85,54.889,5.132
-8.82,50.923,4.445
-8.78,46.852,3.666
-8.75,42.606,2.887
-8.72,38.324,2.211
-8.69,34.183,1.604
-8.65,30.252,1.157
-8.62,26.672,0.745
-8.59,23.022,0.286
-8.56,19.373,-0.103
-8.52,15.758,-0.493
-8.49,12.248,-0.79
-8.46,8.563,-0.997
-8.43,4.562,-1.123
-8.39,1.088,-1.031
-8.36,-0.912,-1.283
-8.33,-2.948,-1.799
-8.3,-4.913,-2.463
-8.26,-7.51,-3.379
-8.23,-11.581,-4.17
-8.2,-16.565,-4.697
-8.17,-21.162,-4.788
-8.13,-23.935,-4.995
-8.1,-25.444,-5.9
-8.07,-26.988,-7.217
-8.04,-29.024,-8.489
-8.0,-31.726,-9.749
-7.97,-35.025,-11.112
-7.94,-38.956,-12.269
-7.91,-43.343,-13.048
-7.87,-47.765,-13.621
-7.84,-52.116,-14.102
-7.81,-56.468,-14.4
-7.78,-60.469,-14.491
-7.74,-64.189,-14.583
-7.71,-67.734,-14.743
-7.68,-71.173,-14.938
-7.65,-74.402,-15.075
-7.61,-77.49,-15.362
-7.58,-80.754,-15.843
-7.55,-84.123,-16.313
-7.52,-87.457,-16.782
-7.48,-90.791,-17.298
-7.45,-94.301,-17.825
-7.42,-97.74,-18.34
-7.39,-101.18,-18.776
-7.35,-104.654,-19.211
-7.32,-108.093,-19.681
-7.29,-111.638,-20.208
-7.26,-115.147,-20.677
-7.22,-118.657,-21.181
-7.19,-122.202,-21.674
-7.16,-125.711,-22.189
-7.13,-129.115,-22.533
-7.09,-132.028,-22.59
-7.06,-135.046,-23.071
-7.03,-138.451,-23.598
-7.0,-141.679,-24.022
-6.96,-144.662,-24.4
-6.93,-147.751,-24.836
-6.9,-150.839,-25.237
-6.87,-153.963,-25.615
-6.83,-156.911,-25.993
-6.8,-159.964,-26.462
-6.77,-163.087,-26.955
-6.73,-166.176,-27.39
-6.7,-169.194,-27.722
-6.67,-172.107,-28.112
-6.64,-175.09,-28.444
-6.6,-177.863,-28.662
-6.57,-180.354,-28.834
-6.54,-182.951,-29.223
-6.51,-185.759,-29.635
-6.47,-188.321,-29.865
-6.44,-190.427,-29.899
-6.41,-191.971,-29.624
-6.38,-193.129,-29.2
-6.34,-194.147,-29.04
-6.31,-195.445,-29.189
-6.28,-197.025,-29.75
-6.25,-199.025,-30.563
-6.21,-201.517,-31.526
-6.18,-204.289,-32.442
-6.15,-207.588,-33.187
-6.12,-210.957,-33.748
-6.08,-214.186,-34.321
-6.05,-217.625,-34.894
-6.02,-221.205,-35.329
-5.99,-224.644,-35.73
-5.95,-227.698,-35.936
-5.92,-230.33,-35.925
-5.89,-232.646,-35.764
-5.86,-234.506,-35.432
-5.82,-235.735,-34.997
-5.79,-236.858,-34.871
-5.76,-237.91,-34.756
-5.73,-238.577,-34.584
-5.69,-239.314,-34.871
-5.66,-240.823,-35.409
-5.63,-242.192,-35.673
-5.6,-243.175,-35.867
-5.56,-244.508,-36.257
-5.53,-246.404,-36.704
-5.5,-248.299,-37.001
-5.47,-249.983,-37.368
-5.43,-251.949,-37.849
-5.4,-254.089,-38.147
-5.37,-255.914,-38.296
-5.34,-257.599,-38.388
-5.3,-259.283,-38.548
-5.27,-260.933,-38.548
-5.24,-262.337,-38.674
-5.21,-263.811,-38.811
-5.17,-265.004,-38.708
-5.14,-266.127,-38.846
-5.11,-267.39,-38.995
-5.08,-268.549,-39.086
-5.04,-269.707,-39.235
-5.01,-270.83,-39.43
-4.98,-272.058,-39.613
-4.95,-273.357,-39.831
-4.91,-274.62,-40.037
-4.88,-275.883,-40.198
-4.85,-277.112,-40.312
-4.82,-278.305,-40.381
-4.78,-279.358,-40.45
-4.75,-280.305,-40.472
-4.72,-281.323,-40.576
-4.69,-282.411,-40.782
-4.65,-283.499,-40.919
-4.62,-284.341,-40.919
-4.59,-284.938,-40.828
-4.55,-285.535,-40.702
-4.52,-285.886,-40.507
-4.49,-285.991,-40.289
-4.46,-286.237,-40.266
-4.42,-286.833,-40.713
-4.39,-287.535,-40.782
-4.36,-287.465,-40.576
-4.33,-287.816,-40.816
-4.29,-288.342,-40.69
-4.26,-288.518,-40.576
-4.23,-288.658,-40.69
-4.2,-288.834,-40.53
-4.16,-288.869,-40.518
-4.13,-289.114,-40.61
-4.1,-289.325,-40.61
-4.07,-289.22,-40.45
-4.03,-288.904,-40.175
-4.0,-288.377,-39.877
-3.97,-287.921,-39.648
-3.94,-287.5,-39.636
-3.9,-287.325,-39.842
-3.87,-287.184,-39.923
-3.84,-286.868,-39.854
-3.81,-286.342,-39.636
-3.77,-285.78,-39.338
-3.74,-284.938,-38.949
-3.71,-284.026,-38.708
-3.68,-283.289,-38.697
-3.64,-282.727,-38.754
-3.61,-282.095,-38.662
-3.58,-281.042,-38.433
-3.55,-279.884,-38.078
-3.51,-278.691,-37.677
-3.48,-277.393,-37.334
-3.45,-275.989,-37.059
-3.42,-274.585,-36.956
-3.38,-273.427,-36.91
-3.35,-272.269,-36.795
-3.32,-271.04,-36.715
-3.29,-269.742,-36.463
-3.25,-268.233,-36.016
-3.22,-266.653,-35.661
-3.19,-265.109,-35.398
-3.16,-263.635,-35.249
-3.12,-262.161,-35.111
-3.09,-260.617,-34.962
-3.06,-259.178,-34.836
-3.03,-257.704,-34.504
-2.99,-255.809,-34.034
-2.96,-253.914,-33.668
-2.93,-252.159,-33.393
-2.9,-250.439,-33.198
-2.86,-248.65,-32.969
-2.83,-246.965,-32.923
-2.8,-245.842,-33.095
-2.77,-244.403,-32.751
-2.73,-242.297,-32.224
-2.7,-240.437,-31.995
-2.67,-239.034,-31.778
-2.64,-237.244,-31.377
-2.6,-235.068,-30.964
-2.57,-233.102,-30.827
-2.54,-231.558,-30.712
-2.51,-229.839,-30.437
-2.47,-227.838,-30.151
-2.44,-225.943,-29.91
-2.41,-224.153,-29.647
-2.38,-222.293,-29.315
-2.34,-220.187,-28.902
-2.31,-218.011,-28.605
-2.28,-215.941,-28.272
-2.24,-213.66,-27.757
-2.21,-211.168,-27.287
-2.18,-208.781,-26.829
-2.15,-206.149,-26.451
-2.11,-203.587,-26.29
-2.08,-201.587,-26.187
-2.05,-199.481,-25.981
-2.02,-197.13,-25.695
-1.98,-194.673,-25.214
-1.95,-192.181,-24.733
-1.92,-189.725,-24.24
-1.89,-186.847,-23.633
-1.85,-184.004,-23.243
-1.82,-181.442,-23.106
-1.79,-178.986,-22.705
-1.76,-175.967,-22.155
-1.72,-172.809,-21.594
-1.69,-169.756,-21.021
-1.66,-166.422,-20.219
-1.63,-163.087,-19.91
-1.59,-160.104,-19.646
-1.56,-157.332,-19.52
-1.53,-154.454,-19.119
-1.5,-151.295,-18.707
-1.46,-148.067,-18.054
-1.43,-144.733,-17.412
-1.4,-141.399,-16.897
-1.37,-138.1,-16.393
-1.33,-134.766,-15.98
-1.3,-131.537,-15.717
-1.27,-128.589,-15.419
-1.24,-125.5,-15.053
-1.2,-122.307,-14.606
-1.17,-119.078,-14.056
-1.14,-115.639,-13.46
-1.11,-112.34,-12.956
-1.07,-109.076,-12.613
-1.04,-105.952,-12.326
-1.01,-102.829,-11.914
-0.98,-99.565,-11.524
-0.94,-96.442,-11.066
-0.91,-93.143,-10.539
-0.88,-89.774,-9.978
-0.85,-86.299,-9.531
-0.81,-83.07,-9.13
-0.78,-79.807,-8.729
-0.75,-76.472,-8.317
-0.72,-73.209,-7.962
-0.68,-69.98,-7.48
-0.65,-66.4,-6.816
-0.62,-62.715,-6.232
-0.59,-59.135,-5.751
-0.55,-55.661,-5.338
-0.52,-52.116,-4.903
-0.49,-48.607,-4.433
-0.46,-45.168,-4.067
-0.42,-41.798,-3.666
-0.39,-38.464,-3.23
-0.36,-35.201,-2.852
-0.33,-32.007,-2.497
-0.29,-28.918,-2.108
-0.26,-25.725,-1.707
-0.23,-22.601,-1.317
-0.2,-19.478,-0.962
-0.16,-16.565,-0.584
-0.13,-13.792,0.103
-0.1,-10.423,0.939
-0.07,-5.861,1.569
-0.03,-0.912,1.947
0.0,2.562,2.589
0.03,5.896,3.322
0.07,9.335,3.78
0.1,13.512,4.239
0.13,18.074,4.708
0.16,21.97,5.04
0.2,24.391,5.396
0.23,25.269,6.186
0.26,26.041,7.263
0.29,27.62,8.42
0.33,29.936,9.737
0.36,33.06,11.169
0.39,37.236,12.315
0.42,41.869,13.185
0.46,46.606,13.896
0.49,51.344,14.434
0.52,55.872,14.72
0.55,60.329,14.938
0.59,64.505,15.087
0.62,68.506,15.202
0.65,72.156,15.35
0.68,75.56,15.419
0.72,78.754,15.591
0.75,81.982,15.935
0.78,85.176,16.324
0.81,88.335,16.748
0.85,91.528,17.195
0.88,94.722,17.573
0.91,97.775,17.951
0.94,100.864,18.363
0.98,104.092,18.867
1.01,107.462,19.474
1.04,110.901,20.07
1.07,114.375,20.62
1.11,117.99,21.193
1.14,121.57,21.64
1.17,124.974,22.018
1.2,128.273,22.464
1.24,131.818,22.957
1.27,135.327,23.461
1.3,138.731,23.873
1.33,142.171,24.469
1.37,145.75,24.893
1.4,148.804,24.962
1.43,151.401,25.133
1.46,154.349,25.489
1.5,157.297,25.832
1.53,160.104,26.13
1.56,162.807,26.554
1.59,165.755,27.081
1.63,168.668,27.47
1.66,171.37,27.757
1.69,174.002,28.078
1.72,176.669,28.307
1.76,179.231,28.547
1.79,181.863,28.971
1.82,184.776,29.567
1.85,187.654,30.025
1.89,190.427,30.403
1.92,192.989,30.678
1.95,195.551,30.85
1.98,197.867,30.953
2.02,200.043,31.136
2.05,202.184,31.457
2.08,204.57,31.755
2.11,206.992,31.938
2.15,209.097,32.202
2.18,211.028,32.431
2.21,212.747,32.488
2.24,214.537,32.637
2.28,216.573,32.969
2.31,218.748,33.381
2.34,220.784,33.737
2.38,222.89,34.115
2.41,225.171,34.561
2.44,227.417,34.79
2.47,229.242,34.813
2.51,230.997,35.031
2.54,233.208,35.352
2.57,235.313,35.615
2.6,237.103,35.776
2.64,238.788,35.925
2.67,240.753,36.257
2.7,242.754,36.452
2.73,244.438,36.566
2.77,245.807,36.555
2.8,247.491,36.875
2.83,249.527,37.276
2.86,251.352,37.494
2.9,252.896,37.712
2.93,254.651,38.021
2.96,256.511,38.113
2.99,257.88,37.998
3.03,258.968,38.044
3.06,260.477,38.25
3.09,262.056,38.445
3.12,263.319,38.662
3.16,264.513,38.788
3.19,265.741,38.903
3.22,267.075,38.972
3.25,268.303,39.041
3.29,269.461,39.224
3.32,270.83,39.476
3.35,272.128,39.705
3.38,273.497,39.945
3.42,274.866,40.152
3.45,276.199,40.312
3.48,277.463,40.381
3.51,278.551,40.415
3.55,279.639,40.45
3.58,280.656,40.484
3.61,281.604,40.564
3.64,282.657,40.747
3.68,283.745,40.908
3.71,284.622,40.919
3.74,285.254,40.805
3.77,285.745,40.644
3.81,286.096,40.45
3.84,286.272,40.301
3.87,286.377,40.289
3.9,287.149,40.759
3.94,287.851,40.873
3.97,287.956,40.747
4.0,288.412,41.011
4.03,288.939,40.896
4.07,289.255,40.828
4.1,289.255,40.667
4.13,289.325,40.633
4.16,289.676,40.747
4.2,289.957,40.724
4.23,289.886,40.679
4.26,289.781,40.53
4.29,289.571,40.255
4.33,289.079,39.945
4.36,288.412,39.693
4.39,287.991,39.693
4.42,287.851,39.842
4.46,287.605,39.923
4.49,287.219,39.888
4.52,286.693,39.648
4.55,285.991,39.327
4.59,285.184,39.006
4.62,284.306,38.754
4.65,283.534,38.708
4.69,283.008,38.857
4.72,282.481,38.857
4.75,281.709,38.674
4.78,280.727,38.319
4.82,279.568,37.849
4.85,278.165,37.402
4.88,276.691,37.001
4.91,275.111,36.772
4.95,273.813,36.669
4.98,272.444,36.52
5.01,271.005,36.406
5.04,269.601,36.222
5.08,268.092,35.913
5.11,266.548,35.627
5.14,265.004,35.443
5.17,263.635,35.363
5.21,262.337,35.226
5.24,261.038,35.134
5.27,259.74,35.008
5.3,258.476,34.813
5.34,256.932,34.424
5.37,255.212,34.023
5.4,253.598,33.782
5.43,252.124,33.553
5.47,250.229,33.118
5.5,248.228,32.866
5.53,246.544,32.706
5.56,244.614,32.305
5.6,242.227,31.675
5.63,240.016,31.537
5.66,238.647,31.675
5.69,237.138,31.537
5.73,235.208,31.331
5.76,233.594,31.342
5.79,232.365,31.216
5.82,230.786,30.781
5.86,228.716,30.323
5.89,226.75,29.91
5.92,224.75,29.475
5.95,222.574,29.086
5.99,220.363,28.788
6.02,218.257,28.536
6.05,216.187,28.238
6.08,213.765,27.791
6.12,211.308,27.333
6.15,208.992,26.955
6.18,206.5,26.623
6.21,203.903,26.371
6.25,201.868,26.199
6.28,199.937,26.004
6.31,197.621,25.683
6.34,195.024,25.214
6.38,192.567,24.721
6.41,190.146,24.217
6.44,187.303,23.633
6.47,184.425,23.197
6.51,181.723,22.945
6.54,179.091,22.556
6.57,176.108,22.006
6.6,172.879,21.456
6.64,169.826,20.987
6.67,166.702,20.437
6.7,163.368,19.841
6.73,160.104,19.555
6.77,157.051,19.177
6.8,154.103,18.925
6.83,151.19,18.604
6.87,148.137,18.134
6.9,144.908,17.596
6.93,141.714,17.092
6.96,138.591,16.691
7.0,135.573,16.313
7.03,132.52,16.026
7.06,129.536,15.706
7.09,126.483,15.27
7.13,123.325,14.812
7.16,120.096,14.239
7.19,116.762,13.644
7.22,113.358,13.105
7.26,110.059,12.704
7.29,106.865,12.429
7.32,103.777,12.063
7.35,100.513,11.604
7.39,97.214,11.158
7.42,93.95,10.665
7.45,90.651,10.195
7.48,87.282,9.668
7.52,83.878,9.233
7.55,80.614,8.844
7.58,77.28,8.443
7.61,74.016,8.007
7.65,70.647,7.515
7.68,67.207,7.011
7.71,63.628,6.472
7.74,60.048,5.923
7.78,56.433,5.441
7.81,52.924,5.029
7.84,49.554,4.594
7.87,46.045,4.135
7.91,42.606,3.735
7.94,39.272,3.276
7.97,35.657,2.658
8.0,31.831,1.947
8.04,27.971,1.26
8.07,24.11,0.676
8.1,20.461,0.172
8.13,16.916,-0.195
8.17,13.652,-0.573
8.2,10.178,-0.882
8.23,6.458,-1.1
8.26,2.316,-1.272
8.3,-0.667,-1.627
8.33,-3.123,-2.188
8.36,-5.475,-2.715
8.39,-8.282,-3.311
8.43,-12.213,-3.872
8.46,-16.74,-4.342
8.49,-21.127,-4.548
8.52,-23.97,-4.743
8.56,-25.479,-5.487
8.59,-26.532,-6.701
8.62,-28.076,-7.985
8.65,-30.638,-9.268
8.69,-33.586,-10.688
8.72,-37.201,-12.028
8.75,-41.693,-12.979
8.78,-46.361,-13.678
8.82,-51.099,-14.342
8.85,-55.766,-14.789
8.88,-60.258,-14.961
8.91,-64.365,-15.087
8.95,-68.295,-15.202
8.98,-72.05,-15.35
9.01,-75.455,-15.465
9.04,-78.754,-15.683
9.08,-81.912,-15.969
9.11,-85.036,-16.29
9.14,-88.194,-16.702
9.18,-91.388,-17.183
9.21,-94.687,-17.71
9.24,-97.986,-18.123
9.27,-101.144,-18.524
9.31,-104.373,-18.97
9.34,-107.742,-19.486
9.37,-111.217,-20.013
9.4,-114.656,-20.505
9.44,-117.99,-20.987
9.47,-121.324,-21.365
9.5,-124.658,-21.834
9.53,-128.238,-22.419
9.57,-131.572,-22.751
9.6,-134.941,-23.335
9.63,-138.591,-23.976
9.66,-142.241,-24.561
9.7,-145.61,-24.87
9.73,-148.523,-24.962
9.76,-151.401,-25.191
9.79,-154.419,-25.489
9.83,-157.227,-25.672
9.86,-159.683,-26.004
9.89,-162.561,-26.52
9.92,-165.579,-27.024
9.96,-168.457,-27.425
9.99,-171.23,-27.848
10.02,-174.072,-28.261
10.05,-176.915,-28.559
10.09,-179.547,-28.788
10.12,-182.249,-29.166
10.15,-185.092,-29.67
10.18,-188.005,-30.128
10.22,-190.672,-30.414
10.25,-193.024,-30.529
10.28,-195.129,-30.518
10.31,-197.235,-30.598
10.35,-199.341,-30.827
10.38,-201.552,-31.297
10.41,-203.973,-31.869
10.44,-206.816,-32.385
10.48,-209.518,-32.809
10.51,-211.94,-33.152
10.54,-214.221,-33.359
10.57,-216.537,-33.439
10.61,-218.854,-33.668
10.64,-221.1,-33.931
10.67,-223.276,-34.172
10.7,-225.346,-34.412
10.74,-227.277,-34.596
10.77,-229.031,-34.584
10.8,-230.716,-34.733
10.83,-232.506,-34.882
10.87,-234.085,-34.951
10.9,-235.594,-35.226
10.93,-237.419,-35.535
10.96,-239.209,-35.821
11.0,-240.929,-36.131
11.03,-242.754,-36.36
11.06,-244.403,-36.463
11.09,-245.947,-36.555
11.13,-247.597,-36.784
11.16,-249.281,-36.979
11.19,-250.755,-37.082
11.22,-252.194,-37.368
11.26,-253.984,-37.723
11.29,-255.563,-37.815
11.32,-256.862,-37.861
11.35,-258.231,-38.032
11.39,-259.775,-38.181
11.42,-261.284,-38.388
11.45,-262.688,-38.662
11.49,-264.197,-38.846
11.52,-265.495,-38.869
11.55,-266.689,-38.983
11.58,-268.057,-39.132
11.62,-269.426,-39.293
11.65,-270.654,-39.499
11.68,-272.023,-39.774
11.71,-273.392,-40.014
11.75,-274.76,-40.198
11.78,-276.129,-40.301
11.81,-277.322,-40.369
11.84,-278.516,-40.392
11.88,-279.568,-40.438
11.91,-280.446,-40.45
11.94,-281.393,-40.564
11.97,-282.516,-40.747
12.01,-283.534,-40.828
12.04,-284.341,-40.839
12.07,-284.938,-40.759
12.1,-285.464,-40.587
12.14,-285.745,-40.45
12.17,-285.956,-40.278
12.2,-286.272,-40.392
12.23,-286.588,-40.427
12.27,-286.833,-40.564
12.3,-287.64,-40.976
12.33,-288.167,-40.885
12.36,-288.553,-41.022
12.4,-288.658,-40.656
12.43,-288.342,-40.175
12.46,-288.272,-40.243
12.49,-288.693,-40.427
12.53,-288.728,-40.301
12.56,-288.272,-40.129
12.59,-287.886,-39.968
12.62,-287.605,-39.762
12.66,-287.079,-39.464
12.69,-286.377,-39.327
12.72,-285.991,-39.453
12.75,-286.026,-39.728
12.79,-285.991,-39.888
12.82,-285.815,-39.923
12.85,-285.464,-39.739
12.88,-285.078,-39.407
12.92,-284.412,-39.041
12.95,-283.534,-38.72
12.98,-282.867,-38.617
13.01,-282.271,-38.662
13.05,-281.709,-38.651
13.08,-280.937,-38.536
13.11,-279.99,-38.262
13.14,-278.902,-37.883
13.18,-277.673,-37.483
13.21,-276.305,-37.139
13.24,-275.076,-37.024
13.27,-273.953,-36.979
13.31,-272.76,-36.864
13.34,-271.497,-36.726
13.37,-270.163,-36.452
13.4,-268.654,-36.062
13.44,-267.11,-35.787
13.47,-265.706,-35.604
13.5,-264.372,-35.455
13.53,-263.004,-35.363
13.57,-261.67,-35.249
13.6,-260.371,-35.1
13.63,-258.968,-34.802
13.66,-257.248,-34.332
13.7,-255.423,-33.977
13.73,-253.844,-33.725
13.76,-252.229,-33.462
13.8,-250.369,-33.187
13.83,-248.404,-32.832
13.86,-246.439,-32.568
13.89,-244.649,-32.339
13.93,-242.719,-32.007
13.96,-240.753,-31.732
13.99,-238.998,-31.652
14.02,-237.384,-31.526
14.06,-235.454,-31.148
14.09,-233.488,-30.873
14.12,-231.874,-30.793
14.15,-230.225,-30.495
14.19,-228.259,-30.082
14.22,-225.978,-29.59
14.25,-224.013,-29.406
14.28,-222.363,-29.315
14.32,-220.468,-29.051
14.35,-218.398,-28.765
14.38,-216.432,-28.559
14.41,-214.537,-28.158
14.45,-212.186,-27.528
14.48,-209.659,-27.012
14.51,-207.202,-26.554
14.54,-204.465,-26.153
14.58,-201.868,-25.912
14.61,-199.586,-25.672
14.64,-197.2,-25.42
14.67,-194.638,-25.019
14.71,-191.971,-24.595
14.74,-189.409,-24.148
14.77,-186.601,-23.621
14.8,-183.759,-23.186
14.84,-181.161,-22.991
14.87,-178.6,-22.659
14.9,-175.757,-22.132
14.93,-172.633,-21.594
14.97,-169.65,-21.113
15.0,-166.562,-20.54
15.03,-163.263,-19.956
15.06,-159.999,-19.532
15.1,-157.262,-19.532
15.13,-154.349,-18.913
15.16,-150.488,-18.031
15.19,-147.084,-17.802
15.23,-143.961,-17.16
15.26,-140.697,-16.84
15.29,-137.643,-16.633
15.32,-134.66,-16.301
15.36,-131.642,-16.061
15.39,-128.799,-15.728
15.42,-125.922,-15.305
15.45,-122.903,-14.801
15.49,-119.675,-14.159
15.52,-116.235,-13.506
15.55,-112.761,-12.933
15.58,-109.392,-12.498
15.62,-106.163,-12.177
15.65,-102.969,-11.799
15.68,-99.706,-11.433
15.71,-96.442,-11.009
15.75,-93.213,-10.516
15.78,-89.774,-9.955
15.81,-86.334,-9.485
15.84,-83.07,-9.073
15.88,-79.701,-8.637
15.91,-76.297,-8.168
15.94,-72.963,-7.813
15.97,-69.664,-7.377
16.01,-66.33,-6.931
16.04,-62.961,-6.461
16.07,-59.592,-5.991
16.11,-56.187,-5.579
16.14,-52.888,-5.144
16.17,-49.519,-4.662
16.2,-46.01,-4.17
16.24,-42.5,-3.608
16.27,-38.85,-3.036
16.3,-35.306,-2.532
16.33,-31.831,-2.085
16.37,-28.532,-1.638
16.4,-25.128,-1.191
16.43,-21.724,-0.733
16.46,-18.214,-0.241
16.5,-14.74,0.355
16.53,-11.055,0.882
16.56,-6.914,1.283
16.59,-2.246,1.501
16.63,1.053,1.89
16.66,3.755,2.463
16.69,6.212,2.967
16.72,8.984,3.494
16.76,12.775,4.044
16.79,16.951,4.513
16.82,20.776,4.834
16.85,23.444,5.235
16.89,24.777,6.026
16.92,25.69,7.183
16.95,27.374,8.397
16.98,29.831,9.737
17.02,33.13,11.158
17.05,37.447,12.326
17.08,42.149,13.254
17.11,46.852,14.022
17.15,51.66,14.583
17.18,56.433,14.892
17.21,60.925,15.098
17.24,65.137,15.202
17.28,69.102,15.305
17.31,72.823,15.408
17.34,76.157,15.454
17.37,79.245,15.58
17.41,82.368,15.889
17.44,85.422,16.164
17.47,88.335,16.519
17.5,91.388,17.0
17.54,94.511,17.47
17.57,97.6,17.882
17.6,100.758,18.363
17.63,103.952,18.867
17.67,107.356,19.429
17.7,110.866,20.059
17.73,114.445,20.643
17.76,118.06,21.239
17.8,121.64,21.697
17.83,125.044,22.052
17.86,128.448,22.487
17.89,131.958,22.968
17.93,135.432,23.461
17.96,138.731,23.828
17.99,142.101,24.389
18.02,145.54,24.778
18.06,148.488,24.916
18.09,151.331,25.168
18.12,154.173,25.477
18.15,157.191,25.844
18.19,160.069,26.245
18.22,162.947,26.737
18.25,166.0,27.253
18.29,169.089,27.688
18.32,171.896,27.986
18.35,174.599,28.226
18.38,177.231,28.387
18.42,179.758,28.593
18.45,182.39,29.005
18.48,185.197,29.487
18.51,187.9,29.91
18.55,190.462,30.266
18.58,193.024,30.529
18.61,195.48,30.712
18.64,197.726,30.838
18.68,199.867,31.067
18.71,202.184,31.457
18.74,204.57,31.778
18.77,207.027,32.03
18.81,209.273,32.293
18.84,211.273,32.511
18.87,212.993,32.557
18.9,214.818,32.66
18.94,216.818,32.923
18.97,218.924,33.324
19.0,220.889,33.668
19.03,222.89,34.034
19.07,225.101,34.481
19.1,227.347,34.722
19.13,229.137,34.733
19.16,230.891,34.985
19.2,233.102,35.34
19.23,235.208,35.615
19.26,237.033,35.821
19.29,238.788,36.028
19.33,240.964,36.394
19.36,243.105,36.658
19.39,244.859,36.772
19.42,246.263,36.715
19.46,247.948,37.001
19.49,250.089,37.368
19.52,251.878,37.505
19.55,253.212,37.62
19.59,254.791,37.861
19.62,256.546,37.929
19.65,257.809,37.861
19.68,258.897,37.964
19.72,260.301,38.17
19.75,261.775,38.353
19.78,263.179,38.617
19.81,264.442,38.8
19.85,265.741,38.903
19.88,266.969,39.029
19.91,268.233,39.098
19.94,269.531,39.293
19.98,270.83,39.522
20.01,272.304,39.774
20.04,273.672,40.014
20.07,275.111,40.22
20.11,276.445,40.404
20.14,277.779,40.461
20.17,278.937,40.461
20.2,279.955,40.484
20.24,280.972,40.45
20.27,281.85,40.484
20.3,282.797,40.644
20.33,283.815,40.747
20.37,284.622,40.782
20.4,285.184,40.702
20.43,285.71,40.564
20.46,286.026,40.392
20.5,286.166,40.243
20.53,286.342,40.243
20.56,287.044,40.713
20.6,287.781,40.885
20.63,287.956,40.702
20.66,288.272,40.931
20.69,288.799,40.77
20.73,289.009,40.679
20.76,288.974,40.518
20.79,289.009,40.472
20.82,289.325,40.644
20.86,289.641,40.69
20.89,289.676,40.69
20.92,289.606,40.61
20.95,289.465,40.381
20.99,289.114,40.094
21.02,288.553,39.819
21.05,288.097,39.728
21.08,287.921,39.831
21.12,287.675,39.877
21.15,287.219,39.808
21.18,286.658,39.59
21.21,285.921,39.258
21.25,285.043,38.937
21.28,284.131,38.685
21.31,283.359,38.64
21.34,282.797,38.766
21.38,282.271,38.788
21.41,281.499,38.605
21.44,280.446,38.284
21.47,279.323,37.815
21.51,277.954,37.357
21.54,276.48,36.99
21.57,275.006,36.761
21.6,273.708,36.692
21.64,272.339,36.589
21.67,270.97,36.486
21.7,269.707,36.303
21.73,268.338,36.005
21.77,266.829,35.73
21.8,265.425,35.535
21.83,264.056,35.398
21.86,262.653,35.203
21.9,261.249,35.077
21.93,259.915,34.939
21.96,258.582,34.722
21.99,256.967,34.332
22.03,255.212,33.92
22.06,253.493,33.645
22.09,251.949,33.427
22.12,249.948,33.015
22.16,247.983,32.751
22.19,246.298,32.614
22.22,244.473,32.259
22.25,242.087,31.629
22.29,239.876,31.457
22.32,238.472,31.606
22.35,237.033,31.491
22.38,235.138,31.274
22.42,233.488,31.285
22.45,232.401,31.262
22.48,230.927,30.873
22.51,228.856,30.392
22.55,226.891,29.991
22.58,224.925,29.544
22.61,222.749,29.086
22.64,220.433,28.731
22.68,218.187,28.433
22.71,216.011,28.158
22.74,213.625,27.745
22.77,211.098,27.264
22.81,208.711,26.829
22.84,206.079,26.508
22.87,203.517,26.256
22.91,201.447,26.107
22.94,199.411,25.97
22.97,197.27,25.695
23.0,194.814,25.237
23.04,192.216,24.733
23.07,189.865,24.274
23.1,187.163,23.679
23.13,184.18,23.175
23.17,181.477,22.911
23.2,178.88,22.567
23.23,176.003,22.04
23.26,172.809,21.468
23.3,169.756,21.009
23.33,166.772,20.528
23.36,163.509,19.933
23.39,160.315,19.623
23.43,157.297,19.222
23.46,154.349,18.936
23.49,151.471,18.627
23.52,148.312,18.031
23.56,144.908,17.458
23.59,141.609,16.989
23.62,138.521,16.576
23.65,135.362,16.244
23.69,132.344,15.969
23.72,129.361,15.648
23.75,126.343,15.236
23.78,123.184,14.789
23.82,119.991,14.193
23.85,116.586,13.598
23.88,113.147,13.025
23.91,109.743,12.578
23.95,106.549,12.292
23.98,103.426,11.96
24.01,100.232,11.547
24.04,96.898,11.112
24.08,93.564,10.596
24.11,90.195,10.092
24.14,86.861,9.611
24.17,83.562,9.21
24.21,80.193,8.809
24.24,76.894,8.34
24.27,73.454,7.87
24.3,70.05,7.412
24.34,66.681,6.942
24.37,63.206,6.507
24.4,59.837,6.083
24.43,56.503,5.682
24.47,53.204,5.258
24.5,49.8,4.8
24.53,46.431,4.353
24.56,43.027,3.849
24.6,39.342,3.219
24.63,35.446,2.463
24.66,31.445,1.787
24.69,27.62,1.203
24.73,23.935,0.676
24.76,20.355,0.286
24.79,16.846,0.011
24.82,13.757,-0.344
24.86,10.493,-0.642
24.89,7.124,-0.836
24.92,3.229,-1.031
24.95,0.07,-1.398
24.99,-2.316,-2.016
25.02,-4.808,-2.589
25.05,-7.545,-3.276
25.08,-11.441,-3.941
25.12,-16.284,-4.445
25.15,-21.022,-4.639
25.18,-24.216,-4.846
25.22,-25.76,-5.476
25.25,-26.567,-6.656
25.28,-27.971,-7.973
25.31,-30.287,-9.279
25.35,-33.516,-10.677
25.38,-37.411,-11.994
25.41,-41.939,-13.002
25.44,-46.642,-13.758
25.48,-51.379,-14.377
25.51,-56.117,-14.801
25.54,-60.68,-15.007
25.57,-64.786,-15.133
25.61,-68.681,-15.213
25.64,-72.296,-15.339
25.67,-75.735,-15.454
25.7,-78.859,-15.602
25.74,-81.982,-15.912
25.77,-85.071,-16.267
25.8,-88.229,-16.645
25.83,-91.318,-17.115
25.87,-94.722,-17.825
25.9,-98.267,-18.329
25.93,-101.53,-18.684
25.96,-104.759,-19.199
26.0,-108.409,-19.726
26.03,-111.884,-20.127
26.06,-115.288,-20.62
26.09,-118.657,-21.078
26.13,-122.026,-21.433
26.16,-125.079,-21.697
26.19,-128.273,-22.247
26.22,-131.642,-22.625
26.26,-134.906,-23.106
26.29,-138.31,-23.713
26.32,-141.644,-24.183
26.35,-144.943,-24.595
26.39,-147.891,-24.721
26.42,-150.594,-24.939
26.45,-153.612,-25.328
26.48,-156.525,-25.615
26.52,-159.262,-26.027
26.55,-162.245,-26.634
26.58,-165.474,-27.23
26.61,-168.597,-27.665
26.65,-171.475,-28.043
26.68,-174.423,-28.387
26.71,-177.336,-28.65
26.74,-180.003,-28.845
26.78,-182.671,-29.223
26.81,-185.619,-29.693
26.84,-188.496,-30.082
26.87,-191.058,-30.392
26.91,-193.585,-30.621
26.94,-195.972,-30.701
26.97,-198.148,-30.793
27.0,-200.183,-31.022
27.04,-202.394,-31.423
27.07,-204.956,-31.858
27.1,-207.518,-32.213
27.13,-209.834,-32.499
27.17,-211.835,-32.763
27.2,-213.87,-32.992
27.23,-216.011,-33.129
27.26,-218.222,-33.381
27.3,-220.293,-33.633
27.33,-222.188,-33.828
27.36,-224.118,-34.069
27.39,-226.189,-34.309
27.43,-227.979,-34.447
27.46,-229.733,-34.653
27.49,-231.383,-34.722
27.53,-233.243,-35.1
27.56,-235.524,-35.615
27.59,-237.524,-35.902
27.62,-239.244,-36.016
27.66,-240.964,-36.177
27.69,-242.999,-36.452
27.72,-245.035,-36.738
27.75,-246.79,-36.933
27.79,-248.685,-37.299
27.82,-250.861,-37.666
27.85,-252.861,-37.849
27.88,-254.756,-38.136
27.92,-257.213,-38.834
27.95,-260.091,-39.441
27.98,-262.442,-39.682
28.01,-264.337,-39.716
28.05,-266.197,-39.636
28.08,-268.022,-39.602
28.11,-269.812,-39.659
28.14,-271.286,-39.785
28.18,-272.725,-39.923
28.21,-274.059,-39.888
28.24,-275.006,-39.819
28.27,-276.059,-39.854
28.31,-277.147,-39.991
28.34,-278.27,-40.175
28.37,-279.358,-40.369
28.4,-280.481,-40.576
28.44,-281.604,-40.747
28.47,-282.622,-40.747
28.5,-283.359,-40.69
28.53,-284.096,-40.644
28.57,-284.903,-40.667
28.6,-285.675,-40.736
28.63,-286.342,-40.816
28.66,-286.974,-40.919
28.7,-287.465,-40.828
28.73,-287.711,-40.587
28.76,-287.64,-40.392
28.79,-287.711,-40.243
28.83,-287.816,-40.232
28.86,-288.026,-40.392
28.89,-288.377,-40.679
28.92,-288.799,-40.828
28.96,-288.974,-40.747
28.99,-289.044,-40.644
29.02,-289.22,-40.541
29.05,-289.29,-40.392
29.09,-289.149,-40.312
29.12,-289.325,-40.507
29.15,-289.851,-40.782
29.18,-290.062,-40.77
29.22,-289.886,-40.587
29.25,-289.606,-40.243
29.28,-289.255,-39.923
29.31,-288.693,-39.625
29.35,-288.097,-39.464
29.38,-287.675,-39.625
29.41,-287.64,-39.854
29.44,-287.465,-39.9
29.48,-286.903,-39.659
29.51,-286.096,-39.293
29.54,-285.324,-38.903
29.57,-284.447,-38.617
29.61,-283.64,-38.525
29.64,-283.008,-38.628
29.67,-282.516,-38.8
29.71,-282.06,-38.811
29.74,-281.183,-38.525
29.77,-280.025,-38.044
29.8,-278.761,-37.563
29.84,-277.463,-37.196
29.87,-275.989,-36.933
29.9,-274.69,-36.841
29.93,-273.637,-36.956
29.97,-272.725,-36.967
30.0,-271.286,-36.589
30.03,-269.531,-36.062
30.06,-267.706,-35.569
30.1,-266.057,-35.226
30.13,-264.442,-35.02
30.16,-262.863,-34.985
30.19,-261.389,-34.985
30.23,-260.056,-34.871
30.26,-258.617,-34.71
30.29,-257.037,-34.39
30.32,-255.353,-34.092
30.36,-252.756,-32.877
30.39,-245.807,-28.49
30.42,-235.489,-24.309
30.45,-227.979,-23.553
30.49,-224.223,-24.343
30.52,-220.117,-24.904
30.55,-215.485,-26.29
30.58,-213.905,-28.593
30.62,-215.625,-30.941
30.65,-218.433,-33.072
30.68,-221.31,-34.985
30.71,-224.96,-36.28
30.75,-228.786,-36.532
30.78,-231.839,-36.177
30.81,-233.839,-35.375
30.84,-234.401,-33.805
30.88,-233.208,-32.018
30.91,-231.453,-30.701
30.94,-229.312,-29.567
30.97,-226.189,-28.398
31.01,-222.574,-27.631
31.04,-219.38,-27.253
31.07,-216.222,-26.772
31.1,-212.747,-26.325
31.14,-209.589,-26.107
31.17,-206.781,-25.993
31.2,-204.044,-25.912
31.23,-201.552,-25.855
31.27,-199.236,-25.706
31.3,-196.989,-25.523
31.33,-194.673,-25.145
31.36,-192.146,-24.664
31.4,-189.584,-24.217
31.43,-187.163,-23.862
31.46,-184.741,-23.576
31.49,-182.355,-23.381
31.53,-179.933,-22.98
31.56,-177.231,-22.464
31.59,-174.283,-21.857
31.62,-171.194,-21.193
31.66,-167.825,-20.391
31.69,-164.0,-19.497
31.72,-159.999,-18.821
31.75,-156.384,-18.432
31.79,-152.84,-17.997
31.82,-149.12,-17.584
31.85,-145.54,-17.252
31.88,-142.171,-16.863
31.92,-138.872,-16.553
31.95,-135.678,-16.244
31.98,-132.66,-16.038
32.02,-129.958,-15.912
32.05,-127.325,-15.671
32.08,-124.658,-15.396
32.11,-121.991,-15.018
32.15,-119.113,-14.434
32.18,-115.99,-13.792
32.21,-112.866,-13.3
32.24,-109.883,-12.933
32.28,-106.935,-12.521
32.31,-103.812,-12.074
32.34,-100.653,-11.719
32.37,-97.67,-11.307
32.41,-94.406,-10.722
32.44,-90.932,-10.127
32.47,-87.598,-9.668
32.5,-84.334,-9.313
32.54,-81.14,-8.855
32.57,-77.806,-8.408
32.6,-74.577,-8.111
32.63,-71.384,-7.698
32.67,-67.944,-7.08
32.7,-64.47,-6.518
32.73,-60.925,-6.06
32.76,-57.556,-5.613
32.8,-54.152,-5.144
32.83,-50.572,-4.662
32.86,-47.133,-4.273
32.89,-43.729,-3.792
32.93,-40.114,-3.139
32.96,-36.394,-2.532
32.99,-32.639,-2.039
33.02,-29.234,-1.581
33.06,-25.83,-1.111
33.09,-22.426,-0.619
33.12,-18.881,-0.206
33.15,-15.547,0.275
33.19,-12.178,0.825
33.22,-8.423,1.18
33.25,-3.896,1.409
33.28,-0.07,1.707
33.32,2.667,2.199
33.35,5.194,2.681
33.38,7.826,3.322
33.41,11.546,4.009
33.45,15.968,4.502
33.48,20.531,4.995
33.51,23.865,5.43
33.54,25.409,6.083
33.58,26.251,7.251
33.61,28.111,8.58
33.64,30.814,9.84
33.67,34.218,11.089
33.71,38.359,12.269
33.74,42.921,13.14
33.77,47.343,13.758
33.8,51.836,14.239
33.84,56.293,14.571
33.87,60.68,14.812
33.9,64.786,14.961
33.93,68.576,15.087
33.97,72.191,15.224
34.0,75.525,15.316
34.03,78.508,15.396
34.06,81.456,15.671
34.1,84.685,16.152
34.13,87.878,16.611
34.16,91.002,16.989
34.19,94.02,17.378
34.23,97.144,17.813
34.26,100.302,18.226
34.29,103.426,18.604
34.33,106.409,19.028
34.36,109.743,19.669
34.39,113.358,20.299
34.42,116.762,20.78
34.46,120.061,21.25
34.49,123.465,21.754
34.52,127.01,22.247
34.55,130.449,22.739
34.59,133.923,23.22
34.62,137.363,23.736
34.65,140.942,24.263
34.68,144.452,24.733
34.72,147.681,24.95
34.75,150.383,24.95
34.78,153.05,25.191
34.81,156.104,25.626
34.85,159.157,26.05
34.88,162.0,26.543
34.91,164.948,27.127
34.94,168.106,27.608
34.98,171.124,27.94
35.01,174.002,28.261
35.04,176.81,28.513
35.07,179.547,28.708
35.11,182.214,29.097
35.14,185.057,29.544
35.17,187.9,29.876
35.2,190.427,30.174
35.24,192.918,30.426
35.27,195.305,30.575
35.3,197.551,30.689
35.33,199.657,30.907
35.37,201.797,31.262
35.4,204.184,31.606
35.43,206.676,31.892
35.46,208.992,32.179
35.5,210.957,32.476
35.53,212.782,32.591
35.56,214.748,32.751
35.59,216.888,33.049
35.63,219.17,33.45
35.66,221.346,33.794
35.69,223.416,34.103
35.72,225.697,34.504
35.76,228.014,34.825
35.79,229.944,34.813
35.82,231.664,34.974
35.85,233.699,35.317
35.89,235.945,35.627
35.92,237.946,35.902
35.95,239.806,36.154
35.98,241.771,36.406
36.02,243.736,36.532
36.05,245.21,36.429
36.08,246.79,36.715
36.11,248.755,37.001
36.15,250.369,37.036
36.18,251.457,37.001
36.21,252.861,37.322
36.24,254.791,37.631
36.28,256.195,37.62
36.31,257.248,37.735
36.34,258.687,37.987
36.37,260.336,38.17
36.41,261.775,38.342
36.44,263.179,38.674
36.47,264.618,38.823
36.5,265.916,38.857
36.54,267.215,39.018
36.57,268.443,39.086
36.6,269.777,39.224
36.64,271.075,39.464
36.67,272.514,39.705
36.7,273.813,39.911
36.73,275.217,40.106
36.77,276.515,40.255
36.8,277.884,40.312
36.83,278.937,40.312
36.86,279.99,40.392
36.9,281.113,40.461
36.93,282.13,40.553
36.96,283.148,40.736
36.99,284.271,40.896
37.03,285.184,40.942
37.06,285.886,40.873
37.09,286.412,40.724
37.12,286.938,40.656
37.16,286.974,40.129
37.19,286.833,40.014
37.22,287.395,40.392
37.25,287.991,40.507
37.29,288.097,40.53
37.32,288.307,40.724
37.35,288.939,40.828
37.38,289.325,40.736
37.42,289.29,40.484
37.45,289.255,40.45
37.48,289.676,40.541
37.51,289.922,40.53
37.55,289.851,40.507
37.58,289.816,40.415
37.61,289.5,40.106
37.64,288.904,39.739
37.68,288.272,39.464
37.71,287.781,39.419
37.74,287.535,39.59
37.77,287.395,39.751
37.81,287.079,39.842
37.84,286.763,39.751
37.87,286.272,39.487
37.9,285.64,39.167
37.94,284.798,38.869
37.97,283.955,38.685
38.0,283.324,38.651
38.03,282.692,38.571
38.07,281.709,38.365
38.1,280.586,38.055
38.13,279.358,37.654
38.16,277.954,37.288
38.2,276.48,36.99
38.23,275.076,36.772
38.26,273.778,36.715
38.29,272.585,36.681
38.33,271.461,36.658
38.36,270.233,36.463
38.39,268.794,36.062
38.42,267.215,35.673
38.46,265.706,35.421
38.49,264.232,35.191
38.52,262.653,34.939
38.55,261.003,34.733
38.59,259.459,34.55
38.62,257.88,34.264
38.65,256.02,33.874
38.68,254.124,33.565
38.72,252.51,33.416
38.75,250.931,33.267
38.78,249.211,33.061
38.81,247.562,32.912
38.85,246.193,32.889
38.88,244.894,32.751
38.91,243.315,32.488
38.95,241.525,32.041
38.98,239.7,31.709
39.01,238.051,31.468
39.04,236.296,31.136
39.08,234.225,30.724
39.11,232.05,30.323
39.14,229.768,29.888
39.17,227.382,29.395
39.21,224.995,29.074
39.24,222.784,28.857
39.27,220.573,28.616
39.3,218.327,28.421
39.34,216.362,28.284
39.37,214.502,28.204
39.4,212.677,28.009
39.43,210.677,27.528
39.47,208.395,27.127
39.5,205.939,26.737
39.53,204.044,26.749
39.56,202.71,26.703
39.6,200.885,26.451
39.63,198.358,25.855
39.66,195.761,25.282
39.69,193.41,24.71
39.73,190.918,24.263
39.76,187.83,23.369
39.79,184.285,22.842
39.82,181.758,22.854
39.86,179.442,22.533
39.89,176.389,22.018
39.92,173.125,21.582
39.95,170.247,21.124
39.99,167.159,20.402
40.02,164.105,20.185
40.05,161.298,19.921
40.08,158.244,19.406
40.12,155.226,19.131
40.15,152.383,18.799
40.18,149.225,18.042
40.21,145.47,17.195
40.25,141.75,16.588
40.28,138.275,16.084
40.31,134.836,15.614
40.34,131.361,15.385
40.38,128.238,15.202
40.41,125.15,14.915
40.44,122.096,14.571
40.47,119.008,14.102
40.51,115.744,13.563
40.54,112.34,13.036
40.57,109.146,12.601
40.6,106.023,12.303
40.64,103.04,11.948
40.67,99.881,11.559
40.7,96.722,11.146
40.73,93.494,10.631
40.77,90.16,10.081
40.8,86.79,9.577
40.83,83.492,9.187
40.86,80.403,8.89
40.9,77.35,8.557
40.93,74.156,8.133
40.96,70.822,7.584
40.99,67.348,7.011
41.03,63.803,6.461
41.06,60.223,5.923
41.09,56.679,5.407
41.13,53.064,4.926
41.16,49.519,4.468
41.19,45.975,4.044
41.22,42.465,3.574
41.26,38.85,3.036
41.29,35.13,2.429
41.32,31.375,1.856
41.35,27.655,1.375
41.39,24.146,0.916
41.42,20.776,0.561
41.45,17.513,0.332
41.48,14.565,0.011
41.52,11.652,-0.424
41.55,8.458,-0.607
41.58,4.878,-0.825
41.61,1.299,-1.134
41.65,-1.193,-1.684
41.68,-3.58,-2.245
41.71,-6.071,-3.036
41.74,-9.862,-4.25
41.78,-15.337,-5.086
41.81,-21.057,-5.464
41.84,-25.233,-5.911
41.87,-27.304,-6.713
41.91,-28.146,-7.778
41.94,-29.796,-8.867
41.97,-32.674,-9.989
42.0,-36.288,-11.146
42.04,-40.219,-12.051
42.07,-44.115,-12.693
42.1,-48.116,-13.22
42.13,-52.432,-13.873
42.17,-56.854,-14.297
42.2,-60.925,-14.48
42.23,-64.645,-14.652
42.26,-68.225,-14.801
42.3,-71.559,-14.823
42.33,-74.753,-15.098
42.36,-78.017,-15.431
42.39,-81.21,-15.74
42.43,-84.369,-16.244
42.46,-87.984,-16.989
42.49,-91.599,-17.516
42.52,-94.862,-17.825
42.56,-98.021,-18.203
42.59,-101.355,-18.581
42.62,-104.619,-18.856
42.65,-107.637,-19.188
42.69,-110.655,-19.566
42.72,-113.814,-20.116
42.75,-117.113,-20.574
42.78,-120.201,-20.918
42.82,-123.395,-21.536
42.85,-126.799,-22.018
42.88,-130.098,-22.43
42.91,-133.502,-23.106
42.95,-137.187,-23.828
42.98,-140.907,-24.354
43.01,-144.382,-24.801
43.04,-147.575,-24.95
43.08,-150.558,-25.133
43.11,-153.822,-25.534
43.14,-157.051,-25.924
43.17,-160.034,-26.325
43.21,-163.123,-26.863
43.24,-166.176,-27.31
43.27,-169.229,-27.654
43.3,-172.177,-28.009
43.34,-175.125,-28.318
43.37,-177.898,-28.559
43.4,-180.53,-28.776
43.44,-183.197,-29.177
43.47,-186.11,-29.67
43.5,-188.988,-30.059
43.53,-191.515,-30.334
43.57,-194.041,-30.586
43.6,-196.533,-30.747
43.63,-198.849,-30.884
43.66,-200.885,-31.067
43.7,-202.921,-31.377
43.73,-205.412,-31.64
43.76,-207.799,-31.881
43.79,-209.799,-32.19
43.83,-211.554,-32.385
43.86,-213.414,-32.534
43.89,-215.344,-32.671
43.92,-217.274,-32.958
43.96,-219.24,-33.255
43.99,-221.065,-33.53
44.02,-222.995,-33.828
44.05,-225.031,-34.149
44.09,-227.031,-34.39
44.12,-228.961,-34.664
44.15,-231.032,-34.974
44.18,-233.243,-35.272
44.22,-235.454,-35.776
44.25,-238.226,-36.486
44.28,-241.069,-37.127
44.31,-243.912,-37.677
44.35,-246.614,-37.941
44.38,-249.071,-37.998
44.41,-251.247,-37.906
44.44,-253.072,-37.723
44.48,-254.405,-37.391
44.51,-255.318,-37.082
44.54,-256.09,-36.887
44.57,-256.897,-36.91
44.61,-257.634,-36.91
44.64,-257.915,-36.761
44.67,-258.301,-36.807
44.7,-259.073,-37.082
44.74,-260.126,-37.46
44.77,-261.249,-37.861
44.8,-262.547,-38.284
44.83,-263.811,-38.502
44.87,-264.864,-38.525
44.9,-265.987,-38.628
44.93,-267.215,-38.72
44.96,-268.233,-38.72
45.0,-269.11,-38.788
45.03,-270.093,-38.949
45.06,-271.251,-39.109
45.09,-272.339,-39.304
45.13,-273.357,-39.487
45.16,-274.409,-39.625
45.19,-275.497,-39.762
45.22,-276.62,-39.923
45.26,-277.849,-40.129
45.29,-279.147,-40.45
45.32,-280.621,-40.759
45.35,-281.99,-40.988
45.39,-283.324,-41.103
45.42,-284.482,-41.148
45.45,-285.64,-41.217
45.48,-286.272,-40.702
45.52,-286.447,-40.45
45.55,-287.044,-40.53
45.58,-287.57,-40.461
45.61,-287.851,-40.564
45.65,-288.377,-40.805
45.68,-289.36,-41.24
45.71,-289.781,-40.942
45.75,-289.044,-40.117
45.78,-288.448,-39.842
45.81,-288.658,-39.923
45.84,-288.553,-39.682
45.88,-287.535,-39.464
45.91,-286.903,-39.533
45.94,-286.903,-39.625
45.97,-286.623,-39.556
46.01,-286.096,-39.487
46.04,-285.745,-39.522
46.07,-285.71,-39.613
46.1,-285.675,-39.682
46.14,-285.675,-39.785
46.17,-285.64,-39.728
46.2,-285.184,-39.407
46.23,-284.482,-39.041
46.27,-283.85,-38.777
46.3,-283.183,-38.594
46.33,-282.481,-38.456
46.36,-281.604,-38.33
46.4,-280.832,-38.284
46.43,-280.2,-38.17
46.46,-279.253,-37.964
46.49,-278.2,-37.712
46.53,-277.007,-37.357
46.56,-275.813,-37.047
46.59,-274.445,-36.772
46.62,-273.006,-36.497
46.66,-271.602,-36.257
46.69,-270.128,-36.039
46.72,-268.443,-35.695
46.75,-266.724,-35.363
46.79,-265.039,-35.134
46.82,-263.46,-34.905
46.85,-261.705,-34.699
46.88,-260.196,-34.584
46.92,-258.687,-34.504
46.95,-256.967,-34.08
46.98,-254.475,-33.221
47.01,-251.878,-32.694
47.05,-249.983,-32.591
47.08,-248.404,-32.545
47.11,-246.614,-32.568
47.14,-245.175,-32.866
47.18,-244.719,-33.519
47.21,-244.684,-33.931
47.24,-244.157,-33.817
47.27,-243.069,-33.45
47.31,-242.578,-33.381
47.34,-242.157,-33.118
47.37,-240.683,-32.27
47.4,-238.191,-31.319
47.44,-235.77,-30.518
47.47,-233.313,-29.83
47.5,-230.505,-29.2
47.53,-227.417,-28.719
47.57,-224.469,-28.398
47.6,-221.802,-28.169
47.63,-219.24,-28.009
47.66,-216.888,-27.929
47.7,-214.677,-27.837
47.73,-212.537,-27.619
47.76,-210.466,-27.333
47.79,-208.29,-27.024
47.83,-205.763,-26.657
47.86,-203.517,-26.405
47.89,-201.657,-26.176
47.92,-199.446,-25.718
47.96,-196.989,-25.477
47.99,-194.743,-25.191
48.02,-192.287,-24.561
48.06,-189.619,-24.114
48.09,-187.057,-23.713
48.12,-184.285,-23.106
48.15,-181.407,-22.797
48.19,-178.88,-22.522
48.22,-175.967,-21.949
48.25,-172.774,-21.307
48.28,-169.545,-20.815
48.32,-166.457,-20.322
48.35,-163.158,-19.704
48.38,-159.859,-19.371
48.41,-156.981,-19.211
48.45,-154.454,-19.199
48.48,-151.611,-18.776
48.51,-148.453,-18.26
48.54,-145.084,-17.493
48.58,-142.136,-17.309
48.61,-139.609,-17.0
48.64,-136.31,-16.244
48.67,-132.87,-15.877
48.71,-129.782,-15.488
48.74,-126.659,-14.938
48.77,-123.254,-14.457
48.8,-119.78,-13.918
48.84,-116.235,-13.254
48.87,-112.48,-12.635
48.9,-108.9,-12.212
48.93,-105.602,-11.96
48.97,-102.338,-11.582
49.0,-98.863,-11.146
49.03,-95.494,-10.803
49.06,-92.371,-10.482
49.1,-89.212,-10.012
49.13,-85.808,-9.508
49.16,-82.439,-9.084
49.19,-79.315,-8.752
49.23,-76.122,-8.282
49.26,-72.752,-7.767
49.29,-69.453,-7.377
49.32,-66.19,-6.954
49.36,-62.785,-6.369
49.39,-59.1,-5.728
49.42,-55.486,-5.247
49.45,-52.046,-4.892
49.49,-48.677,-4.479
49.52,-45.273,-4.078
49.55,-41.939,-3.712
49.58,-38.57,-3.219
49.62,-35.095,-2.6
49.65,-31.48,-2.073
49.68,-28.076,-1.65
49.71,-24.777,-1.191
49.75,-21.408,-0.687
49.78,-17.969,-0.298
49.81,-14.81,0.229
49.84,-11.476,0.905
49.88,-7.405,1.386
49.91,-2.737,1.558
49.94,0.772,1.856
49.97,3.439,2.383
50.01,6.071,2.944
50.04,9.055,3.46
50.07,13.091,4.055
50.1,17.688,4.571
50.14,21.899,4.846
50.17,24.602,5.212
50.2,25.865,6.014
50.24,26.672,7.148
50.27,28.217,8.42
50.3,30.884,9.84
50.33,34.393,11.192
50.37,38.499,12.28
50.4,42.992,13.117
50.43,47.519,13.804
50.46,52.187,14.308
50.5,56.784,14.709
50.53,61.346,15.03
50.56,65.453,15.156
50.59,69.208,15.087
50.63,72.472,15.064
50.66,75.63,15.133
50.69,78.613,15.236
50.72,81.491,15.534
50.76,84.544,16.061
50.79,87.773,16.576
50.82,91.002,17.011
50.85,93.985,17.435
50.89,97.038,17.733
50.92,100.127,18.146
50.95,103.355,18.684
50.98,106.619,19.131
51.02,109.848,19.704
51.05,113.498,20.414
51.08,116.902,20.746
51.11,120.096,21.181
51.15,123.395,21.525
51.18,126.974,22.27
51.21,130.73,22.739
51.24,134.064,23.209
51.28,137.679,23.954
51.31,141.574,24.423
51.34,145.189,24.962
51.37,148.593,25.271
51.41,151.471,25.191
51.44,154.208,25.374
51.47,157.367,25.798
51.5,160.455,26.21
51.54,163.333,26.669
51.57,166.211,27.173
51.6,169.194,27.562
51.63,172.037,27.837
51.67,174.669,28.078
51.7,177.266,28.284
51.73,179.933,28.65
51.76,182.776,29.131
51.8,185.513,29.452
51.83,187.97,29.75
51.86,190.427,29.979
51.89,192.848,30.231
51.93,195.27,30.426
51.96,197.446,30.655
51.99,199.586,30.907
52.02,201.692,31.216
52.06,204.008,31.594
52.09,206.57,31.892
52.12,208.852,32.087
52.15,210.677,32.27
52.19,212.396,32.373
52.22,214.326,32.591
52.25,216.537,32.889
52.28,218.608,33.278
52.32,220.679,33.611
52.35,222.714,33.886
52.38,224.925,34.275
52.41,227.206,34.596
52.45,229.137,34.676
52.48,230.856,34.836
52.51,232.857,35.111
52.55,234.927,35.352
52.58,236.787,35.501
52.61,238.472,35.65
52.64,240.508,36.131
52.68,242.859,36.509
52.71,244.649,36.566
52.74,246.123,36.669
52.77,247.842,36.83
52.81,249.702,36.967
52.84,251.352,37.093
52.87,252.896,37.379
52.9,254.581,37.712
52.94,256.265,37.803
52.97,257.669,37.838
53.0,259.073,38.021
53.03,260.687,38.216
53.07,262.161,38.399
53.1,263.635,38.674
53.13,265.074,38.8
53.16,266.373,38.846
53.2,267.566,38.926
53.23,268.829,38.983
53.26,269.987,39.075
53.29,271.181,39.212
53.33,272.269,39.396
53.36,273.602,39.671
53.39,274.971,39.945
53.42,276.234,40.083
53.46,277.428,40.186
53.49,278.481,40.22
53.52,279.533,40.255
53.55,280.551,40.243
53.59,281.464,40.312
53.62,282.516,40.53
53.65,283.569,40.667
53.68,284.447,40.713
53.72,285.078,40.656
53.75,285.64,40.507
53.78,286.026,40.358
53.81,286.201,40.129
53.85,286.377,40.129
53.88,286.763,40.22
53.91,287.43,40.69
53.94,288.237,40.885
53.98,288.553,40.839
54.01,288.693,40.644
54.04,289.185,40.736
54.07,289.606,40.621
54.11,289.465,40.278
54.14,289.36,40.358
54.17,289.746,40.518
54.2,290.027,40.518
54.24,289.816,40.289
54.27,289.22,39.957
54.3,288.834,39.705
54.33,288.342,39.419
54.37,287.675,39.293
54.4,287.289,39.476
54.43,287.219,39.659
54.46,286.938,39.659
54.5,286.377,39.453
54.53,285.71,39.178
54.56,285.043,38.88
54.59,284.236,38.628
54.63,283.499,38.548
54.66,282.973,38.662
54.69,282.481,38.662
54.72,281.674,38.479
54.76,280.586,38.124
54.79,279.498,37.689
54.82,278.094,37.208
54.86,276.41,36.715
54.89,274.69,36.371
54.92,273.111,36.245
54.95,271.567,36.039
54.99,269.882,35.81
55.02,268.233,35.638
55.05,266.653,35.421
55.08,265.039,35.191
55.12,263.425,34.962
55.15,261.81,34.802
55.18,260.336,34.71
55.21,259.108,34.745
55.25,258.16,34.848
55.28,257.037,34.722
55.31,255.704,34.447
55.34,254.37,34.183
55.38,253.072,33.886
55.41,251.598,33.542
55.44,249.983,33.267
55.47,248.439,33.061
55.51,247.141,33.003
55.54,245.842,32.9
55.57,244.228,32.534
55.6,242.157,31.984
55.64,240.192,31.526
55.67,238.191,31.079
55.7,235.98,30.667
55.73,233.664,30.277
55.77,231.664,30.231
55.8,229.839,30.094
55.83,227.382,29.441
55.86,224.609,28.937
55.9,222.433,28.765
55.93,220.679,28.685
55.96,218.643,28.501
55.99,216.467,28.307
56.03,214.783,28.398
56.06,213.519,28.364
56.09,211.624,27.814
56.12,209.343,27.241
56.16,207.097,26.909
56.19,204.745,26.416
56.22,202.289,25.89
56.25,200.008,25.706
56.29,197.762,25.397
56.32,195.164,24.939
56.35,192.638,24.561
56.38,190.076,24.125
56.42,187.373,23.598
56.45,184.496,23.152
56.48,181.758,22.842
56.51,179.126,22.533
56.55,176.283,22.029
56.58,173.125,21.445
56.61,170.036,20.987
56.64,167.018,20.528
56.68,163.86,19.967
56.71,160.596,19.543
56.74,157.753,19.371
56.77,155.086,19.142
56.81,152.103,18.673
56.84,148.804,18.123
56.87,145.505,17.527
56.9,142.206,16.92
56.94,138.802,16.404
56.97,135.397,15.923
57.0,132.098,15.58
57.03,128.905,15.305
57.07,125.992,15.087
57.1,123.465,15.144
57.13,121.114,15.007
57.17,118.446,14.514
57.2,115.428,13.941
57.23,112.515,13.449
57.26,109.602,12.945
57.3,106.444,12.303
57.33,102.794,11.559
57.36,99.039,10.837
57.39,95.248,10.218
57.43,91.528,9.68
57.46,87.738,9.164
57.49,84.018,8.786
57.52,80.473,8.489
57.56,77.139,8.202
57.59,73.84,7.859
57.62,70.261,7.24
57.65,66.505,6.656
57.69,62.856,6.197
57.72,59.451,5.693
57.75,55.801,5.224
57.78,52.292,4.88
57.82,48.993,4.513
57.85,45.483,3.987
57.88,41.869,3.414
57.91,38.254,2.944
57.95,34.814,2.451
57.98,31.34,1.936
58.01,27.901,1.455
58.04,24.496,0.974
58.08,21.092,0.538
58.11,17.723,0.183
58.14,14.67,-0.218
58.17,11.511,-0.699
58.21,7.861,-1.077
58.24,3.65,-1.226
58.27,0.035,-1.65
58.3,-2.808,-2.371
58.34,-5.51,-2.818
58.37,-8.212,-3.345
58.4,-12.038,-3.895
58.43,-16.249,-4.307
58.47,-20.496,-4.731
58.5,-23.409,-5.006
58.53,-24.777,-5.648
58.56,-25.725,-6.873
58.6,-27.585,-8.145
58.63,-30.147,-9.508
58.66,-33.621,-10.929
58.69,-37.376,-12.177
58.73,-41.623,-13.174
58.76,-46.501,-13.918
58.79,-51.414,-14.434
58.82,-56.082,-14.755
58.86,-60.574,-14.961
58.89,-64.61,-15.041
58.92,-68.506,-15.053
58.95,-72.086,-15.156
58.99,-75.42,-15.305
59.02,-78.613,-15.488
59.05,-81.772,-15.832
59.08,-84.93,-16.267
59.12,-88.264,-16.748
59.15,-91.634,-17.206
59.18,-94.792,-17.607
59.21,-97.881,-17.985
59.25,-101.039,-18.363
59.28,-104.338,-18.821
59.31,-107.742,-19.36
59.34,-111.041,-19.852
59.38,-114.375,-20.379
59.41,-117.78,-20.929
59.44,-121.289,-21.388
59.48,-124.728,-21.846
59.51,-128.378,-22.556
59.54,-131.853,-22.865
59.57,-135.011,-23.175
59.61,-138.416,-23.77
59.64,-142.101,-24.32
59.67,-145.364,-24.584
59.7,-148.137,-24.664
59.74,-150.208,-24.32
59.77,-152.489,-24.618
59.8,-155.542,-25.168
59.83,-158.279,-25.638
59.87,-160.876,-26.142
59.9,-163.86,-26.932
59.93,-167.474,-27.722
59.96,-170.879,-28.181
60.0,-174.002,-28.582
60.03,-177.161,-29.005
60.06,-180.249,-29.212
60.09,-183.162,-29.498
60.13,-186.356,-29.945
60.16,-189.549,-30.437
60.19,-192.076,-30.38
60.22,-193.971,-30.22
60.26,-196.112,-30.369
60.29,-198.428,-30.529
60.32,-200.288,-30.678
60.35,-202.113,-31.022
60.39,-204.395,-31.503
60.42,-206.956,-31.812
60.45,-209.132,-32.041
60.48,-210.957,-32.373
60.52,-212.923,-32.602
60.55,-214.923,-32.728
60.58,-217.029,-32.981
60.61,-219.205,-33.393
60.65,-221.486,-33.851
60.68,-223.837,-34.309
60.71,-226.329,-34.836
60.74,-228.996,-35.272
60.78,-231.418,-35.375
60.81,-233.524,-35.569
60.84,-235.98,-36.016
60.87,-238.472,-36.177
60.91,-240.437,-36.257
60.94,-242.192,-36.394
60.97,-243.947,-36.257
61.0,-245.28,-36.074
61.04,-246.404,-35.982
61.07,-247.351,-35.948
61.1,-248.123,-35.81
61.13,-248.86,-35.925
61.17,-250.018,-36.257
61.2,-251.422,-36.658
61.23,-252.826,-37.105
61.26,-254.265,-37.483
61.3,-255.879,-37.792
61.33,-257.599,-38.09
61.36,-259.389,-38.33
61.39,-260.968,-38.514
61.43,-262.653,-38.766
61.46,-264.197,-38.811
61.49,-265.39,-38.697
61.52,-266.478,-38.685
61.56,-267.601,-38.662
61.59,-268.513,-38.651
61.62,-269.356,-38.754
61.66,-270.409,-38.96
61.69,-271.672,-39.315
61.72,-273.041,-39.659
61.75,-274.409,-39.957
61.79,-275.673,-40.129
61.82,-277.042,-40.232
61.85,-278.305,-40.324
61.88,-279.533,-40.427
61.92,-280.762,-40.61
61.95,-282.095,-40.828
61.98,-283.429,-40.942
62.01,-284.517,-40.976
62.05,-285.535,-40.999
62.08,-286.447,-40.919
62.11,-287.044,-40.759
62.14,-287.325,-40.472
62.18,-287.605,-40.358
62.21,-287.781,-40.243
62.24,-287.816,-40.129
62.27,-288.272,-40.633
62.31,-288.974,-40.679
62.34,-289.29,-40.896
62.37,-289.641,-40.724
62.4,-289.044,-40.003
62.44,-288.518,-39.751
62.47,-288.728,-39.945
62.5,-288.763,-39.9
62.53,-288.062,-39.682
62.57,-287.43,-39.648
62.6,-287.36,-39.625
62.63,-287.009,-39.441
62.66,-286.272,-39.293
62.7,-285.851,-39.373
62.73,-285.921,-39.636
62.76,-286.026,-39.785
62.79,-286.026,-39.9
62.83,-285.921,-39.911
62.86,-285.815,-39.693
62.89,-285.429,-39.35
62.92,-284.727,-38.983
62.96,-283.99,-38.766
62.99,-283.394,-38.617
63.02,-282.622,-38.422
63.05,-281.709,-38.273
63.09,-280.692,-38.044
63.12,-279.498,-37.7
63.15,-278.024,-37.265
63.18,-276.41,-36.818
63.22,-275.006,-36.646
63.25,-273.778,-36.612
63.28,-272.514,-36.486
63.31,-271.005,-36.36
63.35,-269.742,-36.28
63.38,-268.478,-36.028
63.41,-267.039,-35.741
63.44,-265.636,-35.524
63.48,-264.372,-35.386
63.51,-263.039,-35.191
63.54,-261.635,-35.008
63.57,-260.266,-34.836
63.61,-258.687,-34.458
63.64,-256.476,-33.611
63.67,-254.3,-33.324
63.7,-253.247,-33.679
63.74,-252.159,-33.588
63.77,-250.159,-33.152
63.8,-248.123,-32.969
63.83,-246.825,-32.82
63.87,-245.316,-32.35
63.9,-243.034,-31.789
63.93,-240.788,-31.491
63.97,-238.998,-31.274
64.0,-237.103,-31.01
64.03,-235.103,-30.884
64.06,-233.453,-30.873
64.1,-232.295,-31.056
64.13,-231.172,-31.125
64.16,-229.628,-30.793
64.19,-227.908,-30.414
64.23,-226.329,-30.059
64.26,-224.399,-29.383
64.29,-221.872,-28.708
64.32,-219.415,-28.284
64.36,-217.064,-27.86
64.39,-214.326,-27.31
64.42,-211.519,-26.84
64.45,-208.887,-26.474
64.49,-206.255,-26.164
64.52,-203.517,-25.958
64.55,-201.236,-25.844
64.58,-199.06,-25.706
64.62,-196.814,-25.5
64.65,-194.498,-25.191
64.68,-192.146,-24.767
64.71,-189.69,-24.309
64.75,-187.057,-23.747
64.78,-184.32,-23.243
64.81,-181.653,-22.923
64.84,-179.091,-22.567
64.88,-176.143,-22.006
64.91,-173.055,-21.468
64.94,-170.036,-20.952
64.97,-166.913,-20.402
65.01,-163.544,-19.795
65.04,-160.175,-19.36
65.07,-157.262,-19.234
65.1,-154.419,-18.89
65.14,-151.19,-18.34
65.17,-147.961,-17.974
65.2,-144.803,-17.458
65.23,-141.504,-16.794
65.27,-138.31,-16.553
65.3,-135.573,-16.427
65.33,-132.73,-16.061
65.36,-129.501,-15.488
65.4,-126.062,-14.858
65.43,-123.289,-14.858
65.46,-120.622,-14.342
65.49,-116.867,-13.38
65.53,-112.621,-12.532
65.56,-108.9,-12.051
65.59,-105.637,-11.719
65.62,-102.338,-11.478
65.66,-99.214,-11.387
65.69,-96.266,-11.249
65.72,-93.353,-10.883
65.75,-90.37,-10.459
65.79,-87.071,-9.772
65.82,-83.527,-9.107
65.85,-80.193,-8.695
65.88,-76.999,-8.294
65.92,-73.77,-7.904
65.95,-70.506,-7.526
65.98,-67.067,-7.011
66.01,-63.522,-6.404
66.05,-59.872,-5.797
66.08,-56.187,-5.258
66.11,-52.467,-4.685
66.14,-48.642,-4.158
66.18,-45.238,-3.975
66.21,-42.079,-3.666
66.24,-38.535,-3.001
66.28,-34.499,-2.303
66.31,-30.708,-1.89
66.34,-27.304,-1.478
66.37,-23.97,-0.997
66.41,-20.531,-0.573
66.44,-17.302,-0.447
66.47,-14.284,0.034
66.5,-10.809,0.928
66.54,-6.107,1.638
66.57,-1.474,1.455
66.6,1.158,1.65
66.63,3.65,2.348
66.67,6.107,2.967
66.7,8.949,3.448
66.73,12.669,3.941
66.76,17.021,4.536
66.8,21.198,4.903
66.83,24.075,5.235
66.86,25.444,5.957
66.89,26.251,7.08
66.93,27.901,8.225
66.96,30.042,9.394
66.99,32.884,10.722
67.02,37.061,11.925
67.06,41.623,12.83
67.09,46.08,13.529
67.12,50.502,14.079
67.15,55.064,14.48
67.19,59.557,14.72
67.22,63.628,14.835
67.25,67.348,14.904
67.28,70.927,15.041
67.32,74.367,15.202
67.35,77.631,15.431
67.38,80.789,15.786
67.41,84.088,16.255
67.45,87.492,16.702
67.48,90.756,17.206
67.51,94.16,17.687
67.54,97.495,18.1
67.58,100.899,18.581
67.61,104.408,19.177
67.64,108.128,19.818
67.67,111.884,20.425
67.71,115.604,20.975
67.74,119.429,21.548
67.77,123.149,21.983
67.8,126.553,22.224
67.84,129.887,22.556
67.87,133.292,23.014
67.9,136.801,23.461
67.93,140.17,23.954
67.97,143.504,24.423
68.0,146.558,24.641
68.03,149.295,24.664
68.06,151.892,24.847
68.1,154.735,25.168
68.13,157.402,25.477
68.16,160.104,26.027
68.19,162.947,26.474
68.23,165.79,26.943
68.26,169.054,27.7
68.29,172.142,27.997
68.32,174.634,28.089
68.36,176.95,28.123
68.39,179.723,28.616
68.42,182.741,29.063
68.45,185.233,29.338
68.49,187.549,29.635
68.52,190.427,30.254
68.55,193.62,30.701
68.59,196.007,30.758
68.62,197.972,30.896
68.65,200.288,31.171
68.68,202.745,31.468
68.72,204.956,31.549
68.75,206.956,31.686
68.78,209.343,32.247
68.81,211.659,32.511
68.85,213.203,32.488
68.88,214.783,32.591
68.91,216.959,32.992
68.94,219.275,33.37
68.98,221.346,33.748
69.01,223.381,34.149
69.04,225.732,34.527
69.07,227.908,34.71
69.11,229.874,34.813
69.14,231.628,34.905
69.17,233.488,35.054
69.2,235.419,35.329
69.24,237.209,35.501
69.27,238.788,35.73
69.3,240.613,36.005
69.33,242.368,36.085
69.37,243.771,36.085
69.4,245.175,36.28
69.43,246.825,36.429
69.46,248.228,36.578
69.5,249.738,36.864
69.53,251.457,37.208
69.56,253.247,37.586
69.59,255.142,37.906
69.63,256.862,38.124
69.66,258.582,38.33
69.69,260.442,38.514
69.72,262.126,38.617
69.76,263.67,38.8
69.79,265.179,38.892
69.82,266.478,38.823
69.85,267.601,38.88
69.89,268.935,39.018
69.92,270.268,39.178
69.95,271.497,39.361
69.98,272.655,39.567
70.02,273.988,39.728
70.05,275.182,39.877
70.08,276.48,40.094
70.11,277.849,40.266
70.15,279.007,40.346
70.18,280.025,40.392
70.21,281.078,40.427
70.24,282.13,40.472
70.28,283.043,40.598
70.31,284.096,40.759
70.34,285.008,40.782
70.37,285.64,40.736
70.41,286.272,40.679
70.44,286.868,40.564
70.47,287.184,40.461
70.5,287.675,40.598
70.54,288.307,40.759
70.57,288.799,40.885
70.6,289.22,40.919
70.63,289.676,40.942
70.67,289.746,40.564
70.7,289.606,40.415
70.73,289.536,40.232
70.76,289.22,39.957
70.8,289.044,40.083
70.83,289.43,40.53
70.86,289.395,40.243
70.9,288.623,39.877
70.93,288.237,39.911
70.96,288.763,40.209
70.99,288.412,39.705
71.03,287.289,39.419
71.06,287.325,39.934
71.09,288.307,40.358
71.12,288.026,39.877
71.16,286.658,39.361
71.19,286.061,39.178
71.22,285.605,38.754
71.25,284.131,38.124
71.29,282.552,37.906
71.32,281.709,38.032
71.35,281.148,38.09
71.38,280.27,38.101
71.42,279.253,38.032
71.45,278.27,37.723
71.48,277.112,37.357
71.51,275.848,37.024
71.55,274.62,36.818
71.58,273.567,36.841
71.61,272.725,36.921
71.64,271.602,36.681
71.68,270.268,36.417
71.71,268.935,36.039
71.74,267.671,35.844
71.77,266.197,35.443
71.81,264.478,35.111
71.84,262.968,35.031
71.87,261.81,35.02
71.9,260.301,34.71
71.94,258.476,34.355
71.97,256.581,33.897
72.0,254.861,33.611
72.03,253.423,33.633
72.07,251.808,33.381
72.1,249.773,33.003
72.13,247.737,32.648
72.16,246.053,32.545
72.2,244.719,32.499
72.23,242.824,32.121
72.26,240.718,31.766
72.29,239.069,31.686
72.33,237.77,31.663
72.36,236.331,31.526
72.39,234.857,31.434
72.42,233.313,31.205
72.46,231.664,30.781
72.49,229.698,30.254
72.52,227.452,29.67
72.55,225.206,29.2
72.59,222.995,28.891
72.62,220.819,28.662
72.65,218.678,28.444
72.68,216.537,28.181
72.72,214.186,27.757
72.75,211.659,27.241
72.78,209.308,26.783
72.81,206.816,26.451
72.85,204.254,26.256
72.88,202.078,26.107
72.91,200.113,25.901
72.94,197.867,25.649
72.98,195.375,25.156
73.01,192.813,24.629
73.04,190.286,24.125
73.08,187.549,23.564
73.11,184.636,23.071
73.14,181.863,22.785
73.17,179.196,22.407
73.21,176.178,21.834
73.24,172.774,21.204
73.27,169.475,20.654
73.3,166.176,20.07
73.34,162.561,19.348
73.37,159.016,19.005
73.4,155.647,18.581
73.43,152.208,18.1
73.47,149.4,18.398
73.5,146.979,18.214
73.53,144.066,17.79
73.56,141.013,17.367
73.6,138.416,17.183
73.63,136.38,17.264
73.66,134.204,16.84
73.69,131.537,16.542
73.73,128.799,15.935
73.76,125.641,15.064
73.79,122.237,14.365
73.82,118.727,13.621
73.86,114.796,12.807
73.89,110.796,12.166
73.92,107.076,11.765
73.95,103.391,11.341
73.99,99.46,10.722
74.02,95.389,10.115
74.05,91.458,9.623
74.08,87.703,9.21
74.12,84.053,8.786
74.15,80.438,8.511
74.18,77.209,8.385
74.21,74.297,8.225
74.25,71.349,7.962
74.28,68.471,7.71
74.31,65.768,7.458
74.34,63.031,7.137
74.38,60.118,6.621
74.41,56.924,6.037
74.44,53.906,5.648
74.47,50.888,5.166
74.51,47.449,4.41
74.54,43.764,3.78
74.57,40.184,3.345
74.6,36.745,2.692
74.64,32.954,1.947
74.67,29.164,1.42
74.7,25.62,0.916
74.73,22.145,0.424
74.77,18.636,0.023
74.8,15.231,-0.584
74.83,11.476,-1.26
74.86,6.879,-1.753
74.9,1.965,-1.753
74.93,-1.228,-1.879
74.96,-3.72,-2.234
74.99,-5.826,-2.681
75.03,-8.493,-3.196
75.06,-12.283,-3.861
75.09,-16.951,-4.387
75.12,-21.408,-4.708
75.16,-24.426,-4.995
75.19,-25.76,-5.693
75.22,-26.462,-6.839
75.25,-28.006,-8.099
75.29,-30.533,-9.313
75.32,-33.762,-10.677
75.35,-37.587,-11.994
75.39,-42.009,-12.968
75.42,-46.642,-13.689
75.45,-51.204,-14.228
75.48,-55.731,-14.583
75.52,-60.048,-14.823
75.55,-64.224,-15.041
75.58,-68.19,-15.19
75.61,-71.875,-15.27
75.65,-75.244,-15.408
75.68,-78.543,-15.602
75.71,-81.737,-15.912
75.74,-84.966,-16.29
75.78,-88.264,-16.748
75.81,-91.423,-17.172
75.84,-94.582,-17.538
75.87,-97.74,-17.859
75.91,-100.723,-18.226
75.94,-103.847,-18.73
75.97,-107.181,-19.257
76.0,-110.515,-19.738
76.04,-113.884,-20.311
76.07,-117.464,-20.929
76.1,-120.973,-21.422
76.13,-124.483,-21.926
76.17,-127.922,-22.338
76.2,-131.361,-22.819
76.23,-135.011,-23.358
76.26,-138.977,-24.24
76.3,-142.802,-24.664
76.33,-146.031,-24.916
76.36,-149.084,-25.111
76.39,-151.541,-24.698
76.43,-153.998,-25.019
76.46,-157.191,-25.615
76.49,-159.999,-25.924
76.52,-162.386,-26.336
76.56,-165.334,-27.024
76.59,-168.633,-27.642
76.62,-171.756,-27.997
76.65,-174.704,-28.559
76.69,-177.792,-28.937
76.72,-180.389,-28.788
76.75,-182.776,-29.143
76.78,-186.11,-29.933
76.82,-189.655,-30.518
76.85,-192.041,-30.449
76.88,-194.006,-30.586
76.91,-196.674,-30.93
76.95,-199.376,-30.987
76.98,-201.166,-31.056
77.01,-203.096,-31.434
77.04,-205.798,-31.743
77.08,-208.185,-31.938
77.11,-210.115,-32.27
77.14,-211.975,-32.568
77.17,-213.94,-32.58
77.21,-215.765,-32.648
77.24,-217.696,-32.935
77.27,-219.731,-33.301
77.3,-221.732,-33.645
77.34,-223.767,-34.034
77.37,-225.943,-34.378
77.4,-228.084,-34.664
77.43,-230.014,-34.664
77.47,-231.769,-34.859
77.5,-233.945,-35.283
77.53,-236.156,-35.592
77.56,-238.016,-35.833
77.6,-240.086,-36.257
77.63,-242.473,-36.589
77.66,-244.333,-36.532
77.7,-245.596,-36.36
77.73,-246.754,-36.2
77.76,-248.088,-36.245
77.79,-249.457,-36.417
77.83,-250.755,-36.646
77.86,-251.984,-36.944
77.89,-253.458,-37.265
77.92,-254.826,-37.391
77.96,-256.055,-37.505
77.99,-257.458,-37.757
78.02,-259.073,-38.067
78.05,-260.687,-38.353
78.09,-262.302,-38.697
78.12,-263.951,-38.937
78.15,-265.39,-38.914
78.18,-266.548,-38.88
78.22,-267.776,-38.949
78.25,-269.145,-39.075
78.28,-270.374,-39.258
78.31,-271.707,-39.59
78.35,-273.216,-39.923
78.38,-274.796,-40.14
78.41,-276.164,-40.312
78.44,-277.463,-40.392
78.48,-278.691,-40.415
78.51,-279.849,-40.461
78.54,-280.867,-40.427
78.57,-281.815,-40.461
78.61,-282.867,-40.679
78.64,-283.955,-40.77
78.67,-284.798,-40.782
78.7,-285.429,-40.702
78.74,-285.991,-40.564
78.77,-286.377,-40.438
78.8,-286.588,-40.22
78.83,-286.658,-40.152
78.87,-287.044,-40.301
78.9,-287.325,-40.289
78.93,-287.36,-40.243
78.96,-287.5,-40.255
79.0,-288.132,-40.633
79.03,-288.448,-40.427
79.06,-287.851,-39.957
79.09,-287.675,-40.026
79.13,-288.377,-40.312
79.16,-288.553,-40.209
79.19,-288.132,-40.083
79.22,-287.851,-40.003
79.26,-287.921,-39.9
79.29,-287.64,-39.648
79.32,-286.974,-39.43
79.35,-286.623,-39.464
79.39,-286.588,-39.613
79.42,-286.552,-39.682
79.45,-286.272,-39.716
79.48,-286.026,-39.636
79.52,-285.64,-39.338
79.55,-284.973,-38.995
79.58,-284.236,-38.754
79.61,-283.534,-38.674
79.65,-283.043,-38.697
79.68,-282.411,-38.651
79.71,-281.674,-38.525
79.74,-280.727,-38.193
79.78,-279.463,-37.712
79.81,-278.059,-37.231
79.84,-276.48,-36.807
79.87,-274.971,-36.6
79.91,-273.672,-36.578
79.94,-272.444,-36.543
79.97,-271.181,-36.486
80.01,-269.917,-36.348
80.04,-268.478,-36.016
80.07,-266.969,-35.661
80.1,-265.39,-35.398
80.14,-264.056,-35.26
80.17,-262.617,-35.088
80.2,-261.108,-34.939
80.23,-259.775,-34.848
80.27,-258.441,-34.619
80.3,-256.476,-33.943
80.33,-254.581,-33.714
80.36,-253.528,-33.886
80.4,-252.335,-33.668
80.43,-250.334,-33.221
80.46,-248.439,-33.049
80.49,-247.246,-33.038
80.53,-245.807,-32.568
80.56,-243.491,-31.927
80.59,-241.209,-31.571
80.62,-239.525,-31.4
80.66,-237.735,-31.182
80.69,-235.945,-31.113
80.72,-234.541,-31.285
80.75,-233.488,-31.434
80.79,-232.471,-31.445
80.82,-231.348,-31.377
80.85,-230.154,-31.045
80.88,-228.154,-30.14
80.92,-225.311,-29.017
80.95,-222.609,-28.341
80.98,-220.117,-27.894
81.01,-217.38,-27.379
81.05,-214.291,-27.035
81.08,-211.694,-26.955
81.11,-209.729,-27.001
81.14,-207.729,-27.035
81.18,-205.588,-27.081
81.21,-204.079,-27.173
81.24,-202.991,-27.184
81.27,-201.552,-26.978
81.31,-199.727,-26.669
81.34,-198.042,-26.405
81.37,-196.463,-26.038
81.4,-194.603,-25.512
81.44,-192.322,-24.95
81.47,-190.041,-24.549
81.5,-187.408,-23.713
81.53,-183.688,-22.499
81.57,-179.337,-21.296
81.6,-175.055,-20.402
81.63,-170.914,-19.658
81.66,-166.281,-18.764
81.7,-161.473,-18.168
81.73,-157.472,-18.18
81.76,-153.963,-17.997
81.79,-150.067,-17.435
81.83,-145.996,-17.046
81.86,-142.767,-17.011
81.89,-139.995,-16.84
81.92,-137.082,-16.668
81.96,-134.239,-16.462
81.99,-131.467,-16.198
82.02,-128.729,-15.683
82.05,-125.43,-14.823
82.09,-121.64,-14.022
82.12,-118.06,-13.414
82.15,-114.586,-12.899
82.18,-111.006,-12.441
82.22,-107.567,-12.154
82.25,-104.373,-11.994
82.28,-101.32,-11.662
82.32,-97.951,-11.089
82.35,-94.336,-10.47
82.38,-90.862,-9.932
82.41,-87.457,-9.462
82.45,-84.018,-9.016
82.48,-80.579,-8.637
82.51,-77.42,-8.397
82.54,-74.332,-8.111
82.58,-71.103,-7.584
82.61,-67.523,-6.954
82.64,-63.908,-6.404
82.67,-60.434,-5.957
82.71,-57.1,-5.51
82.74,-53.696,-5.155
82.77,-50.432,-4.869
82.8,-47.203,-4.433
82.84,-43.448,-3.631
82.87,-39.377,-2.864
82.9,-35.587,-2.394
82.93,-32.112,-1.97
82.97,-28.743,-1.478
83.0,-25.409,-1.203
83.03,-22.391,-0.928
83.06,-19.162,-0.561
83.1,-15.968,-0.092
83.13,-12.634,0.47
83.16,-9.019,1.02
83.19,-4.562,1.294
83.23,-0.526,1.501
83.26,2.036,2.005
83.29,4.352,2.337
83.32,6.036,2.692
83.36,8.633,3.471
83.39,12.459,4.33
83.42,17.021,4.811
83.45,21.162,5.166
83.49,24.075,5.751
83.52,25.514,6.564
83.55,26.392,7.595
83.58,28.252,8.901
83.62,31.656,10.688
83.65,35.867,11.983
83.68,39.552,12.154
83.71,43.062,12.773
83.75,47.589,13.495
83.78,51.906,13.655
83.81,55.415,13.563
83.84,58.679,13.689
83.88,62.294,13.953
83.91,65.874,14.239
83.94,69.383,14.64
83.97,72.682,14.961
84.01,75.806,15.156
84.04,78.999,15.58
84.07,82.614,16.221
84.1,86.334,16.794
84.14,89.809,17.252
84.17,93.178,17.687
84.2,96.722,18.226
84.23,100.372,18.673
84.27,103.741,19.016
84.3,107.111,19.44
84.33,110.69,20.093
84.36,114.445,20.689
84.4,117.99,21.124
84.43,121.359,21.548
84.46,124.904,22.018
84.5,128.484,22.464
84.53,131.818,22.797
84.56,134.906,23.129
84.59,138.17,23.576
84.63,141.574,24.057
84.66,144.768,24.332
84.69,147.646,24.664
84.72,150.629,25.145
84.76,153.787,25.512
84.79,156.595,25.729
84.82,159.297,26.004
84.85,162.14,26.405
84.89,165.088,26.817
84.92,167.825,27.15
84.95,170.493,27.482
84.98,173.16,27.814
85.02,175.862,28.066
85.05,178.389,28.307
85.08,181.091,28.799
85.11,183.969,29.361
85.15,186.917,29.83
85.18,189.725,30.22
85.21,192.427,30.552
85.24,195.024,30.724
85.28,197.34,30.815
85.31,199.551,30.953
85.34,201.657,31.228
85.37,203.938,31.48
85.41,206.325,31.686
85.44,208.571,31.995
85.47,210.606,32.316
85.5,212.396,32.454
85.54,214.256,32.637
85.57,216.432,32.958
85.6,218.643,33.359
85.63,220.854,33.748
85.67,222.925,34.092
85.7,225.241,34.527
85.73,227.557,34.836
85.76,229.558,34.859
85.8,231.383,35.054
85.83,233.524,35.317
85.86,235.629,35.604
85.89,237.665,35.913
85.93,239.735,36.234
85.96,241.911,36.543
85.99,243.947,36.715
86.02,245.386,36.463
86.06,246.79,36.589
86.09,248.825,37.013
86.12,250.755,37.219
86.15,252.229,37.368
86.19,253.773,37.689
86.22,255.739,37.964
86.25,257.353,37.906
86.28,258.231,37.712
86.32,259.248,37.735
86.35,260.687,37.998
86.38,262.231,38.284
86.41,263.6,38.559
86.45,264.864,38.743
86.48,266.092,38.777
86.51,267.32,38.811
86.54,268.549,38.903
86.58,269.707,39.075
86.61,270.865,39.212
86.64,272.093,39.453
86.67,273.462,39.716
86.71,274.831,39.923
86.74,276.094,40.049
86.77,277.252,40.129
86.81,278.375,40.175
86.84,279.428,40.232
86.87,280.411,40.255
86.9,281.393,40.381
86.94,282.516,40.61
86.97,283.604,40.736
87.0,284.482,40.77
87.03,285.254,40.736
87.07,285.815,40.621
87.1,286.237,40.369
87.13,286.201,40.072
87.16,286.272,39.945
87.2,286.588,40.094
87.23,286.833,40.198
87.26,287.009,40.266
87.29,287.219,40.427
87.33,287.605,40.507
87.36,287.956,40.541
87.39,288.272,40.61
87.42,288.658,40.736
87.46,289.325,40.919
87.49,289.922,40.988
87.52,290.273,41.034
87.55,290.623,40.954
87.59,290.588,40.598
87.62,290.132,40.129
87.65,289.536,39.751
87.68,289.114,39.659
87.72,288.869,39.739
87.75,288.553,39.831
87.78,288.132,39.831
87.81,287.535,39.613
87.85,286.833,39.281
87.88,285.991,38.96
87.91,285.078,38.72
87.94,284.306,38.697
87.98,283.85,38.857
88.01,283.324,38.846
88.04,282.552,38.662
88.07,281.569,38.33
88.11,280.341,37.838
88.14,278.902,37.311
88.17,277.393,36.944
88.2,275.989,36.784
88.24,274.725,36.715
88.27,273.392,36.566
88.3,271.883,36.371
88.33,270.338,36.085
88.37,268.654,35.65
88.4,266.899,35.26
88.43,265.215,35.111
88.46,263.916,35.134
88.5,262.688,35.1
88.53,261.249,35.02
88.56,259.985,34.939
88.59,258.757,34.71
88.63,257.248,34.344
88.66,255.634,33.977
88.69,254.195,33.84
88.72,252.931,33.714
88.76,251.492,33.565
88.79,249.983,33.37
88.82,248.439,33.141
88.85,246.684,32.683
88.89,244.403,31.927
88.92,241.946,31.434
88.95,239.946,31.193
88.98,237.91,30.953
89.02,235.735,30.747
89.05,233.524,30.495
89.08,231.628,30.437
89.12,230.014,30.357
89.15,228.224,30.117
89.18,226.259,29.876
89.21,224.504,29.727
89.25,222.855,29.521
89.28,221.1,29.223
89.31,219.17,28.891
89.34,217.204,28.513
89.38,214.923,27.917
89.41,212.291,27.287
89.44,209.729,26.749
89.47,207.237,26.405
89.51,204.605,26.199
89.54,202.184,25.947
89.57,199.902,25.706
89.6,197.621,25.477
89.64,195.129,25.065
89.67,192.638,24.572
89.7,190.041,24.148
89.73,187.408,23.69
89.77,184.671,23.266
89.8,182.039,22.991
89.83,179.512,22.613
89.86,176.704,22.144
89.9,173.686,21.571
89.93,170.633,21.044
89.96,167.088,20.127
89.99,163.403,19.486
90.03,160.104,19.188
90.06,157.086,18.913
90.09,153.998,18.684
90.12,151.085,18.569
90.16,148.277,18.237
90.19,145.119,17.619
90.22,141.855,17.069
90.25,138.766,16.622
90.29,135.748,16.255
90.32,132.8,16.003
90.35,129.958,15.774
90.38,127.115,15.454
90.42,124.167,14.995
90.45,120.938,14.365
90.48,117.499,13.689
90.51,114.059,13.117
90.55,110.725,12.704
90.58,107.497,12.338
90.61,104.233,11.948
90.64,100.934,11.547
90.68,97.565,11.02
90.71,93.985,10.39
90.74,90.405,9.875
90.77,86.861,9.405
90.81,83.421,8.935
90.84,79.982,8.615
90.87,76.683,8.282
90.9,73.349,7.87
90.94,69.945,7.423
90.97,66.541,6.976
91.0,63.171,6.495
91.03,59.732,6.014
91.07,56.328,5.59
91.1,53.029,5.201
91.13,49.73,4.823
91.16,46.291,4.342
91.2,42.816,3.746
91.23,39.166,3.15
91.26,35.587,2.623
91.29,32.007,2.085
91.33,28.462,1.558
91.36,24.918,1.031
91.39,21.478,0.596
91.43,18.039,0.172
91.46,14.775,-0.263
91.49,11.476,-0.768
91.52,7.826,-1.123
91.56,3.474,-1.26
91.59,0.035,-1.604
91.62,-2.562,-2.096
91.65,-4.913,-2.474
91.69,-7.37,-3.093
91.72,-11.055,-3.78
91.75,-15.723,-4.307
91.78,-20.496,-4.571
91.82,-24.286,-4.995
91.85,-26.497,-5.613
91.88,-27.269,-6.621
91.91,-28.252,-7.95
91.95,-30.428,-9.348
91.98,-33.656,-10.688
92.01,-37.482,-11.73
92.04,-41.693,-12.544
92.08,-46.01,-13.288
92.11,-50.467,-13.896
92.14,-54.889,-14.308
92.17,-59.206,-14.652
92.21,-63.417,-14.927
92.24,-67.453,-15.144
92.27,-71.243,-15.282
92.3,-74.718,-15.454
92.34,-78.017,-15.671
92.37,-81.386,-16.003
92.4,-84.755,-16.404
92.43,-88.159,-16.863
92.47,-91.423,-17.321
92.5,-94.757,-17.722
92.53,-97.986,-18.111
92.56,-101.25,-18.501
92.6,-104.443,-18.902
92.63,-107.777,-19.348
92.66,-111.006,-19.818
92.69,-114.445,-20.379
92.73,-118.025,-20.975
92.76,-121.5,-21.456
92.79,-124.869,-21.857
92.82,-128.343,-22.396
92.86,-131.537,-22.499
92.89,-134.485,-22.854
92.92,-137.854,-23.507
92.95,-141.364,-23.954
92.99,-144.662,-24.469
93.02,-147.856,-24.893
93.05,-150.909,-25.237
93.08,-154.138,-25.66
93.12,-157.437,-26.107
93.15,-160.596,-26.497
93.18,-163.719,-26.978
93.21,-166.878,-27.436
93.25,-169.896,-27.7
93.28,-172.668,-27.929
93.31,-175.406,-28.192
93.34,-178.073,-28.41
93.38,-180.53,-28.559
93.41,-183.022,-28.948
93.44,-185.899,-29.578
93.47,-188.882,-30.151
93.51,-191.725,-30.644
93.54,-194.498,-30.999
93.57,-197.095,-31.171
93.6,-199.481,-31.239
93.64,-201.727,-31.354
93.67,-203.938,-31.526
93.7,-206.325,-31.732
93.74,-208.501,-31.858
93.77,-210.15,-32.007
93.8,-211.659,-32.144
93.83,-213.449,-32.282
93.87,-215.204,-32.396
93.9,-216.924,-32.717
93.93,-218.854,-33.141
93.96,-220.995,-33.668
94.0,-223.416,-34.241
94.03,-225.873,-34.687
94.06,-228.154,-35.008
94.09,-230.365,-35.088
94.13,-232.155,-34.962
94.16,-233.91,-35.1
94.19,-235.98,-35.432
94.22,-238.121,-35.718
94.26,-239.841,-35.879
94.29,-241.455,-36.039
94.32,-243.245,-36.211
94.35,-245.0,-36.268
94.39,-246.263,-36.234
94.42,-247.421,-36.257
94.45,-248.615,-36.314
94.48,-249.843,-36.417
94.52,-251.141,-36.669
94.55,-252.686,-37.15
94.58,-254.826,-37.975
94.61,-257.248,-38.594
94.65,-259.319,-38.869
94.68,-261.214,-39.075
94.71,-263.284,-39.235
94.74,-265.144,-39.144
94.78,-266.478,-38.995
94.81,-267.917,-39.109
94.84,-269.25,-39.075
94.87,-270.163,-38.937
94.91,-270.935,-38.914
94.94,-271.777,-38.903
94.97,-272.655,-38.983
95.0,-273.602,-39.258
95.04,-274.585,-39.522
95.07,-275.673,-39.774
95.1,-276.726,-39.945
95.13,-277.744,-40.026
95.17,-278.761,-40.117
95.2,-279.744,-40.175
95.23,-280.692,-40.255
95.26,-281.674,-40.484
95.3,-282.832,-40.724
95.33,-283.85,-40.77
95.36,-284.552,-40.713
95.39,-285.184,-40.61
95.43,-285.675,-40.404
95.46,-285.851,-40.163
95.49,-285.851,-40.083
95.52,-286.412,-40.404
95.56,-286.938,-40.415
95.59,-287.044,-40.346
95.62,-287.219,-40.415
95.65,-288.026,-40.747
95.69,-288.307,-40.438
95.72,-287.675,-39.98
95.75,-287.57,-40.06
95.78,-288.237,-40.312
95.82,-288.448,-40.186
95.85,-288.097,-40.152
95.88,-288.026,-40.129
95.92,-287.991,-39.923
95.95,-287.605,-39.579
95.98,-286.974,-39.407
96.01,-286.763,-39.464
96.05,-286.728,-39.613
96.08,-286.658,-39.728
96.11,-286.552,-39.797
96.14,-286.377,-39.659
96.18,-285.815,-39.338
96.21,-285.149,-38.983
96.24,-284.412,-38.685
96.27,-283.604,-38.525
96.31,-282.903,-38.514
96.34,-282.271,-38.468
96.37,-281.429,-38.33
96.4,-280.376,-38.021
96.44,-279.112,-37.551
96.47,-277.638,-37.093
96.5,-276.059,-36.692
96.53,-274.48,-36.452
96.57,-273.076,-36.394
96.6,-271.777,-36.383
96.63,-270.584,-36.406
96.66,-269.321,-36.268
96.7,-267.882,-35.89
96.73,-266.267,-35.547
96.76,-264.828,-35.306
96.79,-263.39,-35.123
96.83,-261.986,-34.951
96.86,-260.512,-34.848
96.89,-259.354,-34.882
96.92,-258.09,-34.642
96.96,-256.195,-33.989
96.99,-254.089,-33.507
97.02,-252.335,-33.244
97.05,-250.79,-33.152
97.09,-249.281,-33.072
97.12,-247.842,-33.061
97.15,-246.509,-33.095
97.18,-245.245,-32.935
97.22,-243.631,-32.511
97.25,-241.806,-32.076
97.28,-239.946,-31.606
97.31,-238.051,-31.216
97.35,-236.296,-31.079
97.38,-234.436,-30.747
97.41,-232.225,-30.254
97.44,-229.979,-30.002
97.48,-228.329,-30.014
97.51,-226.926,-30.025
97.54,-225.627,-30.162
97.57,-224.329,-30.151
97.61,-222.82,-29.75
97.64,-221.1,-29.383
97.67,-219.45,-29.005
97.7,-216.994,-27.963
97.74,-213.905,-27.138
97.77,-211.308,-26.783
97.8,-208.571,-25.97
97.83,-204.816,-25.237
97.87,-201.482,-25.076
97.9,-198.814,-24.744
97.93,-195.796,-24.32
97.96,-192.848,-24.24
98.0,-190.181,-23.954
98.03,-187.093,-23.301
98.06,-183.618,-22.579
98.09,-180.109,-21.937
98.13,-176.704,-21.41
98.16,-173.441,-21.078
98.19,-170.457,-20.987
98.23,-167.86,-21.009
98.26,-165.544,-21.044
98.29,-163.438,-21.032
98.32,-161.438,-20.975
98.36,-159.122,-20.402
98.39,-156.525,-19.91
98.42,-153.928,-19.337
98.45,-151.331,-18.856
98.49,-148.277,-18.02
98.52,-144.522,-17.16
98.55,-140.942,-16.588
98.58,-137.538,-16.106
98.62,-134.274,-15.774
98.65,-131.116,-15.545
98.68,-127.922,-15.19
98.71,-124.799,-14.892
98.75,-121.78,-14.549
98.78,-118.622,-14.033
98.81,-115.463,-13.586
98.84,-112.375,-13.128
98.88,-108.9,-12.464
98.91,-105.531,-12.051
98.94,-102.478,-11.765
98.97,-99.284,-11.238
99.01,-95.81,-10.722
99.04,-92.546,-10.402
99.07,-89.493,-10.092
99.1,-86.334,-9.657
99.14,-83.07,-9.21
99.17,-79.807,-8.786
99.2,-76.613,-8.294
99.23,-73.349,-7.859
99.27,-70.19,-7.492
99.3,-66.856,-6.965
99.33,-63.382,-6.381
99.36,-59.837,-5.888
99.4,-56.363,-5.418
99.43,-52.924,-4.903
99.46,-49.379,-4.445
99.49,-46.01,-4.067
99.53,-42.676,-3.62
99.56,-39.166,-3.093
99.59,-35.727,-2.589
99.62,-32.217,-2.108
99.66,-28.848,-1.581
99.69,-25.339,-1.02
99.72,-21.864,-0.584
99.75,-18.495,-0.309
99.79,-15.477,0.115
99.82,-12.283,0.745
99.85,-8.493,1.157
99.88,-4.247,1.214
99.92,-0.526,1.42
99.95,2.176,2.096
99.98,4.948,2.738
100.01,7.51,3.23
100.05,11.055,3.906
100.08,15.547,4.628
100.11,20.496,5.292
100.14,24.391,5.9
100.18,26.321,6.644
100.21,27.023,7.618
100.24,28.462,8.718
100.27,31.129,9.76
100.31,34.674,10.814
100.34,38.464,11.776
100.37,42.325,12.498
100.4,46.185,13.128
100.44,50.397,13.689
100.47,54.819,14.136
100.5,59.135,14.56
100.54,63.522,15.041
100.57,67.769,15.35
100.6,71.7,15.591
100.63,75.595,15.923
100.67,79.491,16.221
100.7,83.141,16.439
100.73,86.545,16.782
100.76,89.844,17.0
100.8,92.932,17.206
100.83,95.81,17.481
100.86,98.758,17.745
100.89,101.601,18.065
100.93,104.443,18.501
100.96,107.532,19.051
100.99,110.725,19.6
101.02,114.024,20.299
101.06,117.639,20.952
101.09,121.184,21.502
101.12,124.342,21.697
101.15,127.747,22.361
101.19,131.642,22.934
101.22,135.117,23.335
101.25,138.24,23.724
101.28,141.434,24.091
101.32,145.154,24.836
101.35,148.593,25.053
101.38,151.225,25.007
101.41,153.366,24.927
101.45,156.104,25.351
101.48,159.227,25.844
101.51,162.21,26.428
101.54,165.053,27.069
101.58,168.001,27.528
101.61,171.089,27.906
101.64,174.213,28.272
101.67,177.09,28.593
101.71,179.863,28.937
101.74,182.881,29.338
101.77,185.864,29.727
101.8,188.672,30.002
101.84,191.234,30.254
101.87,193.761,30.483
101.9,196.182,30.667
101.93,198.604,30.953
101.97,200.99,31.308
102.0,203.201,31.445
102.03,205.272,31.514
102.06,207.553,31.709
102.1,209.554,31.892
102.13,211.133,31.972
102.16,212.642,32.087
102.19,214.572,32.431
102.23,216.853,32.889
102.26,218.854,33.21
102.29,220.538,33.416
102.32,222.398,33.656
102.36,224.539,34.069
102.39,226.75,34.39
102.42,228.575,34.481
102.45,230.26,34.676
102.49,232.225,34.962
102.52,234.296,35.214
102.55,236.191,35.466
102.58,238.086,35.821
102.62,240.543,36.486
102.65,243.105,36.852
102.68,244.894,36.852
102.71,246.509,36.933
102.75,248.474,37.07
102.78,250.334,37.105
102.81,251.668,37.093
102.85,252.966,37.185
102.88,254.44,37.345
102.91,256.125,37.689
102.94,257.669,37.883
102.98,258.897,37.929
103.01,260.161,38.032
103.04,261.67,38.262
103.07,263.144,38.456
103.11,264.653,38.754
103.14,266.162,39.052
103.17,267.601,39.224
103.2,268.935,39.235
103.24,270.058,39.224
103.27,271.181,39.247
103.3,272.374,39.361
103.33,273.497,39.522
103.37,274.796,39.808
103.4,276.129,40.072
103.43,277.217,40.083
103.46,278.235,40.14
103.5,279.428,40.278
103.53,280.481,40.209
103.56,281.218,40.209
103.59,282.166,40.392
103.63,283.253,40.53
103.66,284.096,40.564
103.69,284.727,40.564
103.72,285.359,40.541
103.76,285.921,40.438
103.79,286.237,40.266
103.82,286.588,40.335
103.85,286.938,40.266
103.89,287.36,40.438
103.92,287.816,40.564
103.95,288.202,40.553
103.98,288.377,40.461
104.02,288.974,40.816
104.05,289.676,40.793
104.08,289.676,40.576
104.11,289.816,40.702
104.15,290.378,40.759
104.18,290.623,40.576
104.21,290.343,40.381
104.24,290.062,40.14
104.28,289.676,39.819
104.31,288.834,39.384
104.34,288.097,39.281
104.37,287.781,39.487
104.41,287.57,39.556
104.44,286.903,39.419
104.47,286.026,39.155
104.5,285.254,38.88
104.54,284.482,38.651
104.57,283.569,38.479
104.6,282.727,38.433
104.63,282.166,38.548
104.67,281.674,38.571
104.7,281.042,38.491
104.73,280.13,38.216
104.76,279.077,37.803
104.8,277.814,37.368
104.83,276.34,36.852
104.86,274.69,36.532
104.89,273.357,36.474
104.93,272.128,36.371
104.96,270.584,36.131
104.99,268.9,35.867
105.02,267.355,35.592
105.06,265.776,35.283
105.09,264.232,35.1
105.12,262.863,35.02
105.16,261.494,34.962
105.19,260.196,34.848
105.22,258.932,34.745
105.25,257.634,34.527
105.29,256.09,34.16
105.32,254.51,33.817
105.35,253.036,33.633
105.38,251.562,33.404
105.42,249.843,33.129
105.45,248.053,32.832
105.48,246.474,32.66
105.51,245.035,32.545
105.55,243.35,32.167
105.58,241.174,31.675
105.61,239.174,31.365
105.64,237.384,31.159
105.68,235.664,30.93
105.71,233.699,30.701
105.74,231.874,30.575
105.77,230.084,30.311
105.81,228.084,29.819
105.84,225.803,29.452
105.87,223.732,29.177
105.9,221.626,28.799
105.94,219.345,28.467
105.97,217.134,28.261
106.0,215.134,28.066
106.03,212.993,27.745
106.07,210.677,27.241
106.1,208.29,26.817
106.13,205.798,26.554
106.16,203.517,26.279
106.2,201.341,25.924
106.23,199.271,25.798
106.26,197.165,25.638
106.29,194.919,25.248
106.33,192.357,24.675
106.36,189.69,24.08
106.39,187.057,23.633
106.42,184.39,23.152
106.46,181.442,22.671
106.49,178.564,22.361
106.52,175.792,21.937
106.55,172.668,21.296
106.59,169.58,20.952
106.62,166.843,20.689
106.65,163.614,19.83
106.68,160.175,19.532
106.72,157.507,19.417
106.75,154.91,19.016
106.78,152.173,18.982
106.81,149.857,18.902
106.85,146.838,17.962
106.88,143.013,16.977
106.91,139.223,16.255
106.94,135.854,15.717
106.98,132.52,15.396
107.01,129.221,15.11
107.04,126.132,15.03
107.07,123.605,15.144
107.11,121.254,14.961
107.14,118.446,14.434
107.17,115.358,13.884
107.2,112.48,13.403
107.24,109.427,12.796
107.27,106.058,12.086
107.3,102.303,11.387
107.34,98.442,10.642
107.37,94.441,9.898
107.4,90.3,9.29
107.43,86.334,8.821
107.47,82.614,8.489
107.5,79.07,8.282
107.53,75.735,8.099
107.56,72.472,7.801
107.6,69.173,7.4
107.63,65.804,6.919
107.66,62.469,6.449
107.69,59.135,5.968
107.73,55.766,5.567
107.76,52.538,5.166
107.79,49.274,4.811
107.82,46.045,4.387
107.86,42.676,3.849
107.89,39.026,3.242
107.92,35.446,2.704
107.95,31.937,2.199
107.99,28.568,1.73
108.02,25.163,1.283
108.05,21.899,0.882
108.08,18.811,0.756
108.12,16.039,0.493
108.15,13.301,-0.115
108.18,10.002,-0.768
108.21,5.685,-1.386
108.25,1.228,-1.627
108.28,-1.965,-2.28
108.31,-4.984,-2.944
108.34,-8.072,-3.448
108.38,-12.003,-4.032
108.41,-16.67,-4.502
108.44,-21.092,-4.811
108.47,-24.251,-5.235
108.51,-25.9,-6.014
108.54,-26.707,-7.16
108.57,-28.146,-8.397
108.6,-30.708,-9.691
108.64,-34.183,-11.066
108.67,-38.219,-12.28
108.7,-42.676,-13.105
108.73,-47.343,-13.735
108.77,-51.871,-14.216
108.8,-56.538,-14.675
108.83,-61.101,-14.972
108.86,-65.312,-15.144
108.9,-69.313,-15.328
108.93,-72.893,-15.316
108.96,-76.016,-15.259
108.99,-78.929,-15.339
109.03,-81.702,-15.522
109.06,-84.544,-15.809
109.09,-87.422,-16.221
109.12,-90.3,-16.702
109.16,-93.318,-17.172
109.19,-96.301,-17.584
109.22,-99.39,-18.1
109.25,-102.759,-18.741
109.29,-106.339,-19.36
109.32,-109.813,-19.956
109.35,-113.428,-20.586
109.38,-117.183,-21.135
109.42,-120.798,-21.502
109.45,-124.202,-21.96
109.48,-127.992,-22.579
109.51,-131.747,-23.117
109.55,-135.468,-23.656
109.58,-139.012,-24.057
109.61,-142.487,-24.423
109.65,-145.75,-24.698
109.68,-149.084,-25.133
109.71,-152.032,-25.168
109.74,-154.665,-25.259
109.78,-157.297,-25.512
109.81,-160.139,-25.958
109.84,-162.947,-26.313
109.87,-165.509,-26.737
109.91,-168.387,-27.276
109.94,-171.3,-27.757
109.97,-174.072,-28.043
110.0,-176.704,-28.307
110.04,-179.372,-28.616
110.07,-182.249,-29.109
110.1,-185.373,-29.75
110.13,-188.637,-30.414
110.17,-191.515,-30.678
110.2,-194.182,-30.964
110.23,-197.06,-31.274
110.26,-199.797,-31.342
110.3,-201.797,-31.354
110.33,-203.973,-31.549
110.36,-206.5,-31.743
110.39,-208.746,-31.858
110.43,-210.431,-32.098
110.46,-212.08,-32.316
110.49,-213.765,-32.328
110.52,-215.45,-32.442
110.56,-217.169,-32.786
110.59,-219.099,-33.175
110.62,-221.065,-33.53
110.65,-223.135,-33.954
110.69,-225.417,-34.447
110.72,-227.698,-34.733
110.75,-229.558,-34.768
110.78,-231.383,-34.951
110.82,-233.488,-35.26
110.85,-235.699,-35.569
110.88,-237.595,-35.764
110.91,-239.49,-36.039
110.95,-241.666,-36.44
110.98,-243.596,-36.509
111.01,-244.93,-36.348
111.04,-246.193,-36.291
111.08,-247.737,-36.429
111.11,-249.281,-36.6
111.14,-250.51,-36.715
111.17,-252.089,-37.265
111.21,-254.16,-37.792
111.24,-255.739,-37.838
111.27,-256.932,-37.826
111.3,-258.371,-37.918
111.34,-259.95,-37.998
111.37,-261.284,-38.078
111.4,-262.617,-38.388
111.43,-264.267,-38.823
111.47,-265.846,-38.903
111.5,-266.794,-38.8
111.53,-267.882,-38.937
111.56,-269.356,-39.109
111.6,-270.514,-39.178
111.63,-271.637,-39.384
111.66,-273.041,-39.739
111.69,-274.48,-39.923
111.73,-275.708,-40.049
111.76,-276.901,-40.198
111.79,-278.2,-40.312
111.82,-279.428,-40.404
111.86,-280.551,-40.461
111.89,-281.639,-40.576
111.92,-282.797,-40.736
111.96,-283.92,-40.828
111.99,-284.833,-40.896
112.02,-285.64,-40.873
112.05,-286.307,-40.782
112.09,-286.903,-40.702
112.12,-287.254,-40.576
112.15,-287.746,-40.679
112.18,-288.097,-40.576
112.22,-288.272,-40.507
112.25,-289.009,-41.011
112.28,-289.711,-40.942
112.31,-290.097,-41.08
112.35,-290.027,-40.69
112.38,-289.5,-39.991
112.41,-289.044,-39.865
112.44,-289.009,-39.854
112.48,-288.553,-39.625
112.51,-287.675,-39.441
112.54,-287.009,-39.407
112.57,-286.658,-39.315
112.61,-285.991,-39.144
112.64,-285.324,-39.155
112.67,-285.114,-39.441
112.7,-285.394,-39.797
112.74,-285.675,-40.049
112.77,-285.78,-40.129
112.8,-285.71,-39.934
112.83,-285.394,-39.522
112.87,-284.868,-39.063
112.9,-284.026,-38.674
112.93,-283.218,-38.514
112.96,-282.622,-38.502
113.0,-281.92,-38.433
113.03,-281.007,-38.33
113.06,-280.06,-38.055
113.09,-278.867,-37.586
113.13,-277.393,-37.173
113.16,-275.954,-36.875
113.19,-274.796,-36.818
113.22,-273.708,-36.83
113.26,-272.655,-36.83
113.29,-271.461,-36.715
113.32,-270.268,-36.474
113.35,-268.513,-35.764
113.39,-266.653,-35.34
113.42,-265.53,-35.512
113.45,-264.478,-35.329
113.48,-262.723,-35.111
113.52,-261.284,-35.088
113.55,-260.196,-34.974
113.58,-258.932,-34.664
113.61,-257.108,-34.206
113.65,-255.247,-33.874
113.68,-253.633,-33.611
113.71,-252.124,-33.496
113.74,-250.72,-33.496
113.78,-249.316,-33.393
113.81,-247.842,-33.187
113.84,-246.193,-32.797
113.87,-244.122,-32.167
113.91,-242.052,-31.697
113.94,-240.262,-31.571
113.97,-238.858,-31.675
114.0,-237.419,-31.64
114.04,-235.84,-31.537
114.07,-234.436,-31.423
114.1,-232.751,-30.953
114.13,-230.505,-30.197
114.17,-227.908,-29.498
114.2,-225.381,-28.891
114.23,-222.679,-28.352
114.27,-219.872,-27.906
114.3,-217.134,-27.654
114.33,-214.853,-27.619
114.36,-212.607,-27.402
114.4,-210.185,-27.012
114.43,-207.834,-26.852
114.46,-205.693,-26.806
114.49,-203.658,-26.577
114.53,-201.692,-26.336
114.56,-199.797,-26.142
114.59,-197.691,-25.786
114.62,-195.27,-25.191
114.66,-192.497,-24.458
114.69,-189.514,-23.747
114.72,-186.285,-22.945
114.75,-182.846,-22.338
114.79,-179.723,-22.04
114.82,-176.704,-21.731
114.85,-173.546,-21.307
114.88,-170.247,-20.918
114.92,-167.264,-20.609
114.95,-164.316,-20.208
114.98,-161.263,-19.761
115.01,-158.279,-19.474
115.05,-155.753,-19.44
115.08,-153.296,-19.234
115.11,-150.629,-18.936
115.14,-147.926,-18.547
115.18,-145.224,-18.077
115.21,-142.522,-17.63
115.24,-139.854,-17.264
115.27,-137.047,-16.828
115.31,-134.134,-16.416
115.34,-130.87,-15.614
115.37,-127.115,-14.743
115.4,-123.43,-14.148
115.44,-119.955,-13.632
115.47,-116.27,-13.117
115.5,-112.55,-12.681
115.53,-109.041,-12.372
115.57,-105.742,-12.063
115.6,-102.478,-11.685
115.63,-99.249,-11.364
115.66,-96.161,-11.032
115.7,-93.002,-10.654
115.73,-89.844,-10.241
115.76,-86.545,-9.634
115.79,-83.105,-9.107
115.83,-79.877,-8.763
115.86,-76.648,-8.237
115.89,-73.279,-7.813
115.92,-69.945,-7.446
115.96,-66.541,-6.885
115.99,-62.996,-6.301
116.02,-59.451,-5.911
116.05,-56.152,-5.522
116.09,-52.888,-5.098
116.12,-49.519,-4.731
116.15,-46.361,-4.445
116.18,-43.132,-3.952
116.22,-39.622,-3.322
116.25,-36.043,-2.784
116.28,-32.428,-2.188
116.31,-28.813,-1.524
116.35,-25.058,-0.928
116.38,-21.408,-0.367
116.41,-17.758,0.069
116.44,-14.354,0.515
116.48,-10.739,1.1
116.51,-6.422,1.455
116.54,-1.86,1.546
116.58,1.299,1.925
