Trigger_Date,2023/08/04
Trigger_Time,T 10:15:35.805 PDT
Samples_Per_Cycle,512
Microseconds_Per_Sample,32.503
Time (ms),Voltage (V),Current (A)
-16.64,-81.386,-2.291
-16.61,-85.597,-2.371
-16.58,-89.844,-2.463
-16.54,-94.231,-2.451
-16.51,-98.477,-2.348
-16.48,-102.443,-2.199
-16.45,-106.093,-1.936
-16.41,-109.392,-1.764
-16.38,-112.375,-1.718
-16.35,-115.498,-1.764
-16.32,-118.622,-1.799
-16.28,-121.921,-1.925
-16.25,-125.43,-2.039
-16.22,-129.08,-2.096
-16.19,-132.695,-1.97
-16.15,-136.205,-1.993
-16.12,-139.679,-1.993
-16.09,-143.083,-1.879
-16.06,-146.452,-2.028
-16.02,-150.102,-2.131
-15.99,-153.857,-2.165
-15.96,-157.297,-1.89
-15.93,-160.139,-1.455
-15.89,-162.491,-1.306
-15.86,-164.807,-1.409
-15.83,-167.334,-1.501
-15.8,-170.107,-1.707
-15.76,-173.441,-2.073
-15.73,-177.196,-2.28
-15.7,-181.091,-2.177
-15.67,-184.671,-1.993
-15.63,-187.83,-1.741
-15.6,-190.497,-1.42
-15.57,-192.673,-1.203
-15.54,-194.814,-1.283
-15.5,-197.2,-1.489
-15.47,-199.902,-1.638
-15.44,-202.71,-1.673
-15.41,-205.623,-1.673
-15.37,-208.29,-1.546
-15.34,-210.712,-1.375
-15.31,-212.923,-1.237
-15.28,-215.063,-1.375
-15.24,-217.59,-1.524
-15.21,-220.082,-1.512
-15.18,-222.574,-1.443
-15.15,-224.925,-1.386
-15.11,-227.031,-1.214
-15.08,-228.891,-1.111
-15.05,-230.716,-1.157
-15.02,-232.681,-1.294
-14.98,-234.857,-1.386
-14.95,-237.173,-1.455
-14.92,-239.56,-1.489
-14.89,-241.911,-1.443
-14.85,-243.982,-1.283
-14.82,-245.807,-1.146
-14.79,-247.632,-1.18
-14.76,-249.387,-1.157
-14.72,-251.106,-1.1
-14.69,-253.036,-1.409
-14.66,-255.388,-1.558
-14.63,-257.529,-1.294
-14.59,-259.213,-1.054
-14.56,-260.863,-1.168
-14.53,-262.617,-1.191
-14.5,-264.267,-1.077
-14.46,-265.776,-1.02
-14.43,-267.215,-1.031
-14.4,-268.689,-1.042
-14.37,-270.128,-1.042
-14.33,-271.532,-0.997
-14.3,-272.865,-0.962
-14.27,-274.269,-1.008
-14.24,-275.778,-1.146
-14.2,-277.498,-1.237
-14.17,-279.288,-1.249
-14.14,-280.762,-0.962
-14.11,-281.815,-0.745
-14.07,-282.727,-0.756
-14.04,-283.815,-0.871
-14.01,-284.868,-0.916
-13.98,-286.237,-1.077
-13.94,-287.781,-1.191
-13.91,-289.465,-1.214
-13.88,-291.01,-1.157
-13.85,-292.484,-1.077
-13.81,-293.817,-0.997
-13.78,-295.01,-0.928
-13.75,-295.993,-0.848
-13.72,-296.906,-0.894
-13.68,-297.993,-0.951
-13.65,-298.976,-0.882
-13.62,-299.748,-0.687
-13.59,-300.169,-0.515
-13.55,-300.345,-0.401
-13.52,-300.275,-0.252
-13.49,-299.924,-0.103
-13.46,-299.783,-0.378
-13.42,-299.854,-0.447
-13.39,-300.24,-0.664
-13.36,-301.082,-0.951
-13.33,-301.994,-0.756
-13.29,-302.731,-0.79
-13.26,-303.152,-0.458
-13.23,-302.977,-0.183
-13.2,-302.731,-0.195
-13.16,-302.556,-0.332
-13.13,-302.345,-0.195
-13.1,-301.714,0.057
-13.07,-300.871,0.137
-13.03,-299.959,0.137
-13.0,-298.941,0.206
-12.97,-297.958,0.137
-12.94,-297.502,-0.286
-12.9,-297.853,-0.779
-12.87,-298.625,-0.962
-12.84,-299.503,-0.836
-12.81,-299.854,-0.447
-12.77,-299.362,0.057
-12.74,-298.099,0.504
-12.71,-296.239,0.699
-12.68,-294.484,0.47
-12.64,-293.326,0.046
-12.61,-292.764,-0.218
-12.58,-292.448,-0.252
-12.55,-291.992,-0.08
-12.51,-290.974,0.275
-12.48,-289.465,0.619
-12.45,-287.465,0.768
-12.42,-285.5,0.63
-12.38,-283.885,0.367
-12.35,-282.727,0.172
-12.32,-281.815,0.092
-12.29,-280.797,0.183
-12.25,-279.463,0.481
-12.22,-277.673,0.687
-12.19,-275.708,0.676
-12.16,-273.918,0.55
-12.12,-272.409,0.424
-12.09,-271.04,0.286
-12.06,-269.987,0.172
-12.03,-268.9,0.344
-11.99,-267.215,0.699
-11.96,-265.25,0.825
-11.93,-263.109,0.836
-11.9,-261.073,0.802
-11.86,-259.108,0.733
-11.83,-257.494,0.447
-11.8,-256.335,0.218
-11.77,-255.072,0.515
-11.73,-253.177,0.939
-11.7,-250.861,0.985
-11.67,-248.755,0.836
-11.64,-246.579,0.928
-11.6,-244.263,1.088
-11.57,-242.017,0.882
-11.54,-240.121,0.699
-11.51,-238.191,0.859
-11.47,-236.086,0.985
-11.44,-233.91,0.962
-11.41,-231.734,0.882
-11.38,-229.733,0.928
-11.34,-227.452,1.111
-11.31,-225.206,0.951
-11.28,-223.276,0.745
-11.25,-221.275,0.997
-11.21,-218.748,1.34
-11.18,-216.011,1.306
-11.15,-213.239,1.272
-11.12,-210.571,1.294
-11.08,-208.08,1.123
-11.05,-205.869,0.951
-11.02,-203.728,0.997
-10.99,-201.411,1.214
-10.95,-198.569,1.42
-10.92,-195.515,1.615
-10.89,-192.076,1.856
-10.86,-188.461,1.81
-10.82,-185.197,1.478
-10.79,-182.39,1.352
-10.76,-179.512,1.443
-10.73,-176.599,1.512
-10.69,-173.546,1.535
-10.66,-170.317,1.661
-10.63,-166.948,1.776
-10.6,-163.579,1.695
-10.56,-160.771,1.168
-10.53,-158.139,1.306
-10.5,-155.086,1.741
-10.47,-151.611,1.776
-10.43,-147.856,2.039
-10.4,-144.101,1.833
-10.37,-140.732,1.684
-10.34,-137.538,1.615
-10.3,-134.59,1.443
-10.27,-131.783,1.432
-10.24,-128.87,1.569
-10.21,-125.606,1.799
-10.17,-121.851,2.119
-10.14,-117.604,2.348
-10.11,-113.112,2.383
-10.08,-108.936,2.142
-10.04,-105.286,1.787
-10.01,-102.127,1.524
-9.98,-99.46,1.329
-9.95,-97.003,1.294
-9.91,-94.266,1.489
-9.88,-91.248,1.764
-9.85,-87.738,1.947
-9.82,-84.018,2.062
-9.78,-80.087,2.142
-9.75,-76.157,2.096
-9.72,-72.366,1.982
-9.69,-68.716,1.925
-9.65,-65.172,1.902
-9.62,-61.592,1.925
-9.59,-58.083,1.947
-9.56,-54.433,1.947
-9.52,-50.853,1.925
-9.49,-47.273,1.936
-9.46,-43.729,1.925
-9.43,-40.044,2.005
-9.39,-36.253,2.119
-9.36,-32.288,2.154
-9.33,-28.322,2.119
-9.3,-24.567,1.993
-9.26,-20.952,1.902
-9.23,-17.442,1.867
-9.2,-14.038,1.787
-9.17,-10.844,1.695
-9.13,-7.826,1.569
-9.1,-4.948,1.524
-9.07,-2.071,1.615
-9.04,1.193,1.867
-9.0,4.984,2.165
-8.97,9.019,2.268
-8.94,13.301,2.325
-8.91,17.583,2.36
-8.87,21.864,2.337
-8.84,25.725,1.982
-8.81,29.024,1.764
-8.78,32.182,1.821
-8.74,35.446,1.879
-8.71,38.745,1.856
-8.68,42.009,1.936
-8.65,45.589,2.073
-8.61,49.274,2.154
-8.58,53.029,2.142
-8.55,56.784,2.142
-8.52,60.539,2.165
-8.48,64.294,2.154
-8.45,68.05,2.131
-8.42,71.735,2.073
-8.39,75.314,2.016
-8.35,78.754,1.982
-8.32,82.193,1.97
-8.29,85.632,1.97
-8.26,89.177,2.085
-8.22,92.967,2.177
-8.19,96.687,2.188
-8.16,100.583,2.177
-8.13,104.233,2.039
-8.09,107.602,1.902
-8.06,110.866,1.879
-8.03,114.165,1.936
-8.0,117.639,2.062
-7.96,121.219,2.062
-7.93,124.728,1.993
-7.9,128.413,2.165
-7.87,132.133,2.177
-7.83,135.573,1.89
-7.8,138.802,1.833
-7.77,142.065,1.936
-7.74,145.329,1.879
-7.7,148.558,1.856
-7.67,151.997,2.154
-7.64,155.682,2.131
-7.61,159.052,1.833
-7.57,162.035,1.65
-7.54,164.807,1.627
-7.51,167.615,1.684
-7.48,170.528,1.741
-7.44,173.616,1.902
-7.41,177.02,2.039
-7.38,180.495,2.005
-7.35,183.759,1.833
-7.31,186.636,1.627
-7.28,189.163,1.398
-7.25,191.374,1.272
-7.22,193.585,1.363
-7.18,196.007,1.569
-7.15,198.885,1.764
-7.12,201.868,1.833
-7.09,204.886,1.799
-7.05,207.799,1.673
-7.02,210.255,1.386
-6.99,212.291,1.191
-6.96,214.186,1.226
-6.92,216.362,1.398
-6.89,218.678,1.489
-6.86,221.205,1.604
-6.83,223.837,1.569
-6.79,226.083,1.329
-6.76,228.049,1.146
-6.73,229.803,1.146
-6.7,231.734,1.283
-6.66,233.839,1.386
-6.63,236.226,1.455
-6.6,238.753,1.684
-6.57,241.385,1.673
-6.53,243.701,1.294
-6.5,245.596,1.157
-6.47,247.386,1.226
-6.44,249.211,1.226
-6.4,250.966,1.111
-6.37,252.51,1.031
-6.34,254.265,1.329
-6.31,256.335,1.386
-6.27,258.266,1.226
-6.24,259.81,0.939
-6.21,261.143,0.997
-6.18,262.898,1.306
-6.14,264.828,1.363
-6.11,266.759,1.272
-6.08,268.619,1.34
-6.05,270.514,1.34
-6.01,272.163,0.997
-5.98,273.286,0.871
-5.95,274.48,1.031
-5.92,275.919,1.134
-5.88,277.428,1.157
-5.85,279.077,1.237
-5.82,280.692,1.157
-5.79,282.06,0.951
-5.75,283.148,0.859
-5.72,284.236,0.951
-5.69,285.5,1.031
-5.66,286.798,0.997
-5.62,288.097,0.974
-5.59,289.325,1.031
-5.56,290.729,1.1
-5.53,292.133,1.065
-5.49,293.396,0.962
-5.46,294.554,0.916
-5.43,295.537,0.825
-5.4,296.344,0.756
-5.36,297.186,0.882
-5.33,298.134,0.951
-5.3,299.117,0.859
-5.27,299.748,0.664
-5.23,300.064,0.458
-5.2,299.994,0.298
-5.17,299.818,0.229
-5.14,299.678,0.378
-5.1,299.994,0.722
-5.07,300.731,0.894
-5.04,301.573,0.802
-5.01,302.24,0.699
-4.97,302.872,0.802
-4.94,303.714,0.951
-4.91,304.1,0.367
-4.88,303.854,0.172
-4.84,303.889,0.584
-4.81,304.24,0.642
-4.78,304.17,0.218
-4.75,303.539,-0.08
-4.71,302.591,-0.16
-4.68,301.363,-0.344
-4.65,299.889,-0.504
-4.62,298.52,-0.229
-4.58,297.853,0.241
-4.55,298.169,0.882
-4.52,300.134,2.051
-4.49,303.784,2.83
-4.45,307.329,2.051
-4.42,309.47,1.306
-4.39,310.979,1.306
-4.36,312.312,1.134
-4.32,312.769,0.481
-4.29,311.821,-0.412
-4.26,309.224,-1.363
-4.23,305.048,-2.165
-4.19,299.889,-2.577
-4.16,294.519,-2.463
-4.13,289.711,-1.959
-4.1,286.166,-1.237
-4.06,283.92,-0.424
-4.03,282.867,0.137
-4.0,282.481,0.183
-3.97,281.779,-0.08
-3.93,280.586,-0.401
-3.9,278.796,-0.722
-3.87,276.656,-0.871
-3.84,274.409,-0.825
-3.8,272.339,-0.676
-3.77,270.619,-0.47
-3.74,269.18,-0.367
-3.71,267.741,-0.401
-3.67,266.232,-0.504
-3.64,264.618,-0.584
-3.61,262.863,-0.607
-3.58,261.108,-0.596
-3.54,259.529,-0.47
-3.51,258.195,-0.344
-3.48,257.002,-0.309
-3.45,255.563,-0.47
-3.41,253.949,-0.699
-3.38,251.703,-1.088
-3.35,248.965,-1.272
-3.32,246.509,-0.939
-3.28,244.508,-0.722
-3.25,242.403,-0.916
-3.22,240.262,-0.928
-3.19,238.226,-0.745
-3.15,236.261,-0.859
-3.12,234.19,-0.916
-3.09,232.19,-0.825
-3.06,230.19,-0.813
-3.02,228.294,-0.836
-2.99,226.294,-0.825
-2.96,224.223,-0.962
-2.93,221.767,-1.226
-2.89,218.959,-1.432
-2.86,215.976,-1.398
-2.83,213.028,-1.375
-2.8,210.22,-1.26
-2.76,207.869,-0.997
-2.73,205.869,-0.768
-2.7,203.763,-1.02
-2.67,201.166,-1.409
-2.63,198.148,-1.478
-2.6,195.059,-1.501
-2.57,191.795,-1.627
-2.54,188.531,-1.478
-2.5,185.899,-1.157
-2.47,183.618,-0.951
-2.44,181.091,-1.306
-2.41,177.898,-1.776
-2.37,174.423,-1.707
-2.34,170.528,-2.051
-2.31,163.193,-5.212
-2.28,150.874,-7.824
-2.24,137.363,-6.782
-2.21,127.08,-4.479
-2.18,121.359,-1.81
-2.15,120.868,1.008
-2.11,124.167,2.669
-2.08,129.291,3.219
-2.05,134.625,3.013
-2.02,138.766,1.993
-1.98,140.451,0.367
-1.95,139.223,-1.26
-1.92,135.608,-2.314
-1.89,130.624,-2.875
-1.85,124.974,-3.162
-1.82,119.078,-3.127
-1.79,113.849,-2.52
-1.76,109.953,-1.615
-1.72,107.462,-0.962
-1.69,105.672,-0.768
-1.66,104.057,-0.768
-1.63,102.162,-1.031
-1.59,99.39,-1.73
-1.56,95.354,-2.451
-1.53,90.44,-2.749
-1.5,85.387,-2.692
-1.46,80.649,-2.406
-1.43,76.578,-1.982
-1.4,73.279,-1.524
-1.37,70.612,-1.283
-1.33,68.19,-1.306
-1.3,65.417,-1.512
-1.27,62.434,-1.673
-1.24,59.135,-1.799
-1.2,55.626,-1.925
-1.17,51.941,-1.97
-1.14,48.221,-2.005
-1.11,44.29,-2.131
-1.07,40.184,-2.222
-1.04,35.938,-2.325
-1.01,31.586,-2.28
-0.98,27.444,-2.165
-0.94,23.373,-2.108
-0.91,19.513,-2.028
-0.88,15.793,-1.936
-0.85,12.108,-1.925
-0.81,8.739,-1.776
-0.78,5.475,-1.65
-0.75,2.457,-1.558
-0.72,-0.597,-1.638
-0.68,-3.86,-1.799
-0.65,-7.37,-1.947
-0.62,-11.02,-1.947
-0.59,-14.67,-1.936
-0.55,-18.25,-2.028
-0.52,-22.145,-2.131
-0.49,-26.076,-2.154
-0.46,-29.901,-2.188
-0.42,-33.797,-2.165
-0.39,-37.552,-2.085
-0.36,-41.096,-1.936
-0.33,-44.501,-1.867
-0.29,-47.905,-1.993
-0.26,-51.625,-2.142
-0.23,-55.38,-2.073
-0.2,-58.96,-2.062
-0.16,-62.75,-2.188
-0.13,-66.716,-2.268
-0.1,-70.647,-2.177
-0.07,-74.472,-2.108
-0.03,-78.192,-2.096
0.0,-81.772,-1.993
0.03,-85.246,-1.913
0.07,-88.651,-1.902
0.1,-91.985,-1.913
0.13,-95.529,-2.005
0.16,-99.109,-2.051
0.2,-102.759,-2.051
0.23,-106.374,-2.028
0.26,-109.778,-1.936
0.29,-113.007,-1.753
0.33,-116.025,-1.684
0.36,-119.043,-1.741
0.39,-122.166,-1.821
0.42,-125.465,-1.89
0.46,-128.729,-1.844
0.49,-131.993,-1.867
0.52,-135.362,-1.947
0.55,-138.872,-2.016
0.59,-142.416,-2.051
0.62,-146.136,-2.131
0.65,-150.102,-2.291
0.68,-154.103,-2.314
0.72,-157.718,-1.925
0.75,-160.666,-1.535
0.78,-163.403,-1.569
0.81,-166.141,-1.615
0.85,-168.913,-1.581
0.88,-171.896,-1.833
0.91,-175.441,-2.131
0.94,-179.091,-2.131
0.98,-182.565,-1.925
1.01,-185.759,-1.741
1.04,-188.531,-1.489
1.07,-190.883,-1.26
1.11,-192.953,-1.214
1.14,-195.305,-1.455
1.17,-197.937,-1.673
1.2,-200.815,-1.684
1.24,-203.587,-1.627
1.27,-206.325,-1.604
1.3,-208.992,-1.501
1.33,-211.378,-1.386
1.37,-213.625,-1.34
1.4,-216.046,-1.501
1.43,-218.643,-1.604
1.46,-221.24,-1.512
1.5,-223.592,-1.409
1.53,-225.908,-1.375
1.56,-228.049,-1.26
1.59,-230.049,-1.226
1.63,-232.12,-1.306
1.66,-234.331,-1.42
1.69,-236.717,-1.478
1.72,-239.139,-1.489
1.76,-241.455,-1.409
1.79,-243.561,-1.34
1.82,-245.596,-1.18
1.85,-247.316,-1.146
1.89,-249.106,-1.214
1.92,-250.861,-1.134
1.95,-252.51,-1.1
1.98,-254.265,-1.272
2.02,-256.23,-1.26
2.05,-257.915,-1.1
2.08,-259.459,-0.985
2.11,-261.038,-1.168
2.15,-262.933,-1.352
2.18,-264.899,-1.294
2.21,-266.759,-1.226
2.24,-268.408,-1.088
2.28,-269.952,-1.008
2.31,-271.356,-1.031
2.34,-272.795,-1.042
2.37,-274.339,-1.111
2.41,-275.954,-1.18
2.44,-277.744,-1.317
2.47,-279.568,-1.203
2.5,-280.902,-0.916
2.54,-281.955,-0.79
2.57,-282.867,-0.745
2.6,-283.604,-0.642
2.63,-284.271,-0.687
2.67,-285.184,-0.882
2.7,-286.482,-1.02
2.73,-287.921,-1.134
2.76,-289.571,-1.26
2.8,-291.36,-1.226
2.83,-292.87,-1.02
2.86,-294.028,-0.848
2.89,-294.905,-0.733
2.93,-295.677,-0.676
2.96,-296.519,-0.836
2.99,-297.572,-0.939
3.02,-298.695,-0.916
3.06,-299.573,-0.664
3.09,-300.169,-0.653
3.12,-300.52,-0.481
3.15,-300.24,0.057
3.19,-299.467,0.103
3.22,-299.222,-0.458
3.25,-299.854,-0.825
3.28,-300.52,-0.687
3.32,-301.047,-0.596
3.35,-301.468,-0.573
3.38,-301.643,-0.378
3.41,-301.398,-0.034
3.45,-300.52,0.16
3.48,-299.889,-0.08
3.51,-299.608,-0.309
3.54,-299.608,-0.412
3.58,-299.854,-0.515
3.61,-300.064,-0.481
3.64,-300.134,-0.286
3.67,-299.713,-0.08
3.71,-299.222,-0.126
3.74,-299.011,-0.424
3.77,-299.257,-0.664
3.8,-299.643,-0.619
3.84,-299.783,-0.412
3.87,-299.432,-0.046
3.9,-298.309,0.378
3.93,-296.66,0.63
3.97,-294.835,0.55
4.0,-293.466,0.149
4.03,-292.834,-0.218
4.06,-292.589,-0.367
4.1,-292.378,-0.263
4.13,-291.817,0.057
4.16,-290.518,0.447
4.19,-288.728,0.71
4.23,-286.693,0.687
4.26,-285.008,0.424
4.29,-283.745,0.183
4.32,-282.867,0.08
4.36,-281.92,0.092
4.39,-280.867,0.344
4.42,-279.253,0.642
4.45,-277.322,0.756
4.49,-275.392,0.676
4.52,-273.672,0.55
4.55,-272.163,0.435
4.58,-270.935,0.252
4.62,-269.917,0.126
4.65,-268.9,0.309
4.68,-267.496,0.573
4.71,-265.811,0.619
4.75,-264.021,0.63
4.78,-262.196,0.745
4.81,-260.091,0.882
4.84,-257.95,0.848
4.88,-255.914,0.756
4.91,-253.879,0.859
4.94,-251.808,0.825
4.97,-249.948,0.607
5.01,-248.193,0.768
5.04,-245.982,1.042
5.07,-243.456,1.157
5.1,-240.929,1.146
5.14,-238.472,1.02
5.17,-236.226,0.928
5.2,-234.12,0.882
5.23,-232.19,0.768
5.27,-230.4,0.699
5.3,-228.61,0.756
5.33,-226.715,0.871
5.36,-224.785,0.848
5.4,-222.609,1.077
5.43,-220.082,1.294
5.46,-217.029,1.627
5.49,-213.765,1.65
5.53,-211.028,1.077
5.56,-209.097,0.756
5.59,-207.518,0.653
5.62,-206.044,0.642
5.66,-204.324,0.871
5.69,-201.938,1.409
5.72,-198.674,1.81
5.75,-194.849,2.062
5.79,-190.742,2.211
5.82,-186.707,1.97
5.85,-183.302,1.524
5.88,-180.495,1.283
5.92,-177.863,1.272
5.95,-175.336,1.26
5.98,-172.704,1.352
6.01,-169.756,1.558
6.05,-166.386,1.821
6.08,-163.017,1.627
6.11,-160.034,1.398
6.14,-156.911,1.684
6.18,-153.506,1.81
6.21,-149.821,1.959
6.24,-145.926,2.051
6.27,-142.065,1.97
6.31,-138.416,1.821
6.34,-134.976,1.707
6.37,-131.888,1.535
6.4,-129.01,1.489
6.44,-126.167,1.558
6.47,-122.903,1.787
6.5,-119.218,2.016
6.53,-115.323,2.154
6.57,-111.357,2.062
6.6,-107.637,1.81
6.63,-104.443,1.592
6.66,-101.636,1.432
6.7,-99.074,1.306
6.73,-96.371,1.443
6.76,-93.388,1.73
6.79,-89.949,1.959
6.83,-86.229,1.993
6.86,-82.544,1.97
6.89,-78.929,1.913
6.92,-75.49,1.821
6.96,-72.156,1.776
6.99,-68.646,1.947
7.02,-64.856,2.154
7.05,-60.715,2.268
7.09,-56.573,2.28
7.12,-52.397,2.211
7.15,-48.361,2.085
7.18,-44.641,1.97
7.22,-41.132,1.867
7.25,-37.657,1.867
7.28,-34.253,1.799
7.31,-31.024,1.718
7.35,-27.76,1.707
7.38,-24.602,1.73
7.41,-21.408,1.718
7.44,-18.144,1.741
7.48,-14.915,1.776
7.51,-11.511,1.879
7.54,-7.861,1.993
7.57,-4.071,2.096
7.61,-0.105,2.154
7.64,3.825,2.096
7.67,7.651,2.005
7.7,11.406,2.039
7.74,15.337,2.211
7.77,19.373,2.245
7.8,23.409,2.199
7.83,27.339,2.222
7.87,31.27,2.211
7.9,35.165,2.222
7.93,39.061,2.199
7.96,42.851,2.142
8.0,46.431,1.959
8.03,49.765,1.833
8.06,52.888,1.776
8.09,55.977,1.707
8.13,58.96,1.73
8.16,62.083,1.879
8.19,65.453,1.947
8.22,68.822,1.913
8.26,71.98,1.73
8.29,74.928,1.707
8.32,78.157,1.902
8.35,81.491,1.959
8.39,85.001,2.051
8.42,88.791,2.291
8.45,93.002,2.451
8.48,97.249,2.497
8.52,101.776,2.623
8.55,106.303,2.52
8.58,110.48,2.268
8.61,114.165,1.982
8.65,117.218,1.661
8.68,119.745,1.306
8.71,122.096,1.306
8.74,124.623,1.65
8.78,127.711,1.879
8.81,131.116,2.039
8.84,134.485,1.902
8.87,138.029,2.188
8.91,142.065,2.429
8.94,146.101,2.303
8.97,150.137,2.36
9.0,154.208,2.303
9.04,157.893,2.005
9.07,160.912,1.592
9.1,163.474,1.42
9.13,165.895,1.466
9.17,168.527,1.615
9.2,171.44,1.81
9.23,174.844,2.073
9.26,178.459,2.177
9.3,182.179,2.119
9.33,185.513,1.902
9.36,188.531,1.615
9.39,190.953,1.352
9.43,193.094,1.283
9.46,195.305,1.352
9.49,197.621,1.478
9.52,200.253,1.558
9.56,202.815,1.592
9.59,205.377,1.524
9.62,207.834,1.443
9.65,210.045,1.34
9.69,212.221,1.352
9.72,214.502,1.478
9.75,216.959,1.592
9.78,219.591,1.627
9.82,222.328,1.695
9.85,224.96,1.535
9.88,227.136,1.249
9.91,228.891,1.123
9.95,230.751,1.191
9.98,232.716,1.34
10.01,234.962,1.42
10.04,237.279,1.512
10.08,239.771,1.627
10.11,242.227,1.455
10.14,244.228,1.191
10.17,246.123,1.226
10.21,248.018,1.283
10.24,249.983,1.237
10.27,251.633,1.088
10.3,253.282,1.134
10.34,255.107,1.294
10.37,257.072,1.26
10.4,258.862,1.146
10.43,260.582,1.226
10.47,262.512,1.375
10.5,264.407,1.26
10.53,266.162,1.123
10.56,267.847,1.26
10.6,269.707,1.352
10.63,271.461,1.146
10.66,272.725,0.871
10.69,273.637,0.722
10.73,274.796,1.031
10.76,276.375,1.283
10.79,278.305,1.398
10.82,280.165,1.237
10.86,281.674,0.997
10.89,282.762,0.813
10.92,283.569,0.733
10.95,284.447,0.825
10.99,285.57,0.939
11.02,286.763,1.008
11.05,288.132,1.088
11.08,289.641,1.157
11.12,291.115,1.168
11.15,292.554,1.02
11.18,293.747,0.894
11.21,294.73,0.836
11.25,295.607,0.768
11.28,296.484,0.779
11.31,297.432,0.916
11.34,298.59,0.962
11.38,299.573,0.825
11.41,300.24,0.607
11.44,300.591,0.47
11.47,300.626,0.367
11.51,300.626,0.344
11.54,300.696,0.515
11.57,301.398,0.951
11.6,302.065,0.653
11.64,302.275,0.401
11.67,302.521,0.653
11.7,302.907,0.596
11.73,303.188,0.481
11.77,303.082,0.275
11.8,302.907,0.344
11.83,302.977,0.515
11.86,303.082,0.481
11.9,303.047,0.275
11.93,302.486,0.034
11.96,301.538,-0.252
11.99,300.275,-0.332
12.03,299.257,-0.023
12.06,299.503,0.997
12.09,301.398,1.959
12.12,303.889,1.73
12.16,305.293,0.894
12.19,305.714,0.493
12.22,305.223,0.034
12.25,303.539,-0.859
12.29,300.555,-1.489
12.32,296.941,-1.638
12.35,293.326,-1.432
12.38,290.343,-1.031
12.42,288.237,-0.527
12.45,286.938,-0.126
12.48,286.096,0.057
12.51,285.324,0.011
12.55,284.482,-0.16
12.58,283.218,-0.332
12.61,281.85,-0.401
12.64,280.341,-0.447
12.68,278.761,-0.447
12.71,277.252,-0.412
12.74,275.813,-0.367
12.77,274.515,-0.286
12.81,273.427,-0.172
12.84,272.479,-0.08
12.87,271.707,-0.034
12.9,270.97,0.0
12.94,270.338,0.0
12.97,269.461,-0.172
13.0,268.198,-0.447
13.03,266.443,-0.664
13.07,264.513,-0.733
13.1,262.442,-0.905
13.13,260.02,-1.031
13.16,257.774,-0.745
13.2,255.984,-0.63
13.23,253.914,-0.962
13.26,251.352,-1.226
13.29,248.825,-1.031
13.33,246.509,-0.916
13.36,244.333,-0.974
13.39,242.087,-0.951
13.42,240.086,-0.722
13.46,238.402,-0.584
13.49,236.717,-0.768
13.52,234.752,-0.916
13.55,232.611,-0.871
13.59,230.646,-0.836
13.62,228.575,-0.985
13.65,226.294,-0.997
13.68,224.153,-0.848
13.72,222.328,-0.71
13.75,220.468,-0.848
13.78,218.292,-1.031
13.81,215.941,-1.123
13.85,213.414,-1.168
13.88,210.712,-1.317
13.91,208.08,-1.146
13.94,205.553,-1.18
13.98,202.745,-1.375
14.01,200.008,-1.306
14.04,197.411,-1.134
14.07,194.884,-1.18
14.11,191.83,-1.695
14.14,188.426,-1.684
14.17,185.338,-1.283
14.2,182.671,-1.226
14.24,179.863,-1.443
14.27,177.02,-1.317
14.3,173.967,-1.535
14.33,170.879,-1.478
14.37,167.825,-1.501
14.4,164.702,-1.546
14.43,161.473,-1.615
14.46,158.209,-1.615
14.5,154.559,-2.016
14.53,150.313,-2.303
14.56,145.996,-2.199
14.59,141.96,-1.925
14.63,138.416,-1.718
14.66,135.432,-1.352
14.69,133.116,-0.928
14.72,131.361,-0.813
14.76,129.431,-0.951
14.79,127.29,-1.214
14.82,124.448,-1.627
14.85,120.798,-2.073
14.89,116.621,-2.406
14.92,112.199,-2.291
14.95,108.093,-2.039
14.98,104.303,-1.902
15.02,100.758,-1.764
15.05,97.459,-1.661
15.08,94.266,-1.707
15.11,90.826,-1.844
15.15,87.212,-2.005
15.18,83.421,-2.005
15.21,79.701,-1.97
15.24,75.981,-1.959
15.28,72.296,-1.947
15.31,68.716,-1.844
15.34,65.242,-1.821
15.37,61.732,-1.902
15.41,58.012,-2.005
15.44,54.362,-1.97
15.47,50.748,-1.833
15.5,47.343,-1.776
15.54,44.08,-1.73
15.57,40.886,-1.627
15.6,37.868,-1.627
15.63,34.499,-1.867
15.67,30.814,-2.073
15.7,26.813,-2.188
15.73,22.601,-2.28
15.76,18.214,-2.337
15.8,13.898,-2.28
15.83,9.756,-2.142
15.86,5.826,-2.039
15.89,2.036,-1.947
15.93,-1.404,-1.833
15.96,-4.878,-1.787
15.99,-8.247,-1.718
16.02,-11.441,-1.695
16.06,-14.845,-1.913
16.09,-18.53,-2.062
16.12,-22.426,-2.073
16.15,-26.181,-2.062
16.19,-29.831,-2.051
16.22,-33.446,-1.993
16.25,-36.92,-1.936
16.28,-40.359,-1.925
16.32,-43.799,-1.936
16.35,-47.238,-1.902
16.38,-50.502,-1.902
16.41,-54.082,-2.051
16.45,-57.837,-2.177
16.48,-61.662,-2.177
16.51,-65.488,-2.154
16.54,-69.313,-2.154
16.58,-73.033,-2.028
16.61,-76.472,-1.89
16.64,-79.666,-1.741
16.67,-82.755,-1.718
16.71,-85.913,-1.833
16.74,-89.282,-1.97
16.77,-92.897,-2.096
16.8,-96.863,-2.303
16.84,-100.934,-2.291
16.87,-104.689,-2.073
16.9,-108.058,-1.764
16.93,-110.971,-1.546
16.97,-113.498,-1.363
17.0,-115.814,-1.306
17.03,-118.411,-1.65
17.06,-121.78,-2.154
17.1,-125.922,-2.543
17.13,-130.379,-2.474
17.16,-134.906,-2.623
17.19,-139.539,-2.589
17.23,-143.61,-2.142
17.26,-147.049,-1.787
17.29,-150.172,-1.81
17.32,-153.471,-1.97
17.36,-156.665,-1.776
17.39,-159.367,-1.375
17.42,-161.649,-1.386
17.45,-164.316,-1.695
17.49,-167.334,-1.799
17.52,-170.528,-1.913
17.55,-174.142,-2.199
17.58,-178.038,-2.268
17.62,-181.793,-2.062
17.65,-185.162,-1.833
17.68,-188.04,-1.558
17.71,-190.497,-1.283
17.75,-192.532,-1.134
17.78,-194.568,-1.249
17.81,-196.954,-1.535
17.84,-199.762,-1.707
17.88,-202.675,-1.707
17.91,-205.518,-1.638
17.94,-208.255,-1.535
17.97,-210.677,-1.398
18.01,-212.852,-1.226
18.04,-214.923,-1.237
18.07,-217.169,-1.398
18.1,-219.521,-1.455
18.14,-221.872,-1.409
18.17,-224.188,-1.375
18.2,-226.434,-1.317
18.23,-228.54,-1.283
18.27,-230.681,-1.306
18.3,-232.822,-1.352
18.33,-235.103,-1.42
18.36,-237.384,-1.432
18.4,-239.595,-1.306
18.43,-241.49,-1.168
18.46,-243.14,-1.042
18.49,-244.614,-0.951
18.53,-246.088,-1.02
18.56,-247.737,-1.123
18.59,-249.457,-1.157
18.62,-251.562,-1.524
18.66,-254.16,-1.776
18.69,-256.757,-1.535
18.72,-258.862,-1.226
18.75,-260.652,-1.203
18.79,-262.407,-1.203
18.82,-264.056,-1.054
18.85,-265.565,-1.042
18.88,-267.25,-1.214
18.92,-269.145,-1.34
18.95,-270.9,-1.214
18.98,-272.444,-0.985
19.01,-273.743,-0.916
19.05,-274.971,-0.916
19.08,-276.234,-0.974
19.11,-277.708,-1.18
19.14,-279.428,-1.26
19.18,-281.007,-1.02
19.21,-282.201,-0.79
19.24,-283.113,-0.79
19.27,-284.131,-0.859
19.31,-285.219,-0.871
19.34,-286.307,-0.928
19.37,-287.57,-1.008
19.4,-288.904,-1.054
19.44,-290.413,-1.111
19.47,-291.747,-1.031
19.5,-293.01,-0.962
19.53,-294.203,-0.939
19.57,-295.01,-0.596
19.6,-295.432,-0.504
19.63,-295.958,-0.653
19.66,-296.765,-0.825
19.7,-297.748,-0.836
19.73,-298.555,-0.653
19.76,-299.081,-0.619
19.79,-299.713,-0.63
19.83,-299.783,-0.126
19.86,-299.467,-0.069
19.89,-299.327,-0.389
19.92,-299.818,-0.699
19.96,-300.485,-0.619
19.99,-300.941,-0.504
20.02,-301.468,-0.676
20.05,-302.029,-0.642
20.09,-302.17,-0.298
20.12,-302.029,-0.206
20.15,-301.959,-0.401
20.18,-302.135,-0.458
20.22,-302.135,-0.309
20.25,-301.924,-0.172
20.28,-301.433,-0.023
20.31,-300.591,0.172
20.35,-299.503,0.229
20.38,-298.66,-0.034
20.41,-298.415,-0.47
20.44,-298.801,-0.722
20.48,-299.292,-0.642
20.51,-299.432,-0.355
20.54,-298.941,0.069
20.57,-297.678,0.447
20.61,-295.923,0.664
20.64,-294.203,0.47
20.67,-293.045,0.046
20.7,-292.519,-0.241
20.74,-292.308,-0.286
20.77,-291.782,-0.092
20.8,-290.939,0.275
20.83,-289.29,0.619
20.87,-287.289,0.802
20.9,-285.219,0.653
20.93,-283.64,0.332
20.96,-282.622,0.08
21.0,-281.885,-0.057
21.03,-281.183,-0.023
21.06,-280.235,0.229
21.09,-278.937,0.458
21.13,-277.287,0.584
21.16,-275.568,0.584
21.19,-273.918,0.573
21.22,-272.234,0.561
21.26,-270.619,0.504
21.29,-268.97,0.619
21.32,-266.969,0.928
21.35,-264.583,1.02
21.39,-262.302,0.905
21.42,-260.196,0.802
21.45,-258.266,0.779
21.48,-256.441,0.584
21.52,-255.283,0.126
21.55,-254.405,0.218
21.58,-253.001,0.699
21.61,-250.931,0.951
21.65,-248.79,0.916
21.68,-246.439,1.008
21.71,-244.017,1.157
21.74,-241.595,0.962
21.78,-239.7,0.642
21.81,-238.051,0.607
21.84,-236.472,0.642
21.87,-234.927,0.596
21.91,-233.348,0.619
21.94,-231.558,0.836
21.97,-229.347,1.088
22.0,-226.926,1.168
22.04,-224.294,1.249
22.07,-221.416,1.478
22.1,-218.257,1.604
22.13,-215.028,1.558
22.17,-212.01,1.432
22.2,-209.238,1.214
22.23,-206.992,0.905
22.26,-205.167,0.779
22.3,-203.342,0.836
22.33,-201.166,1.123
22.36,-198.534,1.398
22.39,-195.305,1.856
22.43,-191.795,1.787
22.46,-188.602,1.443
22.49,-185.899,1.249
22.52,-183.548,1.088
22.56,-181.302,1.1
22.59,-178.81,1.34
22.62,-175.862,1.627
22.65,-172.423,1.902
22.69,-168.562,2.085
22.72,-164.491,2.096
22.75,-160.982,1.615
22.78,-157.788,1.558
22.82,-154.63,1.65
22.85,-151.471,1.592
22.88,-148.172,1.707
22.91,-144.803,1.753
22.95,-141.399,1.764
22.98,-137.994,1.776
23.01,-134.59,1.695
23.04,-131.467,1.615
23.08,-128.378,1.627
23.11,-125.29,1.569
23.14,-122.202,1.638
23.17,-118.903,1.867
23.21,-115.182,1.993
23.24,-111.568,1.879
23.27,-108.163,1.695
23.3,-105.005,1.65
23.34,-101.881,1.65
23.37,-98.723,1.695
23.4,-95.354,1.89
23.43,-91.599,2.119
23.47,-87.633,2.165
23.5,-83.667,2.096
23.53,-79.842,2.039
23.56,-76.086,1.993
23.6,-72.542,1.867
23.63,-69.138,1.787
23.66,-65.768,1.799
23.69,-62.364,1.833
23.73,-58.855,1.902
23.76,-55.38,1.902
23.79,-51.836,1.902
23.82,-48.291,1.936
23.86,-44.711,1.947
23.89,-41.026,2.005
23.92,-37.166,2.119
23.95,-33.34,2.062
23.99,-29.585,1.982
24.02,-26.006,1.902
24.05,-22.566,1.833
24.08,-19.232,1.776
24.12,-15.898,1.799
24.15,-12.318,2.005
24.18,-8.458,2.199
24.21,-4.317,2.222
24.25,-0.246,2.188
24.28,3.79,2.154
24.31,7.651,2.051
24.34,11.371,1.959
24.38,14.915,1.879
24.41,18.355,1.89
24.44,21.759,1.867
24.47,24.847,1.661
24.51,27.831,1.661
24.54,30.884,1.81
24.57,34.113,1.879
24.6,37.376,1.89
24.64,40.816,1.982
24.67,44.36,2.073
24.7,47.975,2.073
24.73,51.66,2.073
24.77,55.24,2.051
24.8,58.784,2.028
24.83,62.364,2.073
24.86,66.084,2.154
24.9,69.945,2.245
24.93,73.981,2.348
24.96,78.157,2.406
24.99,82.298,2.348
25.03,86.334,2.245
25.06,90.23,2.199
25.09,94.055,2.142
25.12,97.635,2.028
25.16,101.109,1.913
25.19,104.303,1.776
25.22,107.251,1.684
25.25,110.129,1.65
25.29,113.077,1.695
25.32,116.2,1.925
25.35,119.78,2.188
25.38,123.676,2.28
25.42,127.711,2.314
25.45,131.607,2.234
25.48,135.222,1.902
25.51,138.345,1.764
25.55,141.399,1.833
25.58,144.733,1.993
25.61,148.102,1.982
25.64,151.646,2.073
25.68,155.261,2.154
25.71,158.665,1.879
25.74,161.613,1.524
25.77,164.175,1.489
25.81,166.843,1.638
25.84,169.65,1.638
25.87,172.598,1.799
25.9,176.003,2.085
25.94,179.617,2.188
25.97,183.232,2.028
26.0,186.496,1.787
26.03,189.233,1.535
26.07,191.655,1.386
26.1,193.901,1.375
26.13,196.358,1.524
26.16,199.095,1.718
26.2,201.973,1.776
26.23,204.851,1.707
26.26,207.553,1.535
26.29,209.834,1.306
26.33,211.87,1.146
26.36,213.73,1.249
26.39,215.906,1.455
26.42,218.327,1.569
26.46,220.959,1.627
26.49,223.557,1.604
26.52,225.873,1.329
26.55,227.768,1.134
26.59,229.523,1.157
26.62,231.488,1.34
26.65,233.699,1.443
26.68,236.015,1.501
26.72,238.542,1.661
26.75,241.245,1.673
26.78,243.491,1.283
26.81,245.245,1.088
26.85,246.965,1.214
26.88,248.965,1.306
26.91,250.896,1.237
26.94,252.65,1.168
26.98,254.44,1.226
27.01,256.23,1.203
27.04,257.88,1.065
27.07,259.424,1.065
27.11,261.073,1.226
27.14,262.933,1.249
27.17,264.618,1.168
27.2,266.408,1.226
27.24,268.303,1.352
27.27,270.233,1.34
27.3,271.953,1.146
27.33,273.462,1.065
27.37,274.901,1.146
27.4,276.48,1.157
27.43,278.094,1.111
27.46,279.533,1.088
27.5,280.797,0.962
27.53,281.92,0.859
27.56,282.867,0.768
27.59,283.815,0.825
27.63,284.903,0.939
27.66,286.201,1.02
27.69,287.535,1.077
27.72,288.974,1.123
27.76,290.448,1.146
27.79,291.992,1.111
27.82,293.256,0.997
27.85,294.449,0.916
27.89,295.537,0.859
27.92,296.414,0.825
27.95,297.362,0.871
27.98,298.415,0.928
28.02,299.467,0.848
28.05,300.24,0.687
28.08,300.766,0.493
28.11,300.871,0.321
28.15,300.661,0.195
28.18,300.415,0.241
28.21,300.52,0.573
28.24,301.117,0.848
28.28,301.854,0.745
28.31,302.415,0.607
28.34,302.731,0.584
28.37,303.258,0.745
28.41,303.363,0.218
28.44,302.626,-0.149
28.47,302.17,0.344
28.5,302.38,0.71
28.54,302.696,0.435
28.57,302.521,0.218
28.6,302.135,0.195
28.63,301.328,-0.069
28.67,300.064,-0.401
28.7,298.836,-0.103
28.73,298.59,0.699
28.76,299.432,1.157
28.8,300.661,1.146
28.83,301.643,0.836
28.86,301.714,0.286
28.89,300.661,-0.389
28.93,298.625,-0.928
28.96,296.028,-1.008
28.99,293.677,-0.687
29.02,292.027,-0.298
29.06,291.045,0.034
29.09,290.518,0.195
29.12,289.922,0.092
29.16,289.044,-0.195
29.19,287.675,-0.481
29.22,285.921,-0.619
29.25,284.131,-0.515
29.29,282.622,-0.378
29.32,281.288,-0.286
29.35,280.165,-0.195
29.38,279.042,-0.241
29.42,277.673,-0.412
29.45,276.199,-0.504
29.48,274.585,-0.47
29.51,273.111,-0.435
29.55,271.672,-0.378
29.58,270.409,-0.252
29.61,269.321,-0.172
29.64,268.233,-0.252
29.68,266.934,-0.389
29.71,265.425,-0.458
29.74,263.846,-0.515
29.77,261.916,-0.882
29.81,259.564,-0.939
29.84,257.353,-0.836
29.87,254.932,-1.008
29.9,252.089,-1.398
29.94,249.141,-1.283
29.97,246.79,-0.733
30.0,245.07,-0.573
30.03,243.491,-0.596
30.07,242.157,-0.389
30.1,241.28,-0.115
30.13,240.437,-0.263
30.16,239.104,-0.63
30.2,237.244,-0.894
30.23,234.998,-1.042
30.26,232.471,-1.226
30.29,229.768,-1.317
30.33,226.996,-1.272
30.36,224.399,-1.111
30.39,222.047,-1.1
30.42,219.45,-1.203
30.46,216.888,-1.249
30.49,214.151,-1.272
30.52,211.378,-1.375
30.55,208.676,-1.249
30.59,206.219,-0.997
30.62,204.079,-0.928
30.65,201.797,-1.123
30.68,199.165,-1.352
30.72,196.182,-1.478
30.75,192.989,-1.661
30.78,189.479,-1.787
30.81,186.005,-1.627
30.85,182.951,-1.317
30.88,180.319,-1.191
30.91,177.757,-1.226
30.94,175.125,-1.226
30.98,172.423,-1.317
31.01,169.405,-1.581
31.04,166.141,-1.604
31.07,162.982,-1.489
31.11,159.859,-1.581
31.14,156.63,-1.489
31.17,153.12,-1.97
31.2,149.4,-1.833
31.24,145.856,-1.73
31.27,142.276,-1.925
31.3,138.837,-1.65
31.33,135.818,-1.352
31.37,133.292,-1.237
31.4,130.695,-1.386
31.43,127.711,-1.627
31.46,124.307,-1.879
31.5,120.482,-2.096
31.53,116.27,-2.28
31.56,111.989,-2.245
31.59,107.988,-2.016
31.63,104.233,-1.867
31.66,100.829,-1.741
31.69,97.565,-1.615
31.72,94.511,-1.615
31.76,91.388,-1.65
31.79,88.194,-1.707
31.82,84.86,-1.776
31.85,81.456,-1.799
31.89,78.122,-1.81
31.92,74.683,-1.81
31.95,71.278,-1.833
31.98,67.769,-1.867
32.02,64.224,-1.867
32.05,60.715,-1.925
32.08,56.995,-1.993
32.11,53.239,-1.982
32.15,49.519,-1.947
32.18,45.905,-1.913
32.21,42.29,-1.959
32.24,38.71,-1.844
32.28,35.271,-1.833
32.31,31.586,-1.993
32.34,27.725,-2.108
32.37,23.759,-2.108
32.41,19.829,-2.085
32.44,15.933,-2.051
32.47,12.108,-2.016
32.5,8.353,-1.936
32.54,4.738,-1.959
32.57,0.948,-2.005
32.6,-2.808,-2.028
32.63,-6.598,-2.005
32.67,-10.283,-1.902
32.7,-13.722,-1.764
32.73,-16.916,-1.695
32.76,-20.11,-1.741
32.8,-23.373,-1.787
32.83,-26.462,-1.661
32.86,-29.41,-1.661
32.89,-32.603,-1.844
32.93,-36.043,-2.005
32.96,-39.658,-2.051
32.99,-43.378,-2.108
33.02,-47.168,-2.188
33.06,-51.028,-2.142
33.09,-54.749,-2.073
33.12,-58.434,-2.085
33.15,-62.189,-2.096
33.19,-65.839,-2.062
33.22,-69.524,-2.073
33.25,-73.314,-2.142
33.28,-77.104,-2.177
33.32,-80.965,-2.188
33.35,-84.755,-2.131
33.38,-88.545,-2.131
33.41,-92.336,-2.108
33.45,-96.056,-2.108
33.48,-99.741,-2.073
33.51,-103.355,-1.97
33.54,-106.654,-1.81
33.58,-109.673,-1.684
33.61,-112.585,-1.707
33.64,-115.779,-1.867
33.67,-119.113,-1.947
33.71,-122.693,-2.062
33.74,-126.483,-2.222
33.77,-130.379,-2.222
33.8,-134.134,-2.062
33.84,-137.784,-2.039
33.87,-141.469,-2.108
33.9,-144.978,-1.913
33.93,-148.488,-2.131
33.97,-152.348,-2.211
34.0,-155.823,-1.879
34.03,-158.595,-1.466
34.06,-160.771,-1.134
34.1,-162.772,-1.214
34.13,-164.983,-1.386
34.16,-167.439,-1.546
34.19,-170.528,-1.936
34.23,-174.353,-2.325
34.26,-178.424,-2.429
34.29,-182.46,-2.257
34.32,-186.11,-1.982
34.36,-189.163,-1.615
34.39,-191.62,-1.26
34.42,-193.62,-1.168
34.45,-195.796,-1.317
34.49,-198.253,-1.546
34.52,-201.025,-1.684
34.55,-203.938,-1.718
34.58,-206.816,-1.661
34.62,-209.483,-1.489
34.65,-211.8,-1.306
34.68,-213.94,-1.226
34.71,-216.151,-1.386
34.75,-218.538,-1.478
34.78,-220.995,-1.478
34.81,-223.486,-1.42
34.84,-225.697,-1.34
34.88,-227.733,-1.168
34.91,-229.593,-1.111
34.94,-231.418,-1.18
34.97,-233.453,-1.249
35.01,-235.629,-1.386
35.04,-238.051,-1.546
35.07,-240.613,-1.604
35.1,-243.14,-1.501
35.14,-245.28,-1.226
35.17,-247.0,-1.088
35.2,-248.755,-1.168
35.23,-250.439,-1.088
35.27,-252.089,-1.123
35.3,-254.054,-1.409
35.33,-256.23,-1.42
35.36,-257.985,-1.008
35.4,-259.178,-0.722
35.43,-260.477,-1.111
35.46,-262.337,-1.352
35.49,-264.337,-1.26
35.53,-266.162,-1.249
35.56,-268.163,-1.42
35.59,-270.268,-1.352
35.62,-271.953,-1.042
35.66,-273.286,-0.871
35.69,-274.374,-0.848
35.72,-275.392,-0.779
35.75,-276.41,-0.836
35.79,-277.638,-1.008
35.82,-279.112,-1.157
35.85,-280.516,-0.962
35.88,-281.534,-0.733
35.92,-282.411,-0.813
35.95,-283.499,-0.916
35.98,-284.692,-0.951
36.01,-286.096,-1.111
36.05,-287.64,-1.203
36.08,-289.29,-1.157
36.11,-290.799,-1.054
36.14,-292.133,-1.02
36.18,-293.361,-0.985
36.21,-294.589,-0.916
36.24,-295.572,-0.848
36.27,-296.66,-0.951
36.31,-297.923,-0.997
36.34,-299.046,-0.882
36.37,-299.818,-0.676
36.4,-300.24,-0.515
36.44,-300.415,-0.389
36.47,-300.24,-0.183
36.5,-299.818,-0.103
36.53,-299.678,-0.424
36.57,-299.783,-0.412
36.6,-300.24,-0.779
36.63,-301.082,-0.882
36.66,-301.854,-0.722
36.7,-302.415,-0.642
36.73,-302.521,-0.229
36.76,-302.205,-0.183
36.79,-302.135,-0.435
36.83,-302.415,-0.561
36.86,-302.521,-0.332
36.89,-302.205,-0.092
36.92,-301.468,0.115
36.96,-300.415,0.321
36.99,-299.046,0.424
37.02,-297.748,0.229
37.05,-297.116,-0.252
37.09,-297.292,-0.722
37.12,-297.993,-0.894
37.15,-298.766,-0.745
37.18,-298.976,-0.344
37.22,-298.38,0.137
37.25,-297.081,0.515
37.28,-295.291,0.619
37.31,-293.712,0.344
37.35,-292.729,-0.034
37.38,-292.273,-0.218
37.41,-291.887,-0.183
37.44,-291.22,0.034
37.48,-290.167,0.355
37.51,-288.518,0.63
37.54,-286.588,0.664
37.57,-284.973,0.412
37.61,-283.71,0.183
37.64,-282.727,0.08
37.67,-281.885,0.057
37.7,-280.867,0.229
37.74,-279.463,0.504
37.77,-277.638,0.699
37.8,-275.638,0.756
37.83,-273.672,0.676
37.87,-271.883,0.584
37.9,-270.374,0.412
37.93,-269.145,0.229
37.96,-267.987,0.389
38.0,-266.408,0.676
38.03,-264.548,0.722
38.06,-262.688,0.71
38.09,-260.793,0.768
38.13,-258.722,0.894
38.16,-256.932,0.573
38.19,-255.563,0.389
38.22,-253.879,0.825
38.26,-251.598,1.134
38.29,-249.211,0.939
38.32,-247.246,0.722
38.35,-245.316,0.825
38.39,-243.315,0.871
38.42,-241.49,0.619
38.45,-239.981,0.573
38.48,-238.297,0.733
38.52,-236.296,0.905
38.55,-234.085,1.031
38.58,-231.874,0.916
38.61,-229.803,0.871
38.65,-227.733,0.928
38.68,-225.627,0.928
38.71,-223.627,0.871
38.74,-221.346,1.123
38.78,-218.608,1.409
38.81,-215.625,1.466
38.84,-212.607,1.478
38.87,-209.554,1.443
38.91,-206.851,1.26
38.94,-204.324,1.111
38.97,-201.938,1.146
39.0,-199.341,1.329
39.04,-196.428,1.489
39.07,-193.269,1.673
39.1,-189.795,1.776
39.13,-186.426,1.638
39.17,-183.408,1.34
39.2,-180.811,1.226
39.23,-178.178,1.283
39.26,-175.616,1.329
39.3,-172.879,1.375
39.33,-169.931,1.524
39.36,-166.702,1.695
39.39,-163.614,1.535
39.43,-160.912,1.168
39.46,-157.964,1.673
39.49,-154.384,2.028
39.52,-150.348,2.154
39.56,-146.101,2.268
39.59,-142.065,1.89
39.62,-138.731,1.638
39.65,-135.818,1.34
39.69,-133.397,1.088
39.72,-131.186,1.088
39.75,-128.764,1.386
39.78,-125.676,1.764
39.82,-121.956,2.188
39.85,-117.499,2.509
39.88,-112.761,2.555
39.91,-108.269,2.314
39.95,-104.198,2.005
39.98,-100.618,1.799
40.01,-97.389,1.638
40.04,-94.441,1.524
40.08,-91.599,1.501
40.11,-88.651,1.592
40.14,-85.597,1.684
40.17,-82.298,1.81
40.21,-78.824,1.89
40.24,-75.349,1.867
40.27,-71.875,1.867
40.3,-68.401,1.913
40.34,-64.786,1.936
40.37,-61.066,2.039
40.4,-57.24,2.073
40.43,-53.485,1.97
40.47,-49.835,1.936
40.5,-46.185,1.959
40.53,-42.711,1.879
40.56,-39.272,1.856
40.6,-35.762,1.879
40.63,-32.288,1.856
40.66,-28.918,1.833
40.69,-25.444,1.867
40.73,-21.899,1.947
40.76,-18.179,2.062
40.79,-14.214,2.177
40.82,-10.072,2.303
40.86,-5.791,2.314
40.89,-1.579,2.222
40.92,2.422,2.096
40.95,6.142,1.947
40.99,9.616,1.81
41.02,12.915,1.741
41.05,16.109,1.718
41.08,19.302,1.776
41.12,22.496,1.764
41.15,25.655,1.81
41.18,28.954,1.902
41.21,32.323,1.959
41.25,35.762,1.959
41.28,39.236,1.982
41.31,42.781,2.016
41.34,46.396,2.073
41.38,50.011,2.085
41.41,53.59,2.051
41.44,57.17,2.039
41.47,60.785,2.073
41.51,64.47,2.131
41.54,68.26,2.188
41.57,72.156,2.234
41.6,76.086,2.268
41.64,80.052,2.234
41.67,83.842,2.154
41.7,87.598,2.119
41.73,91.353,2.165
41.77,95.108,2.154
41.8,98.793,2.085
41.83,102.373,1.982
41.86,105.602,1.776
41.9,108.514,1.661
41.93,111.462,1.741
41.96,114.621,1.833
41.99,117.85,1.982
42.03,121.5,2.142
42.06,125.325,2.211
42.09,129.115,2.234
42.12,132.835,2.062
42.16,136.24,1.879
42.19,139.503,1.867
42.22,142.767,1.913
42.25,145.996,1.902
42.29,149.33,1.947
42.32,152.98,2.234
42.35,156.77,2.222
42.38,160.21,1.821
42.42,163.087,1.558
42.45,165.86,1.638
42.48,168.668,1.695
42.51,171.545,1.684
42.55,174.599,1.867
42.58,178.038,2.051
42.61,181.512,2.028
42.64,184.811,1.821
42.68,187.724,1.604
42.71,190.216,1.409
42.74,192.532,1.375
42.77,194.919,1.455
42.81,197.551,1.673
42.84,200.499,1.787
42.87,203.447,1.741
42.9,206.219,1.604
42.94,208.676,1.443
42.97,210.957,1.26
43.0,212.852,1.203
43.03,214.888,1.306
43.07,217.029,1.443
43.1,219.45,1.489
43.13,221.942,1.615
43.16,224.469,1.535
43.2,226.715,1.26
43.23,228.54,1.123
43.26,230.365,1.214
43.29,232.401,1.398
43.33,234.752,1.478
43.36,237.138,1.569
43.39,239.771,1.684
43.42,242.262,1.501
43.46,244.298,1.191
43.49,246.053,1.157
43.52,247.842,1.226
43.55,249.667,1.237
43.59,251.457,1.18
43.62,253.107,1.134
43.65,254.897,1.283
43.68,256.897,1.386
43.72,258.792,1.249
43.75,260.371,0.985
43.78,261.951,1.191
43.81,263.916,1.432
43.85,265.952,1.363
43.88,267.776,1.237
43.91,269.672,1.329
43.94,271.391,1.203
43.98,272.76,0.871
44.01,273.778,0.836
44.04,275.006,1.008
44.07,276.375,1.111
44.11,277.884,1.157
44.14,279.498,1.214
44.17,281.078,1.088
44.2,282.236,0.848
44.24,283.183,0.768
44.27,284.166,0.905
44.3,285.394,1.031
44.33,286.798,1.088
44.37,288.272,1.146
44.4,289.781,1.157
44.43,291.29,1.134
44.46,292.659,1.008
44.5,293.817,0.905
44.53,294.765,0.836
44.56,295.747,0.802
44.59,296.66,0.825
44.63,297.678,0.951
44.66,298.73,0.974
44.69,299.678,0.848
44.72,300.345,0.664
44.76,300.731,0.504
44.79,300.801,0.355
44.82,300.696,0.309
44.85,300.661,0.412
44.89,300.977,0.687
44.92,301.573,0.756
44.95,302.17,0.664
44.98,302.591,0.573
45.02,302.731,0.378
45.05,302.802,0.458
45.08,302.696,0.298
45.11,302.451,0.183
45.15,302.345,0.401
45.18,302.415,0.538
45.21,302.556,0.367
45.24,302.135,0.137
45.28,301.468,-0.023
45.31,300.485,-0.16
45.34,299.327,-0.218
45.37,298.555,0.195
45.41,298.695,0.779
45.44,299.503,0.962
45.47,300.275,0.779
45.5,300.415,0.424
45.54,299.854,-0.057
45.57,298.485,-0.55
45.6,296.414,-0.813
45.63,294.273,-0.607
45.67,292.799,-0.195
45.7,291.922,0.08
45.73,291.29,0.195
45.76,290.834,0.172
45.8,290.167,0.0
45.83,289.114,-0.286
45.86,287.605,-0.458
45.89,286.096,-0.389
45.93,284.727,-0.229
45.96,283.71,-0.149
45.99,282.727,-0.103
46.02,281.744,-0.16
46.06,280.481,-0.412
46.09,278.867,-0.607
46.12,277.042,-0.664
46.15,275.182,-0.642
46.19,273.392,-0.619
46.22,271.602,-0.515
46.25,270.163,-0.378
46.28,268.794,-0.389
46.32,267.25,-0.584
46.35,265.355,-0.733
46.38,263.354,-0.745
46.41,261.284,-0.79
46.45,259.003,-0.962
46.48,256.792,-0.79
46.51,254.756,-0.687
46.54,252.756,-0.871
46.58,250.369,-1.077
46.61,248.264,-0.653
46.64,246.965,-0.172
46.67,245.982,-0.241
46.71,244.824,-0.424
46.74,243.666,-0.298
46.77,242.473,-0.321
46.8,240.929,-0.745
46.84,238.612,-1.157
46.87,235.91,-1.283
46.9,233.032,-1.306
46.93,230.049,-1.398
46.97,227.277,-1.203
47.0,224.715,-1.134
47.03,222.083,-1.26
47.06,219.275,-1.386
47.1,216.327,-1.409
47.13,213.554,-1.26
47.16,210.641,-1.489
47.19,207.904,-1.157
47.23,205.974,-0.607
47.26,204.605,-0.47
47.29,203.307,-0.55
47.32,201.727,-0.722
47.36,199.692,-1.111
47.39,196.919,-1.512
47.42,193.48,-1.844
47.45,189.725,-1.925
47.49,186.11,-1.741
47.52,182.741,-1.558
47.55,179.652,-1.524
47.58,176.459,-1.558
47.62,173.335,-1.569
47.65,170.036,-1.661
47.68,166.632,-1.753
47.71,163.333,-1.569
47.75,160.28,-1.455
47.78,157.858,-0.916
47.81,156.805,0.046
47.84,156.876,0.412
47.88,157.121,0.241
47.91,156.454,-0.447
47.94,154.454,-1.306
47.97,150.909,-2.142
48.01,146.101,-2.738
48.04,140.521,-3.127
48.07,134.169,-3.54
48.1,127.641,-3.46
48.14,121.675,-2.956
48.17,116.551,-2.497
48.2,112.164,-2.108
48.23,108.69,-1.535
48.27,106.233,-1.02
48.3,104.233,-0.974
48.33,101.811,-1.398
48.36,98.582,-1.913
48.4,94.652,-2.28
48.43,90.125,-2.474
48.46,85.387,-2.577
48.49,80.754,-2.337
48.53,76.894,-1.821
48.56,73.875,-1.42
48.59,71.138,-1.42
48.62,68.26,-1.615
48.66,65.031,-1.776
48.69,61.417,-1.982
48.72,57.451,-2.268
48.75,53.134,-2.314
48.79,49.028,-2.096
48.82,45.168,-1.982
48.85,41.272,-2.177
48.88,36.885,-2.406
48.92,32.498,-2.337
48.95,28.146,-2.257
48.98,23.9,-2.245
49.01,19.829,-2.073
49.05,16.319,-1.684
49.08,13.512,-1.306
49.11,10.844,-1.443
49.14,7.861,-1.73
49.18,4.633,-1.684
49.21,1.509,-1.661
49.24,-1.72,-1.753
49.27,-4.984,-1.718
49.31,-8.002,-1.524
49.34,-10.809,-1.466
49.37,-13.898,-1.799
49.4,-17.337,-1.913
49.44,-20.776,-1.879
49.47,-24.496,-2.028
49.5,-28.462,-2.371
49.53,-32.814,-2.509
49.57,-37.166,-2.406
49.6,-41.307,-2.291
49.63,-45.448,-2.337
49.66,-49.519,-2.291
49.7,-53.345,-2.028
49.73,-56.819,-1.925
49.76,-60.258,-1.925
49.79,-63.628,-1.936
49.83,-66.891,-1.776
49.86,-69.91,-1.684
49.89,-73.138,-1.844
49.92,-76.543,-2.016
49.96,-79.947,-1.89
49.99,-83.316,-1.902
50.02,-86.966,-2.188
50.05,-91.037,-2.36
50.09,-95.178,-2.28
50.12,-99.109,-2.257
50.15,-103.18,-2.257
50.18,-106.935,-2.028
50.22,-110.164,-1.73
50.25,-112.55,-1.088
50.28,-113.077,0.206
50.31,-111.989,0.871
50.35,-110.62,0.607
50.38,-110.69,-0.607
50.41,-112.831,-1.753
50.44,-116.376,-2.348
50.48,-121.078,-2.841
50.51,-126.448,-3.219
50.54,-132.484,-3.482
50.57,-138.661,-3.551
50.61,-144.733,-3.356
50.64,-150.418,-3.024
50.67,-155.261,-2.566
50.7,-159.297,-2.073
50.74,-162.596,-1.718
50.77,-165.334,-1.501
50.8,-167.755,-1.317
50.83,-170.177,-1.432
50.87,-172.984,-1.81
50.9,-176.353,-2.051
50.93,-179.933,-2.039
50.96,-183.408,-1.982
51.0,-186.707,-1.879
51.03,-189.69,-1.615
51.06,-192.322,-1.409
51.09,-194.743,-1.455
51.13,-197.375,-1.581
51.16,-200.078,-1.627
51.19,-202.78,-1.501
51.22,-205.202,-1.42
51.26,-207.518,-1.386
51.29,-209.799,-1.34
51.32,-212.01,-1.306
51.35,-214.362,-1.455
51.39,-216.959,-1.718
51.42,-219.977,-1.787
51.45,-222.855,-1.661
51.48,-225.487,-1.524
51.52,-227.873,-1.352
51.55,-229.768,-1.088
51.58,-231.383,-0.974
51.61,-232.927,-1.02
51.65,-234.647,-1.123
51.68,-236.577,-1.283
51.71,-238.683,-1.375
51.74,-240.894,-1.409
51.78,-243.21,-1.42
51.81,-245.456,-1.409
51.84,-247.807,-1.512
51.87,-250.089,-1.466
51.91,-252.194,-1.226
51.94,-254.089,-1.249
51.97,-255.984,-1.249
52.0,-257.704,-1.031
52.04,-259.003,-0.825
52.07,-260.091,-0.779
52.1,-261.389,-1.031
52.13,-263.074,-1.214
52.17,-264.969,-1.294
52.2,-267.004,-1.42
52.23,-269.18,-1.432
52.26,-271.111,-1.191
52.3,-272.479,-0.871
52.33,-273.532,-0.836
52.36,-274.655,-0.894
52.39,-275.883,-0.916
52.43,-277.182,-1.02
52.46,-278.691,-1.18
52.49,-280.2,-1.1
52.52,-281.464,-0.859
52.56,-282.446,-0.813
52.59,-283.499,-0.905
52.62,-284.727,-0.962
52.65,-286.026,-1.042
52.69,-287.5,-1.134
52.72,-289.044,-1.146
52.75,-290.623,-1.134
52.78,-291.992,-1.042
52.82,-293.185,-0.928
52.85,-294.238,-0.894
52.88,-295.221,-0.871
52.91,-296.204,-0.859
52.95,-297.186,-0.951
52.98,-298.309,-0.985
53.01,-299.362,-0.871
53.04,-300.029,-0.607
53.08,-300.275,-0.401
53.11,-300.204,-0.241
53.14,-299.748,0.0
53.17,-299.081,-0.034
53.21,-299.011,-0.481
53.24,-299.467,-0.779
53.27,-300.169,-0.71
53.3,-300.731,-0.607
53.34,-301.187,-0.676
53.37,-301.573,-0.55
53.4,-301.573,-0.218
53.43,-301.222,-0.137
53.47,-301.012,-0.367
53.5,-301.082,-0.47
53.53,-301.187,-0.435
53.56,-301.187,-0.355
53.6,-300.941,-0.229
53.63,-300.415,-0.034
53.66,-299.573,0.057
53.69,-298.976,-0.206
53.73,-298.976,-0.573
53.76,-299.362,-0.71
53.79,-299.748,-0.63
53.82,-299.889,-0.378
53.86,-299.327,0.08
53.89,-297.993,0.481
53.92,-296.274,0.642
53.95,-294.624,0.401
53.99,-293.466,0.0
54.02,-292.975,-0.298
54.05,-292.87,-0.401
54.08,-292.764,-0.286
54.12,-292.097,0.103
54.15,-290.799,0.515
54.18,-288.869,0.733
54.21,-286.974,0.619
54.25,-285.324,0.378
54.28,-284.096,0.229
54.31,-282.938,0.16
54.34,-281.815,0.275
54.38,-280.27,0.63
54.41,-278.165,0.859
54.44,-275.989,0.813
54.47,-274.094,0.607
54.51,-272.444,0.447
54.54,-271.111,0.298
54.57,-270.163,0.092
54.6,-269.286,0.126
54.64,-268.092,0.458
54.67,-266.478,0.607
54.7,-264.793,0.55
54.73,-263.144,0.538
54.77,-261.459,0.63
54.8,-259.705,0.653
54.83,-258.09,0.515
54.86,-256.476,0.596
54.9,-254.616,0.871
54.93,-252.545,0.882
54.96,-250.545,0.745
54.99,-248.579,0.813
55.03,-246.474,1.008
55.06,-244.087,1.088
55.09,-241.736,1.008
55.12,-239.42,1.065
55.16,-236.928,1.203
55.19,-234.366,1.134
55.22,-232.12,0.928
55.25,-230.049,0.894
55.29,-228.049,0.894
55.32,-226.083,0.825
55.35,-224.223,0.756
55.38,-222.258,0.951
55.42,-219.801,1.34
55.45,-216.818,1.501
55.48,-213.835,1.443
55.51,-210.922,1.352
55.55,-208.36,1.18
55.58,-206.114,0.974
55.61,-204.114,0.928
55.64,-201.868,1.134
55.68,-199.2,1.363
55.71,-196.288,1.501
55.74,-193.024,1.673
55.77,-189.69,1.695
55.81,-186.531,1.501
55.84,-183.618,1.329
55.87,-180.881,1.352
55.9,-178.073,1.398
55.94,-175.23,1.409
55.97,-172.388,1.398
56.0,-168.948,1.947
56.03,-165.053,2.051
56.07,-161.508,1.569
56.1,-158.49,1.409
56.13,-155.717,1.363
56.16,-152.91,1.409
56.2,-149.786,1.718
56.23,-146.066,2.028
56.26,-142.206,2.016
56.29,-138.486,1.856
56.33,-134.976,1.764
56.36,-131.747,1.65
56.39,-128.589,1.569
56.42,-125.5,1.661
56.46,-122.131,1.902
56.49,-118.341,2.142
56.52,-114.27,2.188
56.55,-110.304,2.028
56.59,-106.689,1.787
56.62,-103.461,1.615
56.65,-100.548,1.443
56.68,-97.845,1.398
56.72,-95.038,1.592
56.75,-91.809,1.821
56.78,-88.335,1.925
56.81,-84.755,1.925
56.85,-81.21,1.89
56.88,-77.701,1.821
56.91,-74.437,1.741
56.94,-71.138,1.787
56.98,-67.558,1.993
57.01,-63.663,2.177
57.04,-59.662,2.234
57.07,-55.521,2.211
57.11,-51.485,2.142
57.14,-47.659,2.016
57.17,-44.08,1.856
57.2,-40.71,1.764
57.24,-37.306,1.89
57.27,-33.656,2.005
57.3,-29.936,2.051
57.33,-26.006,2.119
57.37,-22.075,2.165
57.4,-18.074,2.165
57.43,-14.143,2.062
57.46,-10.493,1.89
57.5,-7.089,1.81
57.53,-3.755,1.764
57.56,-0.526,1.741
57.59,2.737,1.753
57.63,6.001,1.764
57.66,9.125,1.684
57.69,12.213,1.615
57.72,15.266,1.764
57.76,18.706,1.959
57.79,22.356,2.062
57.82,26.076,2.096
57.85,29.901,2.177
57.89,33.727,2.234
57.92,37.657,2.234
57.95,41.588,2.177
57.98,45.343,2.154
58.02,49.063,2.119
58.05,52.678,2.039
58.08,56.152,1.97
58.11,59.592,1.982
58.15,63.206,2.039
58.18,66.821,2.119
58.21,70.541,2.142
58.24,74.297,2.177
58.28,78.122,2.199
58.31,81.912,2.142
58.34,85.562,2.051
58.38,89.177,2.062
58.41,92.792,2.096
58.44,96.407,2.073
58.47,100.021,2.005
58.51,103.355,1.902
58.54,106.549,1.776
58.57,109.602,1.776
58.6,112.761,1.879
58.64,116.13,2.005
58.67,119.815,2.154
58.7,123.57,2.199
58.73,127.431,2.199
58.77,131.116,2.051
58.8,134.45,1.833
58.83,137.468,1.673
58.86,140.556,1.89
58.9,143.855,1.925
58.93,147.33,2.096
58.96,151.05,2.257
58.99,154.875,2.211
59.03,158.42,1.925
59.06,161.368,1.638
59.09,164.175,1.604
59.12,166.913,1.661
59.16,169.756,1.707
59.19,172.879,1.925
59.22,176.424,2.142
59.25,180.109,2.177
59.29,183.653,2.016
59.32,186.847,1.741
59.35,189.479,1.443
59.38,191.795,1.283
59.42,193.971,1.294
59.45,196.217,1.386
59.48,198.639,1.546
59.51,201.376,1.695
59.55,204.219,1.707
59.58,206.956,1.569
59.61,209.308,1.375
59.64,211.414,1.249
59.68,213.589,1.352
59.71,215.836,1.512
59.74,218.468,1.615
59.77,221.1,1.661
59.81,223.767,1.615
59.84,226.048,1.306
59.87,227.979,1.123
59.9,229.733,1.157
59.94,231.664,1.329
59.97,233.875,1.42
60.0,236.121,1.443
60.03,238.577,1.627
60.07,241.245,1.673
60.1,243.596,1.294
60.13,245.421,1.134
60.16,247.246,1.237
60.2,249.211,1.329
60.23,251.071,1.214
60.26,252.861,1.123
60.29,254.791,1.409
60.33,256.897,1.352
60.36,258.546,1.065
60.39,259.705,0.722
60.42,260.652,0.768
60.46,262.021,1.123
60.49,263.705,1.26
60.52,265.565,1.283
60.55,267.566,1.432
60.59,269.707,1.466
60.62,271.602,1.191
60.65,273.041,1.02
60.68,274.515,1.146
60.72,276.164,1.237
60.75,277.884,1.249
60.78,279.568,1.191
60.81,281.007,1.031
60.85,282.13,0.859
60.88,283.008,0.71
60.91,283.815,0.745
60.94,284.798,0.894
60.98,286.061,1.031
61.01,287.395,1.1
61.04,288.904,1.168
61.07,290.483,1.18
61.11,291.922,1.088
61.14,293.221,0.951
61.17,294.273,0.871
61.2,295.221,0.813
61.24,296.028,0.802
61.27,296.941,0.916
61.3,297.993,1.008
61.33,299.081,0.951
61.37,299.959,0.779
61.4,300.485,0.63
61.43,300.731,0.47
61.46,300.766,0.344
61.5,300.661,0.298
61.53,300.906,0.699
61.56,301.678,0.916
61.59,302.065,0.401
61.63,302.135,0.481
61.66,302.451,0.584
61.69,302.696,0.515
61.72,302.696,0.298
61.76,302.415,0.16
61.79,302.17,0.424
61.82,302.415,0.584
61.85,302.591,0.412
61.89,302.415,0.252
61.92,301.924,0.08
61.95,300.941,-0.16
61.98,299.713,-0.355
62.02,298.485,-0.115
62.05,298.064,0.493
62.08,298.52,0.859
62.11,299.257,0.859
62.15,299.818,0.642
62.18,299.748,0.229
62.21,298.941,-0.218
62.24,297.432,-0.55
62.28,295.712,-0.515
62.31,294.273,-0.218
62.34,293.326,0.034
62.37,292.729,0.137
62.41,292.062,0.092
62.44,291.325,-0.057
62.47,290.167,-0.263
62.5,288.763,-0.47
62.54,287.114,-0.481
62.57,285.605,-0.321
62.6,284.377,-0.195
62.63,283.253,-0.195
62.67,282.06,-0.263
62.7,280.656,-0.412
62.73,279.007,-0.596
62.76,277.147,-0.676
62.8,275.322,-0.607
62.83,273.532,-0.55
62.86,271.988,-0.493
62.89,270.514,-0.435
62.93,269.005,-0.47
62.96,267.426,-0.619
62.99,265.565,-0.733
63.02,263.67,-0.687
63.06,261.845,-0.619
63.09,259.95,-0.768
63.12,258.125,-0.596
63.15,256.616,-0.424
63.19,255.072,-0.619
63.22,252.931,-1.042
63.25,250.545,-0.997
63.28,248.544,-0.607
63.32,246.93,-0.607
63.35,245.175,-0.745
63.38,243.42,-0.584
63.41,242.052,-0.389
63.45,240.613,-0.596
63.48,238.718,-0.905
63.51,236.331,-1.054
63.54,233.875,-1.134
63.58,231.242,-1.249
63.61,228.4,-1.306
63.64,225.627,-1.214
63.67,223.135,-1.02
63.71,220.819,-0.985
63.74,218.503,-1.042
63.77,216.151,-1.042
63.8,213.835,-1.031
63.84,211.484,-1.077
63.87,209.238,-0.962
63.9,207.167,-0.836
63.93,205.167,-0.916
63.97,202.815,-1.191
64.0,199.937,-1.466
64.03,196.744,-1.661
64.06,193.129,-1.821
64.1,189.514,-1.821
64.13,186.215,-1.478
64.16,183.513,-1.123
64.19,181.056,-1.18
64.23,178.284,-1.432
64.26,175.301,-1.489
64.29,172.177,-1.581
64.32,168.703,-1.844
64.36,165.193,-1.741
64.39,162.0,-1.443
64.42,159.402,-1.123
64.45,157.191,-0.974
64.49,154.805,-1.26
64.52,151.927,-1.604
64.55,148.488,-1.844
64.58,144.662,-2.016
64.62,140.627,-2.039
64.65,136.801,-1.936
64.68,133.257,-1.73
64.71,129.887,-1.673
64.75,126.624,-1.718
64.78,123.114,-1.89
64.81,119.289,-2.085
64.84,115.112,-2.291
64.88,110.655,-2.394
64.91,106.198,-2.257
64.94,102.162,-2.039
64.97,98.512,-1.799
65.01,95.354,-1.569
65.04,92.406,-1.501
65.07,89.528,-1.524
65.1,86.51,-1.581
65.14,83.492,-1.638
65.17,80.333,-1.638
65.2,77.28,-1.581
65.23,74.297,-1.535
65.27,71.349,-1.581
65.3,68.19,-1.73
65.33,64.856,-1.821
65.36,61.276,-1.925
65.4,57.486,-2.039
65.43,53.625,-2.142
65.46,49.625,-2.085
65.49,45.799,-1.97
65.53,42.079,-1.936
65.56,38.535,-1.902
65.59,34.99,-1.844
65.62,31.551,-1.81
65.66,28.181,-1.787
65.69,24.777,-1.81
65.72,21.338,-1.799
65.75,17.969,-1.741
65.79,14.81,-1.73
65.82,11.476,-1.787
65.85,8.002,-1.821
65.88,4.562,-1.913
65.92,0.772,-2.062
65.95,-3.369,-2.28
65.98,-7.756,-2.394
66.01,-12.178,-2.291
66.05,-16.425,-2.291
66.08,-20.636,-2.325
66.11,-24.918,-2.303
66.14,-28.989,-2.28
66.18,-33.025,-2.222
66.21,-36.955,-2.222
66.24,-40.886,-2.188
66.27,-44.571,-1.982
66.31,-47.87,-1.799
66.34,-51.064,-1.73
66.37,-53.976,-1.627
66.4,-56.749,-1.501
66.44,-59.486,-1.535
66.47,-62.364,-1.73
66.5,-65.593,-1.879
66.53,-68.962,-1.959
66.57,-72.577,-2.085
66.6,-76.367,-2.188
66.63,-80.193,-2.131
66.66,-83.948,-2.051
66.7,-87.633,-2.108
66.73,-91.388,-2.096
66.76,-95.073,-2.085
66.79,-98.793,-2.051
66.83,-102.303,-1.993
66.86,-105.777,-1.879
66.89,-108.795,-1.673
66.92,-111.533,-1.501
66.96,-113.989,-1.352
66.99,-116.341,-1.352
67.02,-118.797,-1.466
67.05,-121.535,-1.673
67.09,-124.799,-2.028
67.12,-128.624,-2.28
67.15,-132.976,-2.555
67.18,-137.468,-2.543
67.22,-141.995,-2.623
67.25,-146.733,-2.704
67.28,-151.436,-2.635
67.31,-156.104,-2.658
67.35,-160.35,-2.222
67.38,-163.614,-1.569
67.41,-166.141,-1.386
67.44,-168.492,-1.386
67.48,-170.808,-1.317
67.51,-173.3,-1.535
67.54,-176.213,-1.81
67.57,-179.407,-1.867
67.61,-182.6,-1.844
67.64,-185.724,-1.776
67.67,-188.602,-1.569
67.7,-191.199,-1.432
67.74,-193.655,-1.478
67.77,-196.428,-1.684
67.8,-199.271,-1.695
67.83,-202.113,-1.558
67.87,-204.675,-1.466
67.9,-207.062,-1.432
67.93,-209.448,-1.363
67.96,-211.589,-1.237
68.0,-213.695,-1.191
68.03,-215.8,-1.398
68.06,-218.292,-1.558
68.09,-220.854,-1.512
68.13,-223.276,-1.386
68.16,-225.452,-1.26
68.19,-227.242,-1.077
68.22,-228.891,-0.939
68.26,-230.435,-0.997
68.29,-232.12,-1.191
68.32,-234.19,-1.375
68.35,-236.507,-1.512
68.39,-238.963,-1.535
68.42,-241.385,-1.455
68.45,-243.561,-1.386
68.48,-245.737,-1.398
68.52,-247.948,-1.432
68.55,-249.948,-1.249
68.58,-251.808,-1.191
68.61,-253.738,-1.398
68.65,-255.914,-1.42
68.68,-257.88,-1.18
68.71,-259.599,-1.1
68.74,-261.319,-1.226
68.78,-263.074,-1.157
68.81,-264.583,-0.985
68.84,-265.916,-0.951
68.87,-267.39,-1.088
68.91,-268.97,-1.088
68.94,-270.374,-0.916
68.97,-271.532,-0.836
69.0,-272.795,-0.985
69.04,-274.304,-1.203
69.07,-276.164,-1.249
69.1,-278.059,-1.294
69.13,-279.849,-1.214
69.17,-281.288,-0.859
69.2,-282.06,-0.63
69.23,-282.832,-0.699
69.26,-283.745,-0.836
69.3,-284.833,-0.939
69.33,-286.201,-1.1
69.36,-287.781,-1.214
69.39,-289.536,-1.283
69.43,-290.974,-1.008
69.46,-292.062,-0.79
69.49,-293.08,-0.859
69.52,-294.063,-0.848
69.56,-294.905,-0.733
69.59,-295.853,-0.882
69.62,-297.046,-0.997
69.65,-298.169,-0.882
69.69,-298.941,-0.642
69.72,-299.467,-0.515
69.75,-299.889,-0.493
69.78,-300.029,-0.367
69.82,-300.029,-0.321
69.85,-300.169,-0.493
69.88,-300.415,-0.458
69.91,-301.047,-0.859
69.95,-301.959,-0.859
69.98,-302.766,-0.733
70.01,-303.363,-0.63
70.04,-303.398,-0.218
70.08,-303.082,-0.126
70.11,-302.872,-0.321
70.14,-302.942,-0.435
70.17,-302.872,-0.218
70.21,-302.415,-0.034
70.24,-301.678,0.069
70.27,-300.661,0.218
70.3,-299.362,0.367
70.34,-298.169,0.172
70.37,-297.643,-0.355
70.4,-297.958,-0.768
70.43,-298.66,-0.859
70.47,-299.292,-0.676
70.5,-299.362,-0.263
70.53,-298.555,0.183
70.56,-297.081,0.561
70.6,-295.291,0.584
70.63,-293.817,0.275
70.66,-292.87,-0.057
70.69,-292.413,-0.206
70.73,-292.027,-0.195
70.76,-291.431,0.011
70.79,-290.413,0.344
70.82,-288.728,0.642
70.86,-286.798,0.687
70.89,-285.078,0.458
70.92,-283.78,0.218
70.95,-282.762,0.115
70.99,-281.85,0.103
71.02,-280.762,0.344
71.05,-279.147,0.664
71.08,-277.042,0.848
71.12,-274.831,0.813
71.15,-272.971,0.561
71.18,-271.532,0.344
71.21,-270.479,0.195
71.25,-269.531,0.137
71.28,-268.443,0.321
71.31,-267.039,0.504
71.34,-265.46,0.55
71.38,-263.741,0.653
71.41,-261.775,0.848
71.44,-259.459,1.02
71.47,-257.248,0.779
71.51,-255.353,0.664
71.54,-253.247,0.985
71.57,-250.79,1.123
71.6,-248.509,0.859
71.64,-246.544,0.664
71.67,-244.684,0.779
71.7,-242.719,0.802
71.73,-241.104,0.55
71.77,-239.56,0.607
71.8,-237.805,0.779
71.83,-235.77,0.928
71.86,-233.524,1.02
71.9,-231.523,0.802
71.93,-229.839,0.619
71.96,-228.224,0.722
71.99,-226.469,0.836
72.03,-224.504,0.871
72.06,-222.188,1.226
72.09,-219.275,1.592
72.12,-216.011,1.673
72.16,-212.642,1.65
72.19,-209.448,1.512
72.22,-206.711,1.26
72.25,-204.254,1.077
72.29,-201.973,1.088
72.32,-199.516,1.272
72.35,-196.744,1.501
72.38,-193.515,1.684
72.42,-190.146,1.776
72.45,-186.847,1.615
72.48,-183.934,1.363
72.51,-181.267,1.283
72.55,-178.6,1.386
72.58,-175.792,1.398
72.61,-172.949,1.443
72.64,-169.966,1.569
72.68,-166.667,1.718
72.71,-163.649,1.409
72.74,-161.017,1.191
72.77,-158.174,1.604
72.81,-154.735,1.799
72.84,-150.98,2.051
72.87,-146.803,2.257
72.9,-142.592,2.154
72.94,-138.802,1.879
72.97,-135.468,1.627
73.0,-132.625,1.375
73.03,-130.028,1.283
73.07,-127.431,1.375
73.1,-124.553,1.65
73.13,-121.043,1.97
73.16,-117.043,2.234
73.2,-112.831,2.257
73.23,-108.76,2.062
73.26,-105.11,1.81
73.29,-101.881,1.65
73.33,-98.828,1.558
73.36,-95.845,1.615
73.39,-92.792,1.707
73.42,-89.388,1.833
73.46,-85.948,1.879
73.49,-82.439,1.89
73.52,-78.859,1.925
73.55,-75.314,1.936
73.59,-71.77,1.867
73.62,-68.33,1.867
73.65,-64.786,1.925
73.68,-61.171,2.005
73.72,-57.416,1.993
73.75,-53.731,1.936
73.78,-50.186,1.913
73.81,-46.642,1.913
73.85,-43.132,1.89
73.88,-39.622,1.902
73.91,-36.148,1.902
73.94,-32.674,1.867
73.98,-29.129,1.925
74.01,-25.339,2.119
74.04,-21.268,2.211
74.07,-17.267,2.188
74.11,-13.231,2.165
74.14,-9.195,2.177
74.17,-5.229,2.096
74.2,-1.474,1.97
74.24,2.141,1.902
74.27,5.615,1.879
74.3,8.984,1.776
74.33,12.283,1.764
74.37,15.617,1.799
74.4,18.916,1.89
74.43,22.321,1.833
74.46,25.409,1.661
74.5,28.462,1.741
74.53,31.691,1.913
74.56,35.095,1.982
74.59,38.675,2.062
74.63,42.36,2.165
74.66,46.255,2.234
74.69,50.186,2.234
74.72,54.082,2.188
74.76,57.802,2.131
74.79,61.592,2.142
74.82,65.312,2.154
74.85,69.067,2.142
74.89,72.787,2.096
74.92,76.472,2.096
74.95,80.122,2.073
74.98,83.667,2.016
75.02,87.247,2.028
75.05,90.826,2.096
75.08,94.476,2.096
75.11,98.196,2.119
75.15,101.741,2.028
75.18,105.145,1.856
75.21,108.234,1.718
75.24,111.217,1.776
75.28,114.34,1.81
75.31,117.604,1.913
75.34,121.114,2.073
75.37,124.834,2.165
75.41,128.589,2.177
75.44,132.239,2.051
75.47,135.678,1.97
75.5,139.082,1.982
75.54,142.592,2.073
75.57,146.136,2.073
75.6,149.751,2.085
75.63,153.577,2.28
75.67,157.332,2.142
75.7,160.49,1.638
75.73,163.052,1.375
75.76,165.579,1.535
75.8,168.282,1.638
75.83,171.124,1.707
75.86,174.318,2.016
75.89,177.933,2.222
75.93,181.758,2.165
75.96,185.162,1.902
75.99,188.11,1.615
76.02,190.602,1.375
76.06,192.848,1.306
76.09,194.989,1.386
76.12,197.516,1.592
76.15,200.323,1.718
76.19,203.131,1.707
76.22,205.869,1.569
76.25,208.325,1.455
76.28,210.571,1.272
76.32,212.572,1.249
76.35,214.713,1.375
76.38,217.064,1.501
76.41,219.521,1.535
76.45,222.012,1.604
76.48,224.539,1.478
76.51,226.715,1.214
76.54,228.505,1.134
76.58,230.4,1.249
76.61,232.471,1.42
76.64,234.822,1.478
76.67,237.279,1.604
76.71,239.981,1.718
76.74,242.473,1.398
76.77,244.193,0.985
76.8,245.702,0.997
76.84,247.281,1.123
76.87,249.036,1.191
76.9,250.72,1.1
76.93,252.475,1.26
76.97,254.756,1.558
77.0,257.178,1.489
77.03,259.143,1.226
77.06,260.722,0.962
77.1,262.267,1.146
77.13,263.986,1.249
77.16,265.706,1.146
77.19,267.285,1.1
77.23,269.005,1.249
77.26,270.619,1.134
77.29,271.918,0.928
77.32,273.146,0.997
77.36,274.655,1.226
77.39,276.48,1.329
77.42,278.375,1.375
77.45,280.165,1.249
77.49,281.604,0.974
77.52,282.622,0.745
77.55,283.429,0.71
77.58,284.271,0.802
77.62,285.254,0.894
77.65,286.447,1.008
77.68,287.851,1.123
77.71,289.43,1.18
77.75,291.01,1.146
77.78,292.378,1.008
77.81,293.607,0.916
77.84,294.624,0.848
77.88,295.607,0.825
77.91,296.555,0.848
77.94,297.678,0.962
77.97,298.836,0.951
78.01,299.748,0.802
78.04,300.38,0.584
78.07,300.661,0.424
78.1,300.661,0.275
78.14,300.52,0.229
78.17,300.485,0.389
78.2,300.871,0.699
78.23,301.573,0.733
78.27,302.17,0.653
78.3,302.556,0.504
78.33,302.696,0.389
78.36,302.872,0.515
78.4,302.977,0.321
78.43,302.802,0.229
78.46,302.731,0.424
78.49,302.837,0.493
78.53,302.802,0.275
78.56,302.275,0.034
78.59,301.468,-0.137
78.62,300.275,-0.309
78.66,298.976,-0.344
78.69,298.099,0.126
78.72,298.099,0.71
78.75,298.695,0.882
78.79,299.327,0.756
78.82,299.643,0.481
78.85,299.327,0.092
78.88,298.239,-0.309
78.92,296.765,-0.493
78.95,295.221,-0.309
78.98,294.203,0.011
79.01,293.607,0.149
79.05,293.045,0.149
79.08,292.378,-0.023
79.11,291.325,-0.298
79.14,289.781,-0.573
79.18,287.886,-0.71
79.21,285.956,-0.607
79.24,284.306,-0.401
79.27,283.008,-0.252
79.31,281.92,-0.183
79.34,280.762,-0.241
79.37,279.358,-0.458
79.4,277.673,-0.619
79.44,275.813,-0.619
79.47,274.059,-0.515
79.5,272.514,-0.435
79.53,271.111,-0.344
79.57,269.847,-0.252
79.6,268.654,-0.355
79.63,267.11,-0.596
79.66,265.215,-0.756
79.7,263.249,-0.722
79.73,261.249,-0.768
79.76,259.178,-0.813
79.79,257.353,-0.561
79.83,255.879,-0.504
79.86,254.054,-0.79
79.89,251.913,-1.02
79.92,249.702,-0.848
79.96,247.772,-0.733
79.99,245.947,-0.768
80.02,244.017,-0.79
80.05,242.192,-0.745
80.09,240.472,-0.584
80.12,238.998,-0.573
80.15,237.244,-0.79
80.18,235.208,-0.939
80.22,233.102,-0.905
80.25,230.997,-0.951
80.28,228.68,-1.123
80.31,226.189,-1.123
80.35,223.732,-1.134
80.38,221.1,-1.352
80.41,218.117,-1.466
80.44,215.063,-1.42
80.48,212.186,-1.363
80.51,209.483,-1.191
80.54,207.167,-0.916
80.57,205.202,-0.745
80.61,203.377,-0.848
80.64,201.166,-1.111
80.67,198.428,-1.352
80.7,195.34,-1.581
80.74,191.866,-1.787
80.77,188.251,-1.73
80.8,185.022,-1.455
80.83,182.074,-1.306
80.87,179.231,-1.34
80.9,176.494,-1.34
80.93,173.686,-1.283
80.96,170.879,-1.42
81.0,167.755,-1.615
81.03,164.597,-1.478
81.06,161.473,-1.512
81.09,158.49,-1.409
81.13,155.472,-1.558
81.16,152.278,-1.569
81.19,149.014,-1.673
81.22,145.224,-2.085
81.26,141.364,-1.89
81.29,137.784,-1.753
81.32,134.485,-1.615
81.35,131.396,-1.512
81.39,128.238,-1.707
81.42,124.658,-1.959
81.45,120.657,-2.154
81.48,116.481,-2.268
81.52,112.199,-2.268
81.55,108.199,-2.028
81.58,104.689,-1.684
81.61,101.636,-1.432
81.65,99.004,-1.237
81.68,96.617,-1.203
81.71,94.09,-1.398
81.74,91.212,-1.604
81.78,87.949,-1.764
81.81,84.509,-1.867
81.84,81.0,-1.867
81.87,77.56,-1.81
81.91,74.121,-1.799
81.94,70.647,-1.833
81.97,67.137,-1.902
82.0,63.487,-1.97
82.04,59.697,-2.051
82.07,55.801,-2.096
82.1,51.906,-2.051
82.13,48.08,-2.005
82.17,44.22,-2.039
82.2,40.43,-2.016
82.23,36.639,-2.005
82.26,32.849,-2.051
82.3,28.918,-2.096
82.33,25.058,-2.051
82.36,21.233,-1.982
82.39,17.583,-1.867
82.43,14.249,-1.718
82.46,11.16,-1.581
82.49,8.212,-1.546
82.52,5.124,-1.753
82.56,1.509,-2.005
82.59,-2.457,-2.142
82.62,-6.458,-2.154
82.65,-10.423,-2.131
82.69,-14.354,-2.051
82.72,-18.179,-2.028
82.75,-22.005,-2.062
82.78,-25.795,-2.051
82.82,-29.375,-1.97
82.85,-32.779,-1.879
82.88,-36.113,-1.867
82.91,-39.342,-1.81
82.95,-42.465,-1.776
82.98,-45.729,-1.81
83.01,-48.993,-1.879
83.04,-52.327,-1.89
83.08,-55.731,-1.936
83.11,-59.311,-2.039
83.14,-63.031,-2.154
83.17,-66.856,-2.154
83.21,-70.717,-2.188
83.24,-74.683,-2.245
83.27,-78.648,-2.268
83.3,-82.579,-2.177
83.34,-86.334,-2.096
83.37,-90.125,-2.085
83.4,-93.845,-2.085
83.43,-97.424,-1.993
83.47,-101.004,-2.005
83.5,-104.584,-2.028
83.53,-108.023,-1.925
83.56,-111.252,-1.81
83.6,-114.481,-1.833
83.63,-117.604,-1.776
83.66,-120.587,-1.638
83.69,-123.5,-1.661
83.73,-126.483,-1.753
83.76,-129.536,-1.741
83.79,-132.8,-1.89
83.82,-136.345,-2.073
83.86,-140.276,-2.36
83.89,-144.662,-2.577
83.92,-149.611,-2.898
83.95,-154.63,-2.898
83.99,-159.157,-2.291
84.02,-162.175,-1.363
84.05,-163.895,-0.745
84.08,-165.544,-1.168
84.12,-167.825,-1.478
84.15,-170.352,-1.524
84.18,-173.335,-1.867
84.21,-177.09,-2.406
84.25,-181.232,-2.417
84.28,-185.092,-2.039
84.31,-188.286,-1.673
84.34,-190.813,-1.352
84.38,-192.848,-1.031
84.41,-194.568,-1.031
84.44,-196.603,-1.294
84.47,-199.025,-1.524
84.51,-201.692,-1.604
84.54,-204.43,-1.661
84.57,-207.307,-1.661
84.6,-210.01,-1.558
84.64,-212.466,-1.386
84.67,-214.783,-1.398
84.7,-217.204,-1.489
84.73,-219.661,-1.466
84.77,-222.083,-1.386
84.8,-224.294,-1.306
84.83,-226.329,-1.203
84.86,-228.224,-1.1
84.9,-229.979,-1.134
84.93,-232.014,-1.283
84.96,-234.296,-1.443
84.99,-236.787,-1.604
85.03,-239.455,-1.673
85.06,-242.087,-1.581
85.09,-244.368,-1.26
85.12,-246.053,-0.997
85.16,-247.632,-1.054
85.19,-249.176,-1.111
85.22,-250.79,-1.077
85.25,-252.44,-1.146
85.29,-254.3,-1.317
85.32,-256.335,-1.352
85.35,-258.266,-1.249
85.38,-260.091,-1.214
85.42,-261.986,-1.34
85.45,-263.951,-1.34
85.48,-265.811,-1.203
85.51,-267.531,-1.168
85.55,-269.215,-1.146
85.58,-270.689,-0.974
85.61,-271.848,-0.779
85.64,-272.795,-0.768
85.68,-273.813,-0.859
85.71,-274.971,-0.939
85.74,-276.375,-1.054
85.77,-277.989,-1.249
85.81,-279.744,-1.18
85.84,-281.042,-0.848
85.87,-282.025,-0.745
85.9,-283.043,-0.905
85.94,-284.236,-0.985
85.97,-285.675,-1.111
86.0,-287.325,-1.226
86.03,-289.009,-1.203
86.07,-290.553,-1.123
86.1,-291.957,-1.042
86.13,-293.256,-0.985
86.16,-294.484,-0.939
86.2,-295.502,-0.825
86.23,-296.414,-0.813
86.26,-297.397,-0.882
86.29,-298.38,-0.848
86.33,-299.152,-0.664
86.36,-299.643,-0.458
86.39,-299.748,-0.321
86.42,-299.643,-0.206
86.46,-299.362,-0.069
86.49,-299.187,-0.332
86.52,-299.362,-0.447
86.55,-299.678,-0.55
86.59,-300.52,-0.916
86.62,-301.538,-0.825
86.65,-302.451,-0.825
86.68,-303.047,-0.435
86.72,-302.977,-0.149
86.75,-302.731,-0.229
86.78,-302.591,-0.367
86.81,-302.591,-0.241
86.85,-302.135,-0.023
86.88,-301.468,0.092
86.91,-300.591,0.195
86.94,-299.397,0.367
86.98,-298.099,0.309
87.01,-297.292,-0.137
87.04,-297.397,-0.664
87.07,-298.169,-0.939
87.11,-299.081,-0.894
87.14,-299.608,-0.573
87.17,-299.397,-0.057
87.2,-298.274,0.424
87.24,-296.519,0.687
87.27,-294.695,0.538
87.3,-293.501,0.103
87.33,-292.799,-0.206
87.37,-292.484,-0.263
87.4,-292.062,-0.115
87.43,-291.22,0.206
87.47,-289.746,0.561
87.5,-287.711,0.756
87.53,-285.815,0.63
87.56,-284.236,0.344
87.6,-283.078,0.137
87.63,-282.236,0.034
87.66,-281.429,0.08
87.69,-280.27,0.378
87.73,-278.691,0.619
87.76,-276.866,0.699
87.79,-275.041,0.63
87.82,-273.357,0.538
87.86,-271.918,0.424
87.89,-270.619,0.321
87.92,-269.286,0.412
87.95,-267.706,0.699
87.99,-265.741,0.813
88.02,-263.67,0.802
88.05,-261.705,0.745
88.08,-259.74,0.813
88.12,-257.809,0.687
88.15,-256.335,0.367
88.18,-254.897,0.584
88.21,-252.861,1.008
88.25,-250.439,1.02
88.28,-248.334,0.722
88.31,-246.404,0.768
88.34,-244.263,0.974
88.38,-242.157,0.813
88.41,-240.437,0.573
88.44,-238.788,0.687
88.47,-236.928,0.768
88.51,-234.857,0.916
88.54,-232.751,0.871
88.57,-230.891,0.699
88.6,-229.066,0.722
88.64,-227.101,0.916
88.67,-224.925,0.962
88.7,-222.609,1.146
88.73,-219.766,1.524
88.77,-216.467,1.65
88.8,-213.203,1.558
88.83,-210.15,1.455
88.86,-207.448,1.226
88.9,-205.132,0.962
88.93,-203.166,0.882
88.96,-201.096,1.031
88.99,-198.744,1.249
89.03,-195.972,1.489
89.06,-192.708,1.81
89.09,-189.128,1.867
89.12,-185.794,1.558
89.16,-182.881,1.386
89.19,-180.109,1.42
89.22,-177.231,1.432
89.25,-174.423,1.432
89.29,-171.44,1.558
89.32,-168.282,1.753
89.35,-164.877,1.764
89.38,-161.929,1.283
89.42,-159.297,1.34
89.45,-156.068,1.913
89.48,-152.278,1.993
89.51,-148.242,2.234
89.55,-144.066,2.016
89.58,-140.451,1.764
89.61,-137.082,1.638
89.64,-134.169,1.375
89.68,-131.642,1.26
89.71,-129.115,1.352
89.74,-126.343,1.535
89.77,-123.044,1.89
89.81,-119.148,2.234
89.84,-114.761,2.383
89.87,-110.445,2.257
89.9,-106.514,1.959
89.94,-103.075,1.73
89.97,-100.021,1.535
90.0,-97.249,1.42
90.03,-94.441,1.512
90.07,-91.423,1.73
90.1,-88.019,1.879
90.13,-84.474,1.913
90.16,-80.894,1.936
90.2,-77.245,1.982
90.23,-73.56,1.947
90.26,-69.98,1.913
90.29,-66.4,1.936
90.33,-62.715,2.005
90.36,-58.995,2.028
90.39,-55.345,1.97
90.42,-51.625,1.947
90.46,-48.08,1.913
90.49,-44.571,1.879
90.52,-41.096,1.902
90.55,-37.447,1.993
90.59,-33.727,2.016
90.62,-29.971,1.993
90.65,-26.357,1.947
90.68,-22.777,1.902
90.72,-19.373,1.81
90.75,-16.074,1.787
90.78,-12.529,1.947
90.81,-8.739,2.131
90.85,-4.738,2.188
90.88,-0.702,2.154
90.91,3.299,2.165
90.94,7.23,2.096
90.98,10.915,1.913
91.01,14.389,1.821
91.04,17.688,1.81
91.07,21.057,1.867
91.11,24.216,1.707
91.14,27.234,1.65
91.17,30.287,1.856
91.2,33.691,2.005
91.24,37.236,2.039
91.27,40.886,2.073
91.3,44.606,2.177
91.33,48.431,2.211
91.37,52.257,2.165
91.4,56.012,2.131
91.43,59.732,2.131
91.46,63.452,2.131
91.5,67.172,2.131
91.53,70.857,2.096
91.56,74.507,2.062
91.59,78.157,2.051
91.63,81.667,2.005
91.66,85.141,1.959
91.69,88.58,2.028
91.72,92.23,2.096
91.76,95.95,2.142
91.79,99.635,2.131
91.82,103.285,2.016
91.85,106.619,1.833
91.89,109.743,1.821
91.92,112.971,1.902
91.95,116.306,1.925
91.98,119.78,2.039
92.02,123.395,2.142
92.05,127.185,2.165
92.08,130.87,2.096
92.11,134.344,1.925
92.15,137.573,1.89
92.18,140.872,1.947
92.21,144.312,2.039
92.24,147.821,2.016
92.28,151.436,2.165
92.31,155.261,2.291
92.34,158.946,1.97
92.37,161.929,1.524
92.41,164.421,1.455
92.44,167.018,1.592
92.47,169.826,1.638
92.5,172.809,1.799
92.54,176.178,2.051
92.57,179.758,2.131
92.6,183.267,1.97
92.63,186.391,1.718
92.67,189.093,1.455
92.7,191.374,1.329
92.73,193.655,1.363
92.76,196.042,1.512
92.8,198.744,1.707
92.83,201.692,1.753
92.86,204.5,1.673
92.89,207.167,1.501
92.93,209.483,1.306
92.96,211.414,1.191
92.99,213.379,1.26
93.02,215.555,1.409
93.06,217.906,1.501
93.09,220.398,1.615
93.12,223.065,1.673
93.15,225.487,1.466
93.19,227.663,1.249
93.22,229.593,1.26
93.25,231.664,1.42
93.28,233.945,1.512
93.32,236.401,1.535
93.35,238.928,1.673
93.38,241.49,1.615
93.41,243.596,1.168
93.45,245.105,0.939
93.48,246.579,1.1
93.51,248.299,1.191
93.54,250.124,1.26
93.58,251.949,1.214
93.61,253.809,1.272
93.64,255.879,1.409
93.67,258.09,1.455
93.71,259.985,1.18
93.74,261.565,0.985
93.77,263.144,1.157
93.8,264.828,1.191
93.84,266.478,1.1
93.87,268.057,1.111
93.9,269.672,1.18
93.93,271.216,1.02
93.97,272.549,0.951
94.0,273.953,1.123
94.03,275.638,1.294
94.06,277.533,1.352
94.1,279.463,1.352
94.13,281.078,1.111
94.16,282.306,0.871
94.19,283.078,0.722
94.23,283.92,0.745
94.26,284.798,0.848
94.29,285.956,0.951
94.32,287.114,1.042
94.36,288.588,1.157
94.39,290.132,1.191
94.42,291.676,1.146
94.45,293.01,0.997
94.49,294.238,0.928
94.52,295.291,0.871
94.55,296.344,0.859
94.58,297.327,0.894
94.62,298.485,0.962
94.65,299.538,0.859
94.68,300.275,0.653
94.71,300.626,0.481
94.75,300.696,0.355
94.78,300.52,0.218
94.81,300.275,0.252
94.84,300.345,0.538
94.88,300.836,0.779
94.91,301.538,0.71
94.94,302.065,0.664
94.97,302.38,0.481
95.01,302.591,0.538
95.04,302.802,0.504
95.07,302.731,0.286
95.1,302.521,0.344
95.14,302.591,0.504
95.17,302.696,0.412
95.2,302.38,0.16
95.23,301.678,-0.057
95.27,300.591,-0.172
95.3,299.292,-0.286
95.33,298.204,-0.069
95.36,297.783,0.515
95.4,298.309,0.939
95.43,299.117,0.962
95.46,299.818,0.733
95.49,299.854,0.355
95.53,299.222,-0.092
95.56,297.923,-0.424
95.59,296.274,-0.47
95.62,294.87,-0.183
95.66,293.958,0.08
95.69,293.361,0.16
95.72,292.799,0.069
95.75,291.747,-0.172
95.79,290.413,-0.47
95.82,288.553,-0.699
95.85,286.517,-0.676
95.88,284.763,-0.458
95.92,283.359,-0.263
95.95,282.201,-0.16
95.98,281.148,-0.172
96.01,279.955,-0.344
96.05,278.34,-0.573
96.08,276.48,-0.664
96.11,274.655,-0.607
96.14,272.971,-0.515
96.18,271.391,-0.447
96.21,269.987,-0.344
96.24,268.759,-0.252
96.27,267.461,-0.378
96.31,265.952,-0.561
96.34,264.267,-0.561
96.37,262.688,-0.481
96.4,260.968,-0.642
96.44,259.213,-0.573
96.47,257.704,-0.412
96.5,256.055,-0.664
96.53,253.809,-1.077
96.57,251.176,-1.146
96.6,248.72,-0.951
96.63,246.439,-0.974
96.66,244.193,-0.928
96.7,242.122,-0.836
96.73,240.262,-0.687
96.76,238.788,-0.47
96.79,237.454,-0.493
96.83,235.84,-0.71
96.86,234.05,-0.825
96.89,232.085,-0.859
96.92,229.944,-1.031
96.96,227.487,-1.168
96.99,224.995,-1.146
97.02,222.398,-1.26
97.05,219.521,-1.478
97.09,216.397,-1.512
97.12,213.379,-1.386
97.15,210.641,-1.249
97.18,208.22,-1.008
97.22,206.29,-0.779
97.25,204.5,-0.733
97.28,202.64,-0.951
97.31,200.288,-1.226
97.35,197.411,-1.501
97.38,194.041,-1.776
97.41,190.356,-1.89
97.44,186.847,-1.65
97.48,183.723,-1.398
97.51,180.846,-1.352
97.54,177.968,-1.409
97.57,175.09,-1.363
97.61,172.212,-1.363
97.64,169.124,-1.546
97.67,166.0,-1.558
97.7,162.877,-1.478
97.74,159.613,-1.673
97.77,156.595,-1.375
97.8,153.612,-1.512
97.83,150.418,-1.684
97.87,146.838,-1.89
97.9,142.873,-2.188
97.93,138.977,-1.97
97.96,135.292,-1.741
98.0,132.098,-1.569
98.03,129.08,-1.558
98.06,126.027,-1.581
98.09,122.798,-1.718
98.13,119.324,-1.902
98.16,115.498,-2.016
98.19,111.673,-1.982
98.22,108.093,-1.776
98.26,104.829,-1.627
98.29,101.776,-1.524
98.32,98.828,-1.466
98.35,96.021,-1.546
98.39,92.827,-1.73
98.42,89.423,-1.867
98.45,85.843,-1.925
98.48,82.193,-1.947
98.52,78.473,-1.959
98.55,74.858,-1.936
98.58,71.243,-1.844
98.61,67.839,-1.776
98.65,64.47,-1.787
98.68,61.031,-1.844
98.71,57.451,-1.925
98.74,53.766,-1.959
98.78,50.046,-1.982
98.81,46.361,-2.005
98.84,42.57,-2.028
98.87,38.78,-1.982
98.91,35.06,-1.993
98.94,31.27,-2.039
98.97,27.409,-2.062
99.0,23.549,-2.028
99.04,19.759,-2.005
99.07,16.003,-1.925
99.1,12.529,-1.833
99.13,9.195,-1.73
99.17,5.931,-1.753
99.2,2.457,-1.867
99.23,-1.193,-1.982
99.26,-4.878,-1.982
99.3,-8.633,-2.005
99.33,-12.459,-2.073
99.36,-16.354,-2.131
99.39,-20.215,-2.062
99.43,-23.935,-2.005
99.46,-27.585,-1.947
99.49,-30.884,-1.799
99.52,-34.077,-1.776
99.56,-37.236,-1.81
99.59,-40.465,-1.81
99.62,-43.764,-1.844
99.65,-47.133,-1.982
99.69,-50.748,-2.073
99.72,-54.503,-2.131
99.75,-58.293,-2.165
99.78,-62.154,-2.177
99.82,-65.944,-2.142
99.85,-69.629,-2.062
99.88,-73.314,-2.062
99.91,-76.929,-2.051
99.95,-80.544,-2.005
99.98,-84.088,-1.959
100.01,-87.598,-2.016
100.04,-91.283,-2.085
100.08,-95.003,-2.108
100.11,-98.758,-2.096
100.14,-102.443,-2.096
100.17,-106.058,-2.005
100.21,-109.427,-1.844
100.24,-112.585,-1.73
100.27,-115.604,-1.753
100.3,-118.727,-1.741
100.34,-121.886,-1.799
100.37,-125.185,-1.97
100.4,-128.764,-2.073
100.43,-132.414,-2.062
100.47,-136.099,-2.085
100.5,-139.854,-2.154
100.53,-143.68,-2.245
100.56,-147.786,-2.429
100.6,-152.348,-2.715
100.63,-156.735,-2.371
100.66,-160.175,-1.695
100.69,-162.386,-0.916
100.73,-163.895,-0.951
100.76,-166.0,-1.443
100.79,-168.527,-1.524
100.82,-171.23,-1.615
100.86,-174.564,-2.199
100.89,-178.845,-2.738
100.92,-183.829,-2.898
100.95,-188.953,-2.956
100.99,-193.796,-2.715
101.02,-198.042,-2.165
101.05,-201.271,-1.684
101.08,-203.833,-1.317
101.12,-205.658,-0.928
101.15,-207.097,-0.779
101.18,-208.711,-1.123
101.21,-210.922,-1.512
101.25,-213.379,-1.42
101.28,-215.73,-1.398
101.31,-218.257,-1.569
101.34,-220.924,-1.615
101.38,-223.381,-1.34
101.41,-225.417,-1.18
101.44,-227.277,-1.1
101.47,-228.786,-0.848
101.51,-229.874,-0.607
101.54,-230.962,-0.825
101.57,-232.716,-1.283
101.6,-234.962,-1.512
101.64,-237.63,-1.673
101.67,-240.753,-2.073
101.7,-244.157,-2.016
101.73,-246.965,-1.443
101.77,-248.755,-0.928
101.8,-250.018,-0.825
101.83,-251.141,-0.813
101.86,-252.37,-0.928
101.9,-253.914,-1.146
101.93,-255.879,-1.363
101.96,-257.915,-1.306
101.99,-259.669,-1.1
102.03,-261.108,-0.939
102.06,-262.477,-0.985
102.09,-263.916,-1.123
102.12,-265.565,-1.111
102.16,-267.18,-1.18
102.19,-269.215,-1.489
102.22,-271.286,-1.317
102.25,-272.69,-0.836
102.29,-273.392,-0.504
102.32,-274.059,-0.71
102.35,-275.392,-1.18
102.38,-277.252,-1.34
102.42,-279.147,-1.294
102.45,-280.832,-1.111
102.48,-282.236,-0.962
102.51,-283.394,-0.871
102.55,-284.482,-0.836
102.58,-285.605,-0.985
102.61,-287.044,-1.1
102.64,-288.448,-1.008
102.68,-289.816,-0.997
102.71,-291.115,-1.077
102.74,-292.554,-1.02
102.77,-293.677,-0.871
102.81,-294.589,-0.825
102.84,-295.537,-0.894
102.87,-296.625,-0.974
102.9,-297.818,-1.031
102.94,-299.081,-1.1
102.97,-300.24,-0.951
103.0,-301.012,-0.63
103.03,-301.187,-0.389
103.07,-301.117,-0.241
103.1,-300.696,-0.08
103.13,-300.24,-0.172
103.16,-300.31,-0.561
103.2,-300.941,-0.859
103.23,-301.608,-0.642
103.26,-301.854,-0.47
103.29,-302.135,-0.561
103.33,-302.451,-0.687
103.36,-298.941,3.242
103.39,-285.78,9.76
103.42,-266.899,10.562
103.46,-252.019,5.957
103.49,-244.614,2.073
103.52,-243.315,-0.825
103.55,-248.544,-4.903
103.59,-260.442,-8.374
103.62,-275.603,-8.958
103.65,-290.202,-8.042
103.68,-302.556,-6.484
103.72,-309.821,-2.749
103.75,-311.61,-0.321
103.78,-311.119,0.011
103.81,-309.54,0.664
103.85,-306.487,1.73
103.88,-301.784,2.509
103.91,-296.906,2.177
103.94,-293.15,1.26
103.98,-290.904,0.481
104.01,-289.957,-0.172
104.04,-290.097,-0.71
104.07,-290.553,-0.676
104.11,-290.588,-0.218
104.14,-289.957,0.126
104.17,-289.009,0.149
104.2,-288.062,0.115
104.24,-287.044,0.172
104.27,-285.921,0.206
104.3,-284.763,0.241
104.33,-283.218,0.573
104.37,-281.078,0.951
104.4,-278.586,0.997
104.43,-276.305,0.779
104.46,-274.409,0.584
104.5,-272.83,0.47
104.53,-271.567,0.195
104.56,-270.795,-0.023
104.59,-269.847,0.298
104.63,-268.163,0.802
104.66,-266.057,0.916
104.69,-263.916,0.779
104.72,-261.951,0.779
104.76,-259.95,0.836
104.79,-258.125,0.63
104.82,-256.757,0.355
104.85,-255.598,0.355
104.89,-254.335,0.447
104.92,-253.107,0.389
104.95,-251.738,0.515
104.98,-249.983,0.836
105.02,-247.632,1.191
105.05,-245.0,1.157
105.08,-242.508,1.031
105.11,-239.946,1.237
105.15,-237.033,1.443
105.18,-234.015,1.306
105.21,-231.523,1.02
105.24,-229.242,1.02
105.28,-226.855,1.065
105.31,-224.68,0.894
105.34,-222.679,0.882
105.37,-220.328,1.123
105.41,-217.766,1.26
105.44,-215.134,1.168
105.47,-212.747,1.065
105.5,-210.466,0.997
105.54,-208.29,0.962
105.57,-206.114,0.974
105.6,-203.763,1.214
105.63,-200.815,1.535
105.67,-197.621,1.627
105.7,-194.357,1.604
105.73,-191.199,1.524
105.76,-188.461,1.168
105.8,-186.285,0.916
105.83,-184.074,1.134
105.86,-181.512,1.306
105.89,-178.67,1.478
105.93,-175.441,1.764
105.96,-171.721,2.028
105.99,-167.615,2.142
106.02,-163.789,1.925
106.06,-160.315,1.604
106.09,-157.121,1.627
106.12,-153.752,1.776
106.15,-150.067,1.959
106.19,-146.136,2.085
106.22,-142.136,2.062
106.25,-138.38,1.867
106.28,-134.976,1.661
106.32,-131.888,1.478
106.35,-129.15,1.352
106.38,-126.553,1.329
106.41,-123.781,1.512
106.45,-120.587,1.833
106.48,-116.902,2.051
106.51,-113.042,2.039
106.54,-109.357,1.833
106.58,-106.023,1.684
106.61,-102.969,1.546
106.64,-100.162,1.386
106.67,-97.459,1.455
106.71,-94.441,1.718
106.74,-91.002,1.936
106.77,-87.387,1.947
106.8,-83.737,1.936
106.84,-80.122,1.947
106.87,-76.578,1.89
106.9,-73.138,1.799
106.93,-69.594,1.97
106.97,-65.698,2.188
107.0,-61.557,2.268
107.03,-57.416,2.222
107.06,-53.31,2.142
107.1,-49.414,2.062
107.13,-45.799,1.913
107.16,-42.465,1.73
107.19,-39.131,1.787
107.23,-35.587,1.947
107.26,-31.937,2.016
107.29,-28.146,2.039
107.32,-24.356,2.073
107.36,-20.461,2.096
107.39,-16.635,2.051
107.42,-12.95,1.925
107.45,-9.441,1.867
107.49,-6.001,1.81
107.52,-2.808,1.718
107.55,0.421,1.707
107.58,3.58,1.707
107.62,6.703,1.65
107.65,9.686,1.615
107.68,12.775,1.741
107.71,16.144,1.936
107.75,19.864,2.177
107.78,24.005,2.348
107.81,28.111,2.291
107.84,32.253,2.36
107.88,36.534,2.497
107.91,40.886,2.451
107.94,44.887,2.165
107.97,48.607,2.016
108.01,52.187,2.119
108.04,55.626,1.879
108.07,58.609,1.546
108.1,61.522,1.73
108.14,64.751,1.97
108.17,68.26,2.028
108.2,71.7,1.902
108.23,75.034,1.936
108.27,78.613,2.096
108.3,82.263,2.119
108.33,85.948,2.096
108.36,89.809,2.234
108.4,93.704,2.28
108.43,97.67,2.234
108.46,101.425,2.119
108.49,105.145,2.073
108.53,108.585,1.947
108.56,111.778,1.787
108.59,114.832,1.753
108.62,118.025,1.925
108.66,121.394,2.028
108.69,125.079,2.165
108.72,128.764,2.062
108.75,132.379,2.028
108.79,135.818,1.993
108.82,138.977,1.695
108.85,141.89,1.695
108.88,144.873,1.799
108.92,148.277,2.096
108.95,152.068,2.268
108.98,155.823,2.131
109.01,159.157,1.764
109.05,162.0,1.569
109.08,164.772,1.661
109.11,167.685,1.753
109.14,170.808,1.867
109.18,174.248,2.085
109.21,177.968,2.234
109.24,181.758,2.165
109.27,185.268,1.913
109.31,188.216,1.592
109.34,190.602,1.306
109.37,192.708,1.249
109.4,194.814,1.272
109.44,197.095,1.42
109.47,199.516,1.535
109.5,202.148,1.604
109.53,204.816,1.558
109.57,207.272,1.478
109.6,209.624,1.375
109.63,211.905,1.398
109.66,214.291,1.535
109.7,216.924,1.65
109.73,219.661,1.684
109.76,222.469,1.741
109.79,225.136,1.558
109.83,227.417,1.294
109.86,229.312,1.191
109.89,231.348,1.306
109.92,233.524,1.432
109.96,235.77,1.443
109.99,238.051,1.489
110.02,240.543,1.604
110.05,242.859,1.375
110.09,244.579,1.042
110.12,246.158,1.088
110.15,247.878,1.26
110.18,249.843,1.329
110.22,251.843,1.352
110.25,253.879,1.432
110.28,256.195,1.558
110.31,258.266,1.306
110.35,259.915,1.031
110.38,261.354,0.985
110.41,262.582,0.928
110.44,263.916,0.997
110.48,265.144,0.962
110.51,266.583,1.077
110.54,268.268,1.272
110.57,270.058,1.26
110.61,271.707,1.123
110.64,273.286,1.191
110.67,275.076,1.34
110.7,276.936,1.283
110.74,278.726,1.249
110.77,280.516,1.272
110.8,282.236,1.26
110.83,283.64,0.962
110.87,284.552,0.642
110.9,285.149,0.573
110.93,285.71,0.699
110.96,286.623,0.905
111.0,287.921,1.146
111.03,289.5,1.329
111.06,291.22,1.329
111.09,292.729,1.077
111.13,293.747,0.848
111.16,294.589,0.768
111.19,295.361,0.768
111.22,296.204,0.882
111.26,297.186,0.997
111.29,298.38,1.042
111.32,299.397,0.882
111.35,300.169,0.745
111.39,300.731,0.642
111.42,301.047,0.47
111.45,301.012,0.298
111.48,301.012,0.458
111.52,301.573,0.848
111.55,302.135,0.596
111.58,302.415,0.493
111.61,302.837,0.71
111.65,303.258,0.596
111.68,303.258,0.16
111.71,302.591,-0.092
111.74,301.994,0.16
111.78,301.819,0.401
111.81,301.714,0.332
111.84,301.538,0.252
111.87,301.117,0.16
111.91,300.415,-0.046
111.94,299.327,-0.206
111.97,298.204,-0.137
112.0,297.643,0.321
112.04,297.923,0.825
112.07,298.801,1.065
112.1,299.713,0.997
112.13,300.38,0.653
112.17,300.204,0.16
112.2,299.187,-0.309
112.23,297.537,-0.55
112.26,295.888,-0.389
112.3,294.659,-0.08
112.33,293.852,0.069
112.36,293.045,0.046
112.39,292.168,-0.137
112.43,290.834,-0.401
112.46,289.009,-0.676
112.49,286.938,-0.756
112.52,285.008,-0.561
112.56,283.499,-0.263
112.59,282.516,-0.103
112.62,281.569,-0.057
112.65,280.692,-0.149
112.69,279.463,-0.378
112.72,277.814,-0.573
112.75,276.059,-0.607
112.78,274.269,-0.527
112.82,272.655,-0.493
112.85,271.146,-0.435
112.88,269.707,-0.367
112.91,268.303,-0.424
112.95,266.689,-0.561
112.98,264.969,-0.607
113.01,263.319,-0.493
113.04,261.6,-0.573
113.08,259.81,-0.664
113.11,258.055,-0.527
113.14,256.616,-0.378
113.17,255.072,-0.527
113.21,253.072,-0.882
113.24,250.826,-0.928
113.27,248.544,-0.894
113.3,246.333,-0.905
113.34,244.087,-0.871
113.37,242.052,-0.825
113.4,240.227,-0.619
113.43,238.647,-0.515
113.47,237.033,-0.676
113.5,235.138,-0.825
113.53,233.138,-0.848
113.56,230.997,-0.928
113.6,228.716,-1.111
113.63,226.154,-1.157
113.66,223.662,-1.191
113.69,220.854,-1.42
113.73,217.731,-1.546
113.76,214.607,-1.466
113.79,211.624,-1.363
113.82,208.957,-1.168
113.86,206.816,-0.871
113.89,204.991,-0.687
113.92,203.307,-0.733
113.95,201.376,-0.997
113.99,198.885,-1.294
114.02,195.937,-1.604
114.05,192.462,-1.821
114.08,188.847,-1.776
114.12,185.513,-1.535
114.15,182.53,-1.42
114.18,179.582,-1.432
114.21,176.704,-1.409
114.25,173.862,-1.375
114.28,170.914,-1.535
114.31,167.615,-1.707
114.34,164.316,-1.569
114.38,161.122,-1.558
114.41,158.104,-1.409
114.44,154.98,-1.638
114.47,151.436,-1.947
114.51,147.54,-1.97
114.54,143.75,-1.913
114.57,140.03,-1.879
114.6,136.45,-1.787
114.64,133.151,-1.615
114.67,130.133,-1.478
114.7,127.325,-1.432
114.73,124.483,-1.489
114.77,121.394,-1.684
114.8,117.885,-1.902
114.83,114.095,-2.016
114.86,110.374,-1.89
114.9,106.935,-1.684
114.93,103.706,-1.615
114.96,100.618,-1.569
114.99,97.6,-1.581
115.03,94.441,-1.73
115.06,90.932,-1.902
115.09,87.282,-1.982
115.12,83.562,-1.947
115.16,80.052,-1.799
115.19,76.683,-1.764
115.22,73.279,-1.833
115.25,69.839,-1.833
115.29,66.33,-1.844
115.32,62.715,-1.959
115.35,58.925,-2.073
115.38,55.064,-2.039
115.42,51.344,-1.925
115.45,47.765,-1.879
115.48,44.15,-1.936
115.51,40.57,-1.925
115.55,36.885,-1.925
115.58,33.2,-2.028
115.61,29.34,-2.108
115.64,25.409,-2.073
115.68,21.548,-1.982
115.71,17.828,-1.936
115.74,14.284,-1.902
115.77,10.739,-1.81
115.81,7.37,-1.821
115.84,3.685,-1.993
115.87,-0.14,-2.108
115.9,-4.071,-2.062
115.94,-7.791,-1.936
115.97,-11.301,-1.81
116.0,-14.635,-1.787
116.03,-17.969,-1.799
116.07,-21.338,-1.821
116.1,-24.742,-1.89
116.13,-28.076,-1.902
116.16,-31.48,-1.925
116.2,-35.025,-2.016
116.23,-38.64,-2.051
116.26,-42.255,-2.028
116.29,-45.869,-2.028
116.33,-49.484,-2.051
116.36,-53.064,-2.005
116.39,-56.679,-2.005
116.42,-60.223,-2.062
116.46,-63.943,-2.131
