Trigger_Date,2023/08/04
Trigger_Time,T 11:24:12.466 PDT
Samples_Per_Cycle,512
Microseconds_Per_Sample,32.562
Time (ms),Voltage (V),Current (A)
-16.67,2.457,2.039
-16.64,4.808,2.509
-16.61,6.984,2.99
-16.57,9.862,3.482
-16.54,13.547,4.032
-16.51,17.723,4.513
-16.48,21.513,4.937
-16.44,23.97,5.453
-16.41,25.198,6.278
-16.38,26.462,7.389
-16.35,28.497,8.523
-16.31,31.375,9.76
-16.28,34.85,11.078
-16.25,38.956,12.177
-16.22,43.378,12.991
-16.18,47.94,13.666
-16.15,52.608,14.193
-16.12,57.135,14.48
-16.09,61.382,14.686
-16.05,65.453,14.858
-16.02,69.383,15.007
-15.99,72.998,15.144
-15.96,76.297,15.259
-15.92,79.42,15.476
-15.89,82.579,15.82
-15.86,85.667,16.095
-15.83,88.686,16.485
-15.79,91.844,16.989
-15.76,95.038,17.458
-15.73,98.232,17.905
-15.69,101.425,18.375
-15.66,104.689,18.856
-15.63,108.093,19.406
-15.6,111.603,19.944
-15.56,115.007,20.483
-15.53,118.517,21.009
-15.5,121.921,21.41
-15.47,125.185,21.674
-15.43,128.308,22.086
-15.4,131.747,22.705
-15.37,135.117,23.049
-15.34,138.451,23.667
-15.3,141.96,24.194
-15.27,145.189,24.469
-15.24,147.961,24.572
-15.21,150.629,24.71
-15.17,153.542,25.053
-15.14,156.454,25.431
-15.11,159.192,25.832
-15.08,161.964,26.382
-15.04,165.088,26.966
-15.01,168.317,27.459
-14.98,171.23,27.745
-14.95,173.897,28.032
-14.91,176.669,28.272
-14.88,179.372,28.513
-14.85,182.074,28.879
-14.82,184.846,29.315
-14.78,187.584,29.658
-14.75,190.216,29.956
-14.72,192.673,30.174
-14.69,194.954,30.277
-14.65,197.025,30.392
-14.62,199.13,30.609
-14.59,201.306,30.987
-14.56,203.587,31.423
-14.52,205.939,31.743
-14.49,208.395,32.041
-14.46,210.571,32.19
-14.43,212.186,32.328
-14.39,214.081,32.511
-14.36,216.292,32.809
-14.33,218.538,33.221
-14.29,220.714,33.611
-14.26,222.784,33.977
-14.23,225.171,34.401
-14.2,227.417,34.573
-14.16,229.207,34.55
-14.13,231.032,34.722
-14.1,233.138,35.02
-14.07,235.313,35.352
-14.03,237.068,35.547
-14.0,238.788,35.81
-13.97,240.999,36.257
-13.94,243.105,36.417
-13.9,244.684,36.452
-13.87,246.053,36.417
-13.84,247.913,36.761
-13.81,250.124,37.173
-13.77,251.878,37.334
-13.74,253.317,37.448
-13.71,255.002,37.723
-13.68,256.757,37.769
-13.64,257.95,37.654
-13.61,259.108,37.826
-13.58,260.757,38.124
-13.55,262.231,38.273
-13.51,263.53,38.456
-13.48,264.828,38.594
-13.45,266.022,38.628
-13.42,267.18,38.628
-13.38,268.163,38.651
-13.35,269.25,38.811
-13.32,270.444,39.018
-13.29,271.602,39.224
-13.25,272.865,39.476
-13.22,274.023,39.682
-13.19,275.357,39.831
-13.16,276.515,39.911
-13.12,277.603,39.98
-13.09,278.656,40.037
-13.06,279.639,40.083
-13.02,280.656,40.198
-12.99,281.779,40.415
-12.96,282.832,40.553
-12.93,283.64,40.564
-12.89,284.306,40.495
-12.86,284.903,40.358
-12.83,285.254,40.163
-12.8,285.394,40.003
-12.76,285.64,40.003
-12.73,286.272,40.381
-12.7,286.658,40.266
-12.67,286.552,40.094
-12.63,286.798,40.289
-12.6,287.254,40.186
-12.57,287.325,40.117
-12.54,287.079,39.9
-12.5,286.903,39.865
-12.47,287.149,40.037
-12.44,287.325,40.106
-12.41,287.325,40.129
-12.37,287.325,40.129
-12.34,287.325,39.991
-12.31,287.149,39.774
-12.28,286.763,39.567
-12.24,286.447,39.556
-12.21,286.412,39.625
-12.18,286.201,39.59
-12.15,285.78,39.419
-12.11,285.114,39.121
-12.08,284.271,38.743
-12.05,283.289,38.376
-12.02,282.306,38.124
-11.98,281.393,38.101
-11.95,280.727,38.216
-11.92,280.095,38.216
-11.89,279.218,38.055
-11.85,278.165,37.769
-11.82,277.077,37.391
-11.79,275.813,37.036
-11.75,274.515,36.772
-11.72,273.251,36.646
-11.69,272.163,36.578
-11.66,271.04,36.486
-11.62,269.882,36.337
-11.59,268.584,36.085
-11.56,267.075,35.741
-11.53,265.565,35.398
-11.49,263.986,35.1
-11.46,262.477,34.894
-11.43,260.898,34.687
-11.4,259.283,34.504
-11.36,257.845,34.39
-11.33,256.441,34.195
-11.3,254.756,33.897
-11.27,253.072,33.622
-11.23,251.562,33.439
-11.2,249.983,33.164
-11.17,248.158,32.809
-11.14,246.439,32.648
-11.1,244.965,32.545
-11.07,243.315,32.305
-11.04,241.455,31.972
-11.01,239.665,31.732
-10.97,238.051,31.571
-10.94,236.472,31.342
-10.91,234.541,31.056
-10.88,232.751,30.873
-10.84,231.172,30.609
-10.81,229.277,30.174
-10.78,227.066,29.716
-10.75,224.925,29.383
-10.71,222.96,29.063
-10.68,220.819,28.776
-10.65,218.678,28.57
-10.62,216.783,28.433
-10.58,214.888,28.215
-10.55,212.712,27.78
-10.52,210.466,27.299
-10.49,208.29,26.943
-10.45,205.798,26.646
-10.42,203.482,26.382
-10.39,201.482,26.142
-10.35,199.516,25.924
-10.32,197.165,25.58
-10.29,194.603,25.019
-10.26,192.006,24.435
-10.22,189.304,23.873
-10.19,186.285,23.22
-10.16,183.092,22.751
-10.13,180.319,22.533
-10.09,177.582,22.201
-10.06,174.388,21.571
-10.03,171.054,21.055
-10.0,168.036,20.757
-9.96,165.088,20.219
-9.93,161.649,19.6
-9.9,158.49,19.429
-9.87,155.507,18.982
-9.83,152.383,18.558
-9.8,149.541,18.512
-9.77,146.803,18.088
-9.74,143.82,17.664
-9.7,140.486,16.943
-9.67,137.222,16.462
-9.64,134.134,16.015
-9.61,131.01,15.648
-9.57,127.817,15.259
-9.54,124.553,14.766
-9.51,121.114,14.205
-9.48,117.534,13.598
-9.44,114.024,13.025
-9.41,110.374,12.498
-9.38,106.83,12.131
-9.35,103.636,11.834
-9.31,100.407,11.501
-9.28,97.249,11.238
-9.25,94.231,10.894
-9.22,91.037,10.436
-9.18,87.878,9.978
-9.15,84.72,9.531
-9.12,81.561,9.13
-9.08,78.508,8.798
-9.05,75.525,8.466
-9.02,72.472,8.042
-8.99,69.313,7.595
-8.95,66.119,7.137
-8.92,62.891,6.656
-8.89,59.521,6.106
-8.86,56.082,5.567
-8.82,52.643,5.063
-8.79,49.168,4.571
-8.76,45.554,3.975
-8.73,41.833,3.379
-8.69,38.078,2.818
-8.66,34.393,2.268
-8.63,30.743,1.707
-8.6,27.058,1.18
-8.56,23.444,0.653
-8.53,19.829,0.218
-8.5,16.319,-0.195
-8.47,12.915,-0.63
-8.43,9.335,-0.997
-8.4,4.808,-1.455
-8.37,0.632,-1.718
-8.34,-2.211,-2.131
-8.3,-4.633,-2.463
-8.27,-6.738,-2.784
-8.24,-9.756,-3.425
-8.21,-13.898,-4.124
-8.17,-18.671,-4.559
-8.14,-22.672,-4.823
-8.11,-25.128,-5.338
-8.08,-26.146,-6.22
-8.04,-27.094,-7.366
-8.01,-28.883,-8.603
-7.98,-31.796,-9.852
-7.95,-35.516,-11.032
-7.91,-39.693,-12.017
-7.88,-43.939,-12.796
-7.85,-48.08,-13.403
-7.81,-52.432,-13.85
-7.78,-56.679,-14.159
-7.75,-60.785,-14.365
-7.72,-64.645,-14.56
-7.68,-68.365,-14.801
-7.65,-71.945,-15.018
-7.62,-75.314,-15.202
-7.59,-78.613,-15.522
-7.55,-81.877,-15.9
-7.52,-85.141,-16.29
-7.49,-88.44,-16.748
-7.46,-91.774,-17.275
-7.42,-95.213,-17.733
-7.39,-98.477,-18.146
-7.36,-101.741,-18.512
-7.33,-104.97,-18.867
-7.29,-108.058,-19.154
-7.26,-111.006,-19.474
-7.23,-114.095,-19.921
-7.2,-117.288,-20.448
-7.16,-120.412,-20.861
-7.13,-123.605,-21.456
-7.1,-127.185,-22.132
-7.07,-130.835,-22.751
-7.03,-134.59,-23.45
-7.0,-138.521,-24.194
-6.97,-142.732,-25.007
-6.94,-146.417,-25.133
-6.9,-149.049,-24.836
-6.87,-151.331,-24.721
-6.84,-154.7,-25.408
-6.81,-158.034,-25.741
-6.77,-160.385,-25.901
-6.74,-162.666,-26.336
-6.71,-165.895,-27.024
-6.68,-169.229,-27.47
-6.64,-171.791,-27.734
-6.61,-174.248,-28.066
-6.58,-177.02,-28.341
-6.54,-179.617,-28.478
-6.51,-182.179,-28.857
-6.48,-184.917,-29.338
-6.45,-187.584,-29.67
-6.41,-190.076,-29.933
-6.38,-192.462,-30.243
-6.35,-194.919,-30.483
-6.32,-197.27,-30.667
-6.28,-199.376,-30.861
-6.25,-201.552,-31.216
-6.22,-203.903,-31.617
-6.19,-206.43,-31.904
-6.15,-208.746,-32.053
-6.12,-210.606,-32.27
-6.09,-212.431,-32.465
-6.06,-214.362,-32.568
-6.02,-216.397,-32.832
-5.99,-218.503,-33.278
-5.96,-220.714,-33.702
-5.93,-222.995,-34.126
-5.89,-225.311,-34.481
-5.86,-227.522,-34.71
-5.83,-229.593,-34.779
-5.8,-231.488,-34.928
-5.76,-233.559,-35.226
-5.73,-235.594,-35.455
-5.7,-237.349,-35.512
-5.67,-239.104,-35.833
-5.63,-241.28,-36.211
-5.6,-243.14,-36.268
-5.57,-244.473,-36.268
-5.54,-246.053,-36.52
-5.5,-248.088,-36.795
-5.47,-249.773,-36.956
-5.44,-251.176,-37.139
-5.41,-252.615,-37.253
-5.37,-254.16,-37.379
-5.34,-255.669,-37.563
-5.31,-257.037,-37.666
-5.28,-258.301,-37.78
-5.24,-259.669,-37.998
-5.21,-261.179,-38.273
-5.18,-262.653,-38.491
-5.14,-264.056,-38.674
-5.11,-265.215,-38.697
-5.08,-266.302,-38.651
-5.05,-267.426,-38.708
-5.01,-268.619,-38.892
-4.98,-269.777,-39.063
-4.95,-270.9,-39.35
-4.92,-272.304,-39.625
-4.88,-273.602,-39.785
-4.85,-274.796,-39.911
-4.82,-275.919,-39.991
-4.79,-277.077,-40.094
-4.75,-278.165,-40.152
-4.72,-279.147,-40.163
-4.69,-280.165,-40.346
-4.66,-281.288,-40.507
-4.62,-282.306,-40.587
-4.59,-283.043,-40.587
-4.56,-283.78,-40.518
-4.53,-284.377,-40.404
-4.49,-284.763,-40.266
-4.46,-284.938,-40.06
-4.43,-285.184,-40.117
-4.4,-285.535,-40.117
-4.36,-286.061,-40.495
-4.33,-286.623,-40.53
-4.3,-286.728,-40.392
-4.27,-287.219,-40.747
-4.23,-287.64,-40.369
-4.2,-287.149,-39.9
-4.17,-287.044,-39.991
-4.14,-287.57,-40.278
-4.1,-287.711,-40.186
-4.07,-287.219,-40.003
-4.04,-286.833,-39.842
-4.01,-286.693,-39.636
-3.97,-286.131,-39.315
-3.94,-285.394,-39.155
-3.91,-284.973,-39.315
-3.87,-285.114,-39.533
-3.84,-285.078,-39.659
-3.81,-284.798,-39.671
-3.78,-284.447,-39.441
-3.74,-283.885,-39.041
-3.71,-283.043,-38.64
-3.68,-282.095,-38.342
-3.65,-281.218,-38.273
-3.61,-280.656,-38.365
-3.58,-280.025,-38.353
-3.55,-279.182,-38.204
-3.52,-278.13,-37.895
-3.48,-276.971,-37.494
-3.45,-275.673,-37.07
-3.42,-274.199,-36.784
-3.39,-273.076,-36.749
-3.35,-272.058,-36.784
-3.32,-271.005,-36.738
-3.29,-269.882,-36.623
-3.26,-268.689,-36.36
-3.22,-267.25,-35.925
-3.19,-265.671,-35.547
-3.16,-264.197,-35.272
-3.13,-262.617,-35.031
-3.09,-261.003,-34.802
-3.06,-259.389,-34.653
-3.03,-257.95,-34.504
-3.0,-256.335,-34.172
-2.96,-254.44,-33.748
-2.93,-252.615,-33.542
-2.9,-251.036,-33.37
-2.87,-249.422,-33.198
-2.83,-247.772,-33.038
-2.8,-246.193,-32.877
-2.77,-244.789,-32.74
-2.74,-243.14,-32.431
-2.7,-241.28,-32.018
-2.67,-239.455,-31.743
-2.64,-237.84,-31.56
-2.6,-236.156,-31.308
-2.57,-234.19,-30.976
-2.54,-232.33,-30.781
-2.51,-230.576,-30.495
-2.47,-228.54,-30.036
-2.44,-226.329,-29.635
-2.41,-224.118,-29.292
-2.38,-222.153,-29.063
-2.34,-220.117,-28.822
-2.31,-217.976,-28.524
-2.28,-216.046,-28.456
-2.25,-214.502,-28.456
-2.21,-212.537,-28.02
-2.18,-210.22,-27.47
-2.15,-208.044,-27.138
-2.12,-205.798,-26.852
-2.08,-203.622,-26.497
-2.05,-201.517,-26.21
-2.02,-199.341,-25.947
-1.99,-196.884,-25.477
-1.95,-194.182,-24.904
-1.92,-191.339,-24.32
-1.89,-188.496,-23.747
-1.86,-185.338,-23.083
-1.82,-182.179,-22.682
-1.79,-179.372,-22.499
-1.76,-176.599,-22.132
-1.73,-173.511,-21.628
-1.69,-170.317,-21.181
-1.66,-167.299,-20.792
-1.63,-164.386,-20.357
-1.6,-161.157,-19.784
-1.56,-158.034,-19.486
-1.53,-155.507,-19.543
-1.5,-152.769,-18.947
-1.47,-149.4,-18.363
-1.43,-146.101,-17.768
-1.4,-142.978,-17.241
-1.37,-139.819,-16.794
-1.34,-136.591,-16.37
-1.3,-133.362,-15.992
-1.27,-130.273,-15.74
-1.24,-127.361,-15.442
-1.2,-124.342,-15.041
-1.17,-121.219,-14.549
-1.14,-117.955,-13.941
-1.11,-114.516,-13.323
-1.07,-111.076,-12.796
-1.04,-107.742,-12.372
-1.01,-104.549,-12.028
-0.98,-101.215,-11.627
-0.94,-97.951,-11.284
-0.91,-94.757,-10.86
-0.88,-91.458,-10.321
-0.85,-88.019,-9.794
-0.81,-84.685,-9.371
-0.78,-81.491,-9.004
-0.75,-78.333,-8.649
-0.72,-75.174,-8.34
-0.68,-72.121,-8.03
-0.65,-69.032,-7.538
-0.62,-65.628,-6.942
-0.59,-62.119,-6.381
-0.55,-58.574,-5.842
-0.52,-55.135,-5.361
-0.49,-51.625,-4.88
-0.46,-48.116,-4.376
-0.42,-44.606,-3.941
-0.39,-41.026,-3.379
-0.36,-37.271,-2.749
-0.33,-33.481,-2.222
-0.29,-29.936,-1.718
-0.26,-26.357,-1.203
-0.23,-22.742,-0.699
-0.2,-19.127,-0.229
-0.16,-15.652,0.137
-0.13,-12.354,0.493
-0.1,-8.844,0.848
-0.07,-4.808,1.123
-0.03,-0.842,1.386
0.0,1.825,1.936
0.03,4.387,2.52
0.07,6.773,3.116
0.1,10.143,3.803
0.13,14.494,4.445
0.16,19.232,4.88
0.2,22.777,4.926
0.23,24.461,5.384
0.26,25.374,6.369
0.29,26.672,7.469
0.33,28.743,8.58
0.36,31.586,9.852
0.39,35.025,11.158
0.42,39.131,12.212
0.46,43.623,12.991
0.49,48.116,13.666
0.52,52.783,14.205
0.55,57.31,14.549
0.59,61.592,14.778
0.62,65.593,14.881
0.65,69.313,14.915
0.68,72.647,14.961
0.72,75.771,15.075
0.75,78.859,15.247
0.78,81.842,15.625
0.81,84.86,16.061
0.85,87.984,16.553
0.88,91.177,17.057
0.91,94.336,17.516
0.94,97.565,17.962
0.98,100.934,18.489
1.01,104.373,19.028
1.04,107.918,19.658
1.07,111.533,20.162
1.11,115.007,20.643
1.14,118.587,21.227
1.17,122.166,21.617
1.2,125.395,21.8
1.24,128.519,22.201
1.27,131.958,22.808
1.3,135.362,23.14
1.34,138.626,23.736
1.37,141.96,24.194
1.4,145.084,24.458
1.43,147.821,24.526
1.47,150.348,24.664
1.5,153.12,25.053
1.53,155.998,25.466
1.56,158.806,25.89
1.6,161.578,26.462
1.63,164.772,27.092
1.66,168.001,27.585
1.69,170.949,27.906
1.73,173.792,28.204
1.76,176.564,28.398
1.79,179.231,28.616
1.82,181.969,29.005
1.86,184.706,29.406
1.89,187.408,29.739
1.92,189.97,30.082
1.95,192.427,30.323
1.99,194.814,30.472
2.02,196.919,30.609
2.05,199.13,30.838
2.08,201.236,31.193
2.12,203.412,31.526
2.15,205.763,31.789
2.18,208.15,32.11
2.21,210.255,32.328
2.25,212.01,32.454
2.28,213.87,32.637
2.31,216.011,32.981
2.34,218.292,33.416
2.38,220.398,33.782
2.41,222.504,34.138
2.44,224.82,34.573
2.47,227.206,34.79
2.51,229.031,34.768
2.54,230.821,34.962
2.57,233.032,35.26
2.6,235.173,35.524
2.64,236.928,35.718
2.67,238.753,36.039
2.7,240.753,36.257
2.74,242.683,36.383
2.77,244.438,36.646
2.8,246.263,36.898
2.83,248.228,37.196
2.87,250.194,37.448
2.9,251.808,37.483
2.93,253.282,37.586
2.96,255.037,37.883
3.0,256.721,37.929
3.03,257.739,37.815
3.06,259.003,37.987
3.09,260.687,38.307
3.13,262.161,38.399
3.16,263.284,38.582
3.19,264.583,38.754
3.22,265.811,38.777
3.26,266.899,38.743
3.29,267.776,38.811
3.32,268.9,38.972
3.35,270.058,39.167
3.39,271.286,39.419
3.42,272.479,39.716
3.45,273.848,39.934
3.48,275.146,40.106
3.52,276.375,40.198
3.55,277.463,40.232
3.58,278.516,40.301
3.61,279.604,40.358
3.65,280.551,40.415
3.68,281.569,40.598
3.71,282.657,40.713
3.74,283.534,40.724
3.78,284.166,40.69
3.81,284.692,40.61
3.84,285.114,40.438
3.87,285.254,40.278
3.91,285.535,40.289
3.94,286.272,40.702
3.97,286.763,40.61
4.01,286.623,40.404
4.04,286.868,40.61
4.07,287.395,40.495
4.1,287.5,40.415
4.14,287.149,40.198
4.17,287.044,40.129
4.2,287.325,40.278
4.23,287.465,40.346
4.27,287.43,40.312
4.3,287.325,40.243
4.33,287.219,40.049
4.36,286.833,39.819
4.4,286.342,39.59
4.43,285.956,39.636
4.46,285.921,39.808
4.49,285.78,39.842
4.53,285.359,39.705
4.56,284.763,39.43
4.59,284.096,39.086
4.62,283.359,38.754
4.66,282.341,38.422
4.69,281.393,38.307
4.72,280.692,38.365
4.75,279.955,38.342
4.79,279.147,38.193
4.82,278.024,37.952
4.85,276.866,37.643
4.88,275.708,37.288
4.92,274.339,36.979
4.95,273.111,36.864
4.98,272.128,36.83
5.01,270.97,36.726
5.05,269.672,36.566
5.08,268.408,36.303
5.11,266.969,35.902
5.14,265.355,35.512
5.18,263.741,35.226
5.21,262.196,35.02
5.24,260.652,34.825
5.28,259.038,34.664
5.31,257.529,34.561
5.34,256.055,34.378
5.37,254.475,34.08
5.41,252.721,33.817
5.44,251.212,33.656
5.47,249.773,33.485
5.5,248.228,33.324
5.54,246.895,33.29
5.57,245.456,32.958
5.6,243.456,32.419
5.63,241.42,31.972
5.67,239.665,31.743
5.7,237.981,31.526
5.73,236.086,31.262
5.76,233.98,30.987
5.8,231.944,30.655
5.83,230.19,30.54
5.86,228.54,30.46
5.89,226.68,30.105
5.93,224.609,29.75
5.96,222.714,29.59
5.99,221.1,29.361
6.02,219.17,29.005
6.06,217.169,28.742
6.09,215.239,28.444
6.12,213.098,27.952
6.15,210.782,27.436
6.19,208.501,27.024
6.22,205.869,26.68
6.25,203.412,26.382
6.28,201.306,26.13
6.32,199.236,25.912
6.35,196.779,25.603
6.38,194.217,25.099
6.41,191.62,24.595
6.45,188.918,24.102
6.48,186.075,23.53
6.51,183.127,23.083
6.54,180.389,22.819
6.58,177.722,22.453
6.61,174.704,21.926
6.64,171.545,21.307
6.68,168.387,20.838
6.71,165.228,20.311
6.74,161.894,19.726
6.77,158.595,19.406
6.81,155.472,19.028
6.84,152.489,18.833
6.87,149.576,18.535
6.9,146.312,17.939
6.94,142.978,17.344
6.97,139.714,16.931
7.0,136.661,16.507
7.03,133.467,16.038
7.07,130.133,15.66
7.1,127.045,15.328
7.13,124.062,14.949
7.16,120.973,14.537
7.2,117.709,14.01
7.23,114.34,13.472
7.26,111.006,12.945
7.29,107.777,12.544
7.33,104.654,12.235
7.36,101.46,11.879
7.39,98.337,11.49
7.42,95.143,11.032
7.46,91.914,10.516
7.49,88.58,10.024
7.52,85.211,9.474
7.55,81.842,9.05
7.59,78.648,8.706
7.62,75.56,8.363
7.65,72.366,7.985
7.68,69.138,7.549
7.72,65.874,7.08
7.75,62.575,6.598
7.78,59.276,6.094
7.81,55.801,5.59
7.85,52.432,5.132
7.88,48.993,4.662
7.91,45.483,4.101
7.95,41.798,3.528
7.98,38.113,2.978
8.01,34.464,2.406
8.04,30.849,1.799
8.08,27.094,1.226
8.11,23.479,0.664
8.14,19.864,0.195
8.17,16.319,-0.298
8.21,12.88,-0.756
8.24,9.3,-1.054
8.27,4.808,-1.466
8.3,0.597,-1.764
8.34,-2.316,-2.177
8.37,-4.738,-2.486
8.4,-6.914,-2.818
8.43,-10.002,-3.54
8.47,-14.249,-4.181
8.5,-18.846,-4.502
8.53,-22.531,-4.766
8.56,-24.883,-5.396
8.6,-26.006,-6.312
8.63,-27.023,-7.412
8.66,-28.989,-8.637
8.69,-32.112,-9.886
8.73,-35.551,-11.066
8.76,-39.307,-12.12
8.79,-43.553,-12.91
8.82,-48.01,-13.506
8.86,-52.502,-13.987
8.89,-56.749,-14.319
8.92,-60.82,-14.491
8.95,-64.716,-14.663
8.99,-68.401,-14.846
9.02,-71.875,-15.007
9.05,-75.174,-15.202
9.08,-78.403,-15.511
9.12,-81.667,-15.889
9.15,-84.895,-16.313
9.18,-88.264,-16.794
9.22,-91.634,-17.275
9.25,-94.897,-17.699
9.28,-98.126,-18.134
9.31,-101.46,-18.558
9.35,-104.724,-18.993
9.38,-108.023,-19.417
9.41,-111.322,-19.898
9.44,-114.726,-20.402
9.48,-118.095,-20.906
9.51,-121.359,-21.284
9.54,-124.693,-21.777
9.57,-128.168,-22.327
9.61,-131.642,-22.808
9.64,-135.117,-23.404
9.67,-138.837,-24.068
9.7,-142.732,-24.767
9.74,-145.996,-24.87
9.77,-148.277,-24.595
9.8,-150.594,-24.572
9.83,-153.857,-25.34
9.87,-157.086,-25.683
9.9,-159.332,-25.855
9.93,-161.754,-26.462
9.96,-165.404,-27.402
10.0,-169.334,-28.146
10.03,-172.984,-28.983
10.06,-176.704,-29.773
10.09,-180.67,-30.266
10.13,-184.25,-30.518
10.16,-187.689,-30.793
10.19,-190.953,-30.964
10.22,-193.831,-30.987
10.26,-196.533,-31.159
10.29,-199.376,-31.583
10.32,-201.868,-31.64
10.35,-203.622,-31.491
10.39,-205.658,-31.594
10.42,-208.009,-31.778
10.45,-209.694,-31.858
10.49,-210.957,-31.961
10.52,-212.466,-32.11
10.55,-214.081,-32.213
10.58,-215.485,-32.247
10.62,-216.748,-32.431
10.65,-218.433,-32.958
10.68,-220.538,-33.45
10.71,-222.469,-33.805
10.75,-224.434,-34.275
10.78,-226.785,-34.802
10.81,-229.277,-35.146
10.84,-231.418,-35.306
10.88,-233.313,-35.524
10.91,-235.454,-35.81
10.94,-237.875,-36.142
10.97,-240.157,-36.44
11.01,-242.157,-36.681
11.04,-244.052,-36.784
11.07,-245.702,-36.623
11.1,-246.93,-36.406
11.14,-248.088,-36.348
11.17,-249.352,-36.566
11.2,-250.685,-36.795
11.23,-251.878,-37.013
11.27,-253.458,-37.54
11.3,-255.318,-38.01
11.33,-256.932,-38.158
11.36,-257.985,-37.987
11.4,-259.178,-38.032
11.43,-261.179,-38.628
11.46,-263.284,-39.041
11.49,-264.513,-39.052
11.53,-265.53,-39.098
11.56,-267.039,-39.121
11.59,-268.303,-38.983
11.62,-269.145,-39.018
11.66,-270.233,-39.212
11.69,-271.426,-39.476
11.72,-272.655,-39.682
11.75,-273.883,-39.911
11.79,-275.111,-40.152
11.82,-276.34,-40.266
11.85,-277.428,-40.266
11.89,-278.34,-40.266
11.92,-279.323,-40.266
11.95,-280.305,-40.392
11.98,-281.358,-40.564
12.02,-282.552,-40.873
12.05,-283.675,-40.999
12.08,-284.412,-40.919
12.11,-284.833,-40.621
12.15,-285.289,-40.587
12.18,-283.815,-38.605
12.21,-276.024,-32.717
12.24,-265.706,-28.685
12.28,-261.003,-29.475
12.31,-259.599,-30.712
12.34,-254.967,-30.873
12.37,-250.299,-32.488
12.41,-251.071,-35.466
12.44,-255.072,-38.032
12.47,-258.441,-40.163
12.5,-262.617,-42.718
12.54,-269.25,-44.86
12.57,-276.024,-45.857
12.6,-281.534,-46.315
12.63,-285.851,-45.524
12.67,-288.623,-43.943
12.7,-290.659,-42.844
12.73,-292.238,-42.145
12.76,-293.045,-41.618
12.8,-292.834,-41.034
12.83,-291.922,-40.163
12.86,-290.553,-39.315
12.89,-288.834,-38.514
12.93,-286.693,-37.757
12.96,-284.341,-37.265
12.99,-282.341,-37.208
13.02,-280.902,-37.494
13.06,-279.884,-37.883
13.09,-279.042,-38.181
13.12,-278.375,-38.422
13.16,-277.708,-38.376
13.19,-276.936,-38.055
13.22,-275.848,-37.712
13.25,-274.936,-37.528
13.29,-274.234,-37.505
13.32,-273.427,-37.437
13.35,-272.409,-37.288
13.38,-271.461,-37.173
13.42,-270.444,-36.818
13.45,-268.935,-36.234
13.48,-267.215,-35.776
13.51,-265.811,-35.547
13.55,-264.337,-35.306
13.58,-262.547,-35.008
13.61,-260.757,-34.836
13.64,-259.354,-34.756
13.68,-257.809,-34.424
13.71,-255.809,-33.966
13.74,-253.879,-33.714
13.77,-252.335,-33.645
13.81,-250.896,-33.53
13.84,-249.246,-33.381
13.87,-247.772,-33.324
13.9,-246.579,-33.301
13.94,-245.21,-33.038
13.97,-243.456,-32.58
14.0,-241.631,-32.213
14.03,-239.946,-31.846
14.07,-238.016,-31.377
14.1,-235.699,-30.861
14.13,-233.278,-30.472
14.16,-231.207,-30.22
14.2,-228.996,-29.899
14.23,-226.434,-29.406
14.26,-224.223,-29.429
14.29,-222.714,-29.464
14.33,-220.784,-29.189
14.36,-218.643,-28.902
14.39,-216.678,-28.788
14.43,-214.958,-28.478
14.46,-212.782,-27.917
14.49,-210.326,-27.367
14.52,-207.974,-26.932
14.56,-205.518,-26.703
14.59,-203.271,-26.543
14.62,-201.306,-26.336
14.65,-199.13,-26.084
14.69,-196.744,-25.741
14.72,-194.252,-25.179
14.75,-191.62,-24.618
14.78,-188.847,-24.08
14.82,-185.899,-23.45
14.85,-183.057,-23.163
14.88,-180.67,-23.083
14.91,-177.933,-22.533
14.95,-174.809,-22.04
14.98,-171.931,-21.697
15.01,-169.159,-21.193
15.04,-166.071,-20.609
15.08,-162.772,-20.013
15.11,-159.543,-19.589
15.14,-156.595,-19.326
15.17,-153.436,-18.73
15.21,-149.681,-18.008
15.24,-146.031,-17.367
15.27,-142.416,-16.794
15.3,-138.907,-16.336
15.34,-135.608,-16.106
15.37,-132.449,-15.889
15.4,-129.361,-15.637
15.43,-126.448,-15.431
15.47,-123.711,-15.121
15.5,-120.728,-14.606
15.53,-117.429,-13.987
15.56,-114.095,-13.38
15.6,-110.831,-12.899
15.63,-107.672,-12.521
15.66,-104.478,-12.189
15.69,-101.32,-11.799
15.73,-98.232,-11.513
15.76,-95.319,-11.135
15.79,-92.055,-10.585
15.83,-88.615,-10.035
15.86,-85.387,-9.611
15.89,-82.228,-9.199
15.92,-79.07,-8.786
15.96,-75.876,-8.385
15.99,-72.752,-8.076
16.02,-69.594,-7.606
16.05,-66.154,-7.022
16.09,-62.68,-6.461
16.12,-59.135,-5.991
16.15,-55.731,-5.522
16.18,-52.292,-5.04
16.22,-48.677,-4.536
16.25,-45.168,-4.113
16.28,-41.623,-3.54
16.31,-37.727,-2.841
16.35,-33.797,-2.314
16.38,-30.147,-1.821
16.41,-26.567,-1.283
16.44,-22.917,-0.768
16.48,-19.197,-0.298
16.51,-15.617,0.034
16.54,-12.389,0.321
16.57,-9.09,0.55
16.61,-5.861,0.619
16.64,-2.457,0.676
16.67,0.07,1.02
16.7,2.141,1.799
16.74,4.773,2.612
16.77,7.686,3.574
16.8,12.178,4.491
16.83,17.583,5.029
16.87,22.601,5.396
16.9,25.795,5.9
16.93,27.269,6.736
16.96,28.252,7.801
17.0,30.287,8.97
17.03,33.586,10.207
17.06,37.692,11.352
17.1,41.763,12.2
17.13,45.659,12.796
17.16,49.765,13.403
17.19,53.836,13.609
17.23,57.381,13.632
17.26,60.89,13.873
17.29,64.47,14.045
17.32,67.593,14.102
17.36,70.506,14.354
17.39,73.63,14.72
17.42,76.823,15.121
17.45,80.017,15.648
17.49,83.351,16.221
17.52,86.826,16.782
17.55,90.335,17.321
17.58,93.915,17.848
17.62,97.424,18.306
17.65,101.039,18.81
17.68,104.619,19.245
17.71,108.163,19.795
17.75,111.813,20.299
17.78,115.218,20.643
17.81,118.692,21.17
17.84,122.131,21.491
17.88,125.15,21.685
17.91,128.203,22.052
17.94,131.502,22.499
17.97,134.695,22.911
18.01,137.819,23.427
18.04,141.048,23.942
18.07,144.276,24.377
18.1,147.119,24.526
18.14,149.681,24.698
18.17,152.629,25.111
18.2,155.717,25.58
18.23,158.665,26.027
18.27,161.649,26.6
18.3,164.807,27.207
18.33,168.106,27.677
18.37,171.124,27.974
18.4,173.932,28.238
18.43,176.669,28.41
18.46,179.301,28.65
18.5,182.074,29.074
18.53,184.882,29.498
18.56,187.584,29.842
18.59,190.076,30.128
18.63,192.497,30.357
18.66,194.849,30.506
18.69,197.025,30.621
18.72,199.095,30.838
18.76,201.201,31.182
18.79,203.377,31.549
18.82,205.658,31.824
18.85,208.08,32.121
18.89,210.185,32.35
18.92,211.87,32.499
18.95,213.695,32.706
18.98,215.836,33.061
19.02,218.222,33.519
19.05,220.468,33.897
19.08,222.609,34.275
19.11,225.031,34.699
19.15,227.417,34.848
19.18,229.137,34.745
19.21,230.786,34.859
19.24,232.857,35.123
19.28,234.822,35.375
19.31,236.542,35.65
19.34,238.507,35.993
19.37,240.753,36.463
19.41,242.894,36.669
19.44,244.508,36.669
19.47,246.333,37.024
19.5,248.544,37.299
19.54,250.334,37.334
19.57,251.703,37.448
19.6,253.598,37.78
19.63,255.669,38.067
19.67,257.143,38.032
19.7,258.371,38.032
19.73,259.81,38.158
19.77,261.494,38.422
19.8,263.109,38.708
19.83,264.337,38.743
19.86,265.355,38.708
19.9,266.513,38.708
19.93,267.426,38.594
19.96,268.057,38.502
19.99,268.829,38.662
20.03,269.882,38.914
20.06,270.9,39.155
20.09,272.023,39.567
20.12,273.462,39.934
20.16,274.76,40.117
20.19,275.919,40.175
20.22,276.936,40.175
20.25,278.024,40.209
20.29,279.007,40.232
20.32,280.025,40.404
20.35,281.113,40.656
20.38,282.271,40.873
20.42,283.218,40.885
20.45,283.955,40.816
20.48,284.657,40.702
20.51,285.149,40.53
20.55,285.324,40.346
20.58,285.675,40.404
20.61,286.377,40.713
20.64,286.798,40.61
20.68,286.798,40.564
20.71,287.184,40.69
20.74,287.57,40.644
20.77,287.395,40.278
20.81,286.798,39.877
20.84,286.693,39.911
20.87,286.938,40.152
20.9,286.974,40.129
20.94,286.693,40.083
20.97,286.377,40.003
21.0,286.272,39.854
21.04,285.886,39.625
21.07,285.394,39.499
21.1,285.219,39.613
21.13,285.324,39.831
21.17,285.394,39.923
21.2,285.184,39.877
21.23,284.798,39.613
21.26,284.236,39.224
21.3,283.499,38.846
21.33,282.587,38.536
21.36,281.815,38.445
21.39,281.218,38.548
21.43,280.551,38.502
21.46,279.674,38.307
21.49,278.586,37.975
21.52,277.393,37.54
21.56,275.919,37.093
21.59,274.445,36.761
21.62,273.006,36.646
21.65,271.777,36.612
21.69,270.514,36.52
21.72,269.215,36.44
21.75,267.952,36.234
21.78,266.478,35.902
21.82,264.969,35.615
21.85,263.53,35.409
21.88,262.161,35.214
21.91,260.652,35.008
21.95,259.143,34.882
21.98,257.88,34.768
22.01,256.581,34.584
22.04,255.002,34.275
22.08,253.423,34.034
22.11,252.054,33.897
22.14,250.685,33.645
22.17,248.965,33.313
22.21,247.246,33.141
22.24,245.807,32.958
22.27,244.157,32.58
22.31,242.052,32.098
22.34,239.771,31.549
22.37,237.735,31.262
22.4,235.91,31.056
22.44,233.839,30.758
22.47,231.628,30.483
22.5,229.733,30.346
22.53,227.663,29.979
22.57,225.487,29.613
22.6,223.451,29.429
22.63,221.696,29.28
22.66,219.731,28.971
22.7,217.696,28.765
22.73,215.871,28.582
22.76,214.256,28.433
22.79,212.326,28.009
22.83,210.255,27.585
22.86,208.185,27.31
22.89,205.693,26.737
22.92,203.482,26.565
22.96,202.078,26.657
22.99,200.218,26.256
23.02,197.305,25.534
23.05,194.463,25.042
23.09,192.181,24.641
23.12,189.584,24.034
23.15,186.075,23.106
23.18,182.846,22.877
23.22,180.495,22.888
23.25,178.038,22.51
23.28,174.458,21.743
23.31,171.054,21.307
23.35,168.106,20.757
23.38,165.228,20.471
23.41,162.07,20.036
23.44,158.701,19.543
23.48,155.647,19.257
23.51,153.226,19.314
23.54,150.523,18.73
23.57,146.838,17.928
23.61,143.329,17.412
23.64,140.205,16.84
23.67,136.836,16.244
23.71,133.221,15.797
23.74,129.922,15.488
23.77,126.764,15.144
23.8,123.605,14.801
23.84,120.412,14.4
23.87,117.218,13.918
23.9,113.989,13.426
23.93,110.725,12.945
23.97,107.602,12.613
24.0,104.549,12.326
24.03,101.636,11.937
24.06,98.512,11.49
24.1,95.319,11.02
24.13,92.055,10.47
24.16,88.686,9.932
24.19,85.246,9.405
24.23,81.912,9.004
24.26,78.754,8.66
24.29,75.525,8.305
24.32,72.366,7.893
24.36,69.102,7.48
24.39,65.909,7.022
24.42,62.575,6.518
24.45,59.241,6.003
24.49,55.766,5.51
24.52,52.432,5.075
24.55,49.028,4.617
24.58,45.659,4.124
24.62,42.29,3.735
24.65,39.026,3.288
24.68,35.481,2.646
24.71,31.726,1.982
24.75,27.936,1.363
24.78,24.216,0.756
24.81,20.39,0.183
24.84,16.565,-0.389
24.88,12.74,-0.894
24.91,8.669,-1.272
24.94,4.001,-1.352
24.98,0.281,-1.455
25.01,-2.246,-2.039
25.04,-4.808,-2.635
25.07,-7.335,-3.265
25.11,-11.02,-3.987
25.14,-15.442,-4.513
25.17,-19.864,-4.857
25.2,-22.917,-5.258
25.24,-24.672,-6.003
25.27,-25.725,-6.988
25.3,-27.339,-8.099
25.33,-29.831,-9.279
25.37,-33.06,-10.413
25.4,-36.78,-11.41
25.43,-40.746,-12.223
25.46,-44.676,-12.807
25.5,-48.537,-13.151
25.53,-52.432,-13.46
25.56,-56.468,-13.827
25.59,-60.364,-14.09
25.63,-63.943,-14.262
25.66,-67.453,-14.514
25.69,-70.963,-14.812
25.72,-74.332,-15.064
25.76,-77.596,-15.454
25.79,-81.0,-15.946
25.82,-84.509,-16.427
25.85,-88.054,-16.931
25.89,-91.493,-17.378
25.92,-94.792,-17.733
25.95,-98.056,-18.077
25.98,-101.39,-18.489
26.02,-104.759,-19.039
26.05,-108.163,-19.497
26.08,-111.497,-19.978
26.11,-114.902,-20.597
26.15,-118.622,-21.193
26.18,-122.061,-21.594
26.21,-125.395,-22.086
26.25,-128.94,-22.545
26.28,-132.169,-22.762
26.31,-135.327,-23.22
26.34,-138.626,-23.667
26.38,-142.101,-24.297
26.41,-145.505,-24.675
26.44,-148.137,-24.664
26.47,-150.594,-24.767
26.51,-153.471,-25.202
26.54,-156.595,-25.66
26.57,-159.683,-26.336
26.6,-163.052,-27.218
26.64,-166.772,-27.974
26.67,-170.352,-28.524
26.7,-173.862,-28.971
26.73,-177.301,-29.269
26.77,-180.389,-29.269
26.8,-182.916,-29.189
26.83,-185.303,-29.315
26.86,-187.9,-29.464
26.9,-190.005,-29.498
26.93,-191.655,-29.429
26.96,-193.129,-29.383
26.99,-194.743,-29.624
27.03,-196.603,-29.922
27.06,-198.183,-30.128
27.09,-199.727,-30.506
27.12,-201.727,-31.09
27.16,-204.044,-31.514
27.19,-206.255,-31.686
27.22,-208.29,-31.984
27.25,-210.396,-32.362
27.29,-212.572,-32.74
27.32,-214.783,-33.084
27.35,-217.134,-33.496
27.38,-219.521,-33.92
27.42,-222.083,-34.355
27.45,-224.574,-34.71
27.48,-226.996,-34.974
27.52,-229.172,-35.157
27.55,-231.383,-35.26
27.58,-233.453,-35.443
27.61,-235.278,-35.501
27.65,-236.928,-35.547
27.68,-238.823,-35.982
27.71,-240.964,-36.303
27.74,-242.648,-36.314
27.78,-243.982,-36.417
27.81,-245.772,-36.692
27.84,-247.597,-36.864
27.87,-249.106,-37.013
27.91,-250.65,-37.242
27.94,-252.229,-37.46
27.97,-253.879,-37.677
28.0,-255.528,-37.872
28.04,-257.037,-38.09
28.07,-258.652,-38.296
28.1,-260.161,-38.422
28.13,-261.6,-38.514
28.17,-262.933,-38.64
28.2,-264.302,-38.731
28.23,-265.495,-38.777
28.26,-266.618,-38.857
28.3,-267.776,-38.972
28.33,-269.005,-39.121
28.36,-270.093,-39.247
28.39,-271.251,-39.407
28.43,-272.479,-39.579
28.46,-273.672,-39.739
28.49,-274.796,-39.923
28.52,-276.024,-40.094
28.56,-277.182,-40.232
28.59,-278.305,-40.278
28.62,-279.182,-40.243
28.65,-280.025,-40.278
28.69,-281.007,-40.404
28.72,-281.85,-40.427
28.75,-282.306,-40.255
28.78,-282.271,-39.751
28.82,-281.744,-39.144
28.85,-280.762,-38.456
28.88,-280.095,-38.365
28.92,-280.516,-39.247
28.95,-280.972,-39.453
28.98,-280.832,-39.831
29.01,-281.99,-40.713
29.05,-283.429,-40.896
29.08,-284.377,-41.171
29.11,-285.289,-41.297
29.14,-286.552,-41.492
29.18,-288.062,-41.767
29.21,-289.43,-41.996
29.24,-290.659,-42.088
29.27,-291.641,-42.065
29.31,-292.378,-41.778
29.34,-292.554,-41.32
29.37,-292.168,-40.656
29.4,-291.36,-40.014
29.44,-290.448,-39.648
29.47,-289.606,-39.407
29.5,-288.448,-39.109
29.53,-287.044,-38.811
29.57,-285.464,-38.41
29.6,-283.885,-38.067
29.63,-282.376,-37.838
29.66,-281.042,-37.815
29.7,-279.99,-38.01
29.73,-279.323,-38.239
29.76,-278.656,-38.33
29.79,-277.884,-38.307
29.83,-277.147,-38.181
29.86,-276.41,-37.918
29.89,-275.462,-37.586
29.92,-274.409,-37.299
29.96,-273.462,-37.185
29.99,-272.514,-37.059
30.02,-271.391,-36.852
30.05,-270.163,-36.646
30.09,-268.829,-36.257
30.12,-267.18,-35.753
30.15,-265.355,-35.329
30.19,-263.565,-35.031
30.22,-261.986,-34.836
30.25,-260.231,-34.653
30.28,-258.582,-34.493
30.32,-256.932,-34.344
30.35,-255.247,-34.046
30.38,-253.387,-33.645
30.41,-251.492,-33.393
30.45,-249.808,-33.187
30.48,-248.158,-33.038
30.51,-246.368,-32.809
30.54,-244.719,-32.751
30.58,-243.491,-32.809
30.61,-241.911,-32.454
30.64,-239.911,-31.984
30.67,-238.051,-31.709
30.71,-236.472,-31.48
30.74,-234.612,-31.09
30.77,-232.471,-30.747
30.8,-230.646,-30.644
30.84,-229.102,-30.495
30.87,-227.312,-30.254
30.9,-225.346,-30.014
30.93,-223.592,-29.83
30.97,-221.942,-29.59
31.0,-220.117,-29.315
31.03,-218.327,-29.04
31.06,-216.432,-28.811
31.1,-214.572,-28.433
31.13,-212.502,-28.009
31.16,-210.396,-27.585
31.19,-208.115,-27.069
31.23,-205.342,-26.646
31.26,-203.026,-26.428
31.29,-201.166,-26.199
31.32,-198.885,-25.798
31.36,-196.182,-25.408
31.39,-193.55,-24.904
31.42,-190.988,-24.4
31.46,-188.286,-23.885
31.49,-185.162,-23.232
31.52,-182.109,-22.854
31.55,-179.512,-22.693
31.59,-176.81,-22.235
31.62,-173.616,-21.72
31.65,-170.528,-21.307
31.68,-167.825,-21.009
31.72,-164.597,-20.162
31.75,-161.017,-19.646
31.78,-158.139,-19.623
31.81,-155.963,-19.658
31.85,-153.331,-19.28
31.88,-150.313,-18.89
31.91,-147.26,-18.214
31.94,-143.961,-17.458
31.98,-140.627,-16.885
32.01,-137.222,-16.359
32.04,-133.713,-15.854
32.07,-130.344,-15.476
32.11,-127.15,-15.213
32.14,-124.062,-14.881
32.17,-120.833,-14.457
32.2,-117.499,-13.953
32.24,-114.059,-13.403
32.27,-110.831,-12.956
32.3,-107.602,-12.59
32.33,-104.478,-12.269
32.37,-101.285,-11.822
32.4,-98.126,-11.456
32.43,-94.933,-10.986
32.46,-91.634,-10.425
32.5,-88.159,-9.898
32.53,-84.825,-9.451
32.56,-81.561,-9.061
32.59,-78.297,-8.683
32.63,-75.069,-8.328
32.66,-71.91,-7.973
32.69,-68.716,-7.515
32.72,-65.382,-6.976
32.76,-61.943,-6.404
32.79,-58.469,-5.865
32.82,-54.994,-5.418
32.86,-51.59,-4.926
32.89,-47.94,-4.353
32.92,-44.29,-3.895
32.95,-40.781,-3.471
32.99,-37.306,-3.013
33.02,-34.007,-2.566
33.05,-30.673,-2.142
33.08,-27.339,-1.695
33.12,-24.075,-1.226
33.15,-20.636,-0.71
33.18,-17.162,-0.103
33.21,-13.687,0.687
33.25,-9.756,1.386
33.28,-4.808,1.753
33.31,-0.246,1.982
33.34,3.018,2.509
33.38,5.966,3.036
33.41,9.195,3.414
33.44,13.161,3.757
33.47,17.477,4.135
33.51,21.513,4.387
33.54,24.216,4.639
33.57,25.444,5.235
33.6,26.006,6.369
33.64,27.304,7.629
33.67,29.585,8.901
33.7,32.288,10.184
33.73,35.551,11.375
33.77,39.658,12.189
33.8,43.974,12.853
33.83,48.466,13.609
33.86,53.029,14.148
33.9,57.346,14.4
33.93,61.346,14.617
33.96,65.277,14.801
33.99,68.857,14.823
34.03,72.191,14.972
34.06,75.455,15.19
34.09,78.543,15.396
34.13,81.596,15.774
34.16,84.86,16.313
34.19,88.264,16.782
34.22,91.528,17.275
34.26,94.757,17.642
34.29,97.951,18.077
34.32,101.215,18.432
34.35,104.338,18.833
34.39,107.391,19.096
34.42,110.269,19.44
34.45,113.533,20.082
34.48,117.007,20.654
34.52,120.201,21.135
34.55,123.465,21.571
34.58,126.904,22.224
34.61,130.589,22.774
34.65,134.029,23.22
34.68,137.433,23.816
34.71,141.223,24.446
34.74,144.768,24.824
34.78,147.751,24.904
34.81,150.594,25.111
34.84,153.752,25.5
34.87,156.911,25.901
34.91,159.648,26.256
34.94,162.491,26.737
34.97,165.579,27.253
35.0,168.668,27.642
35.04,171.475,27.952
35.07,174.107,28.249
35.1,176.775,28.444
35.13,179.407,28.696
35.17,182.109,29.131
35.2,184.846,29.567
35.23,187.479,29.91
35.26,190.005,30.22
35.3,192.427,30.46
35.33,194.884,30.609
35.36,196.989,30.735
35.4,199.06,30.987
35.43,201.236,31.331
35.46,203.517,31.663
35.49,205.833,31.915
35.53,208.185,32.202
35.56,210.15,32.385
35.59,211.765,32.454
35.62,213.449,32.545
35.66,215.52,32.832
35.69,217.696,33.255
35.72,219.731,33.611
35.75,221.732,34.023
35.79,224.118,34.504
35.82,226.54,34.836
35.85,228.61,34.974
35.88,230.716,35.26
35.92,233.032,35.604
35.95,235.349,35.867
35.98,237.279,35.948
36.01,239.174,36.222
36.05,241.455,36.646
36.08,243.456,36.6
36.11,244.649,36.463
36.14,246.088,36.646
36.18,248.123,37.001
36.21,249.913,37.185
36.24,251.282,37.345
36.27,252.896,37.735
36.31,254.897,38.044
36.34,256.511,38.113
36.37,257.774,38.181
36.4,259.319,38.399
36.44,260.968,38.582
36.47,262.407,38.72
36.5,263.741,38.892
36.53,265.074,39.018
36.57,266.267,39.006
36.6,267.285,39.006
36.63,268.268,38.983
36.66,269.04,38.914
36.7,269.987,39.144
36.73,271.216,39.476
36.76,272.374,39.671
36.8,273.357,39.865
36.83,274.62,40.129
36.86,275.919,40.278
36.89,276.866,40.243
36.93,277.744,40.22
36.96,278.796,40.415
36.99,280.025,40.564
37.02,280.972,40.679
37.06,281.85,40.839
37.09,283.008,41.068
37.12,284.061,40.999
37.15,284.447,40.724
37.19,284.482,40.358
37.22,284.903,40.346
37.25,285.324,40.346
37.28,285.886,40.69
37.32,286.201,40.656
37.35,286.237,40.53
37.38,286.623,40.644
37.41,286.938,40.507
37.45,287.044,40.53
37.48,287.009,40.381
37.51,287.009,40.301
37.54,287.149,40.438
37.58,287.395,40.495
37.61,287.43,40.461
37.64,287.36,40.346
37.67,287.184,40.129
37.71,286.798,39.877
37.74,286.307,39.625
37.77,285.956,39.671
37.8,285.851,39.842
37.84,285.675,39.888
37.87,285.324,39.785
37.9,284.763,39.579
37.93,284.131,39.258
37.97,283.324,38.903
38.0,282.411,38.64
38.03,281.534,38.605
38.07,281.007,38.651
38.1,280.2,38.582
38.13,279.253,38.365
38.16,278.13,38.055
38.2,276.971,37.7
38.23,275.638,37.322
38.26,274.129,37.036
38.29,272.935,36.967
38.33,271.848,36.979
38.36,270.689,36.875
38.39,269.496,36.738
38.42,268.268,36.509
38.46,266.794,36.131
38.49,265.215,35.753
38.52,263.705,35.489
38.55,262.161,35.249
38.59,260.582,35.031
38.62,259.003,34.871
38.65,257.564,34.756
38.68,256.16,34.561
38.72,254.51,34.229
38.75,252.791,33.954
38.78,251.387,33.817
38.81,249.878,33.53
38.85,247.983,33.164
38.88,246.439,33.084
38.91,244.859,32.786
38.94,242.894,32.236
38.98,240.508,31.72
39.01,238.753,31.72
39.04,237.489,31.709
39.07,235.594,31.423
39.11,233.524,31.159
39.14,231.979,31.148
39.17,230.681,30.987
39.2,228.926,30.609
39.24,226.891,30.197
39.27,224.89,29.899
39.3,223.135,29.59
39.34,221.17,29.28
39.37,219.135,29.005
39.4,217.099,28.788
39.43,215.169,28.478
39.47,212.958,27.997
39.5,210.606,27.516
39.53,208.325,27.127
39.56,205.798,26.829
39.6,203.342,26.588
39.63,201.341,26.382
39.66,199.271,26.187
39.69,196.954,25.844
39.73,194.322,25.271
39.76,191.655,24.744
39.79,188.988,24.206
39.82,186.005,23.576
39.86,182.951,23.106
39.89,180.214,22.9
39.92,177.477,22.545
39.95,174.353,21.926
39.99,171.054,21.353
40.02,167.966,20.964
40.05,164.948,20.379
40.08,161.543,19.818
40.12,158.35,19.589
40.15,155.296,19.154
40.18,152.208,18.821
40.21,149.155,18.409
40.25,145.961,17.882
40.28,142.662,17.344
40.31,139.468,16.966
40.34,136.38,16.622
40.38,133.467,16.267
40.41,130.484,16.026
40.44,127.747,15.74
40.47,124.869,15.293
40.51,121.78,14.789
40.54,118.552,14.182
40.57,115.253,13.552
40.6,111.813,12.968
40.64,108.409,12.567
40.67,105.251,12.246
40.7,101.952,11.811
40.74,98.582,11.398
40.77,95.319,10.94
40.8,91.985,10.402
40.83,88.475,9.886
40.87,84.966,9.382
40.9,81.561,8.97
40.93,78.227,8.592
40.96,74.998,8.225
41.0,71.77,7.859
41.03,68.576,7.538
41.06,65.453,7.16
41.09,62.224,6.701
41.13,58.89,6.197
41.16,55.591,5.739
41.19,52.257,5.304
41.22,48.888,4.788
41.26,45.308,4.147
41.29,41.623,3.586
41.32,38.043,3.093
41.35,34.323,2.474
41.39,30.463,1.787
41.42,26.497,1.214
41.45,22.812,0.722
41.48,19.057,0.286
41.52,15.407,-0.126
41.55,11.757,-0.55
41.58,8.107,-0.871
41.61,3.86,-1.02
41.65,0.351,-1.26
41.68,-1.895,-1.902
41.71,-4.282,-2.394
41.74,-6.387,-2.921
41.78,-9.511,-3.689
41.81,-13.722,-4.319
41.84,-18.355,-4.628
41.87,-22.075,-4.903
41.91,-24.532,-5.476
41.94,-25.725,-6.323
41.97,-26.918,-7.366
42.01,-28.883,-8.5
42.04,-31.726,-9.737
42.07,-35.06,-11.02
42.1,-38.991,-12.109
42.14,-43.413,-12.91
42.17,-47.905,-13.563
42.2,-52.362,-14.033
42.23,-56.714,-14.331
42.27,-60.82,-14.526
42.3,-64.821,-14.72
42.33,-68.506,-14.915
42.36,-72.086,-15.167
42.4,-75.595,-15.419
42.43,-78.929,-15.728
42.46,-82.193,-16.072
42.49,-85.422,-16.45
42.53,-88.756,-16.954
42.56,-92.16,-17.458
42.59,-95.459,-17.859
42.62,-98.618,-18.249
42.66,-101.776,-18.638
42.69,-105.075,-19.085
42.72,-108.339,-19.578
42.75,-111.743,-20.082
42.79,-115.112,-20.609
42.82,-118.481,-21.101
42.85,-121.745,-21.479
42.88,-124.974,-21.903
42.92,-128.273,-22.338
42.95,-131.607,-22.9
42.98,-135.046,-23.427
43.01,-138.802,-24.217
43.05,-142.697,-24.824
43.08,-145.891,-24.881
43.11,-148.207,-24.561
43.14,-150.418,-24.595
43.18,-153.752,-25.42
43.21,-156.981,-25.798
43.24,-159.508,-26.21
43.28,-162.421,-26.978
43.31,-166.141,-27.7
43.34,-169.51,-28.112
43.37,-172.493,-28.478
43.41,-175.371,-28.719
43.44,-178.214,-28.822
43.47,-180.811,-28.914
43.5,-183.478,-29.349
43.54,-186.32,-29.796
43.57,-188.707,-29.922
43.6,-190.602,-29.956
43.63,-192.603,-30.071
43.67,-194.673,-30.14
43.7,-196.358,-30.185
43.73,-197.832,-30.288
43.76,-199.481,-30.678
43.8,-201.552,-31.216
43.83,-203.763,-31.732
43.86,-206.255,-32.213
43.89,-208.852,-32.706
43.93,-211.203,-33.141
43.96,-213.589,-33.519
43.99,-216.116,-33.863
44.02,-218.713,-34.206
44.06,-221.346,-34.561
44.09,-223.837,-34.882
44.12,-226.259,-35.146
44.15,-228.575,-35.352
44.19,-230.646,-35.363
44.22,-232.365,-35.329
44.25,-234.12,-35.443
44.28,-235.805,-35.478
44.32,-237.244,-35.409
44.35,-238.753,-35.81
44.38,-240.648,-36.211
44.41,-242.192,-36.257
44.45,-243.175,-36.177
44.48,-244.719,-36.612
44.51,-246.86,-37.013
44.55,-248.544,-37.185
44.58,-249.948,-37.471
44.61,-251.878,-37.906
44.64,-253.984,-38.227
44.68,-255.704,-38.376
44.71,-257.213,-38.456
44.74,-258.932,-38.571
44.77,-260.512,-38.628
44.81,-261.88,-38.72
44.84,-263.214,-38.846
44.87,-264.442,-38.914
44.9,-265.495,-38.869
44.94,-266.513,-38.892
44.97,-267.531,-38.995
45.0,-268.654,-39.189
45.03,-269.707,-39.35
45.07,-270.83,-39.625
45.1,-272.093,-39.865
45.13,-273.357,-40.06
45.16,-274.55,-40.232
45.2,-275.743,-40.381
45.23,-276.971,-40.484
45.26,-278.059,-40.587
45.29,-279.077,-40.61
45.33,-280.025,-40.724
45.36,-281.078,-40.839
45.39,-282.095,-40.965
45.42,-282.903,-40.942
45.46,-283.359,-40.793
45.49,-283.604,-40.564
45.52,-283.78,-40.255
45.55,-283.64,-39.945
45.59,-283.745,-40.152
45.62,-284.096,-40.232
45.65,-284.412,-40.541
45.68,-285.219,-41.137
45.72,-286.201,-41.355
45.75,-287.044,-41.641
45.78,-287.675,-41.4
45.81,-287.991,-41.229
45.85,-288.588,-41.251
45.88,-289.114,-41.194
45.91,-289.255,-41.057
45.95,-289.185,-40.988
45.98,-289.185,-40.724
46.01,-288.693,-40.278
46.04,-287.851,-39.819
46.08,-286.938,-39.556
46.11,-286.377,-39.522
46.14,-285.851,-39.602
46.17,-285.324,-39.636
46.21,-284.622,-39.579
46.24,-283.955,-39.35
46.27,-283.078,-39.041
46.3,-282.06,-38.708
46.34,-281.007,-38.491
46.37,-280.165,-38.491
46.4,-279.533,-38.605
46.43,-279.007,-38.64
46.47,-278.2,-38.536
46.5,-277.357,-38.307
46.53,-276.305,-37.929
46.56,-275.076,-37.551
46.6,-273.848,-37.253
46.63,-272.76,-37.185
46.66,-271.812,-37.185
46.69,-270.795,-37.082
46.73,-269.566,-36.979
46.76,-268.513,-36.749
46.79,-267.215,-36.383
46.82,-265.706,-36.051
46.86,-264.337,-35.81
46.89,-262.933,-35.615
46.92,-261.424,-35.363
46.95,-259.775,-35.1
46.99,-258.231,-34.882
47.02,-256.511,-34.481
47.05,-254.3,-33.886
47.08,-252.299,-33.771
47.12,-250.966,-33.794
47.15,-249.281,-33.496
47.18,-247.281,-33.221
47.22,-245.351,-32.923
47.25,-243.736,-32.751
47.28,-242.227,-32.602
47.31,-240.437,-32.362
47.35,-238.683,-32.098
47.38,-237.068,-31.995
47.41,-235.594,-31.801
47.44,-233.804,-31.434
47.48,-232.085,-31.274
47.51,-230.716,-31.239
47.54,-229.102,-30.85
47.57,-226.961,-30.266
47.61,-224.785,-29.945
47.64,-222.995,-29.647
47.67,-221.03,-29.246
47.7,-218.748,-28.971
47.74,-216.748,-28.788
47.77,-214.818,-28.524
47.8,-212.642,-28.089
47.83,-210.291,-27.551
47.87,-207.869,-27.104
47.9,-205.307,-26.76
47.93,-202.815,-26.405
47.96,-200.569,-26.142
48.0,-198.253,-25.924
48.03,-195.761,-25.58
48.06,-193.164,-25.111
48.09,-190.567,-24.641
48.13,-187.865,-24.125
48.16,-184.987,-23.541
48.19,-181.969,-23.14
48.22,-179.372,-22.968
48.26,-176.775,-22.579
48.29,-173.721,-22.052
48.32,-170.633,-21.605
48.35,-167.825,-21.193
48.39,-164.807,-20.643
48.42,-161.473,-19.99
48.45,-158.139,-19.635
48.49,-155.437,-19.52
48.52,-152.313,-18.833
48.55,-148.663,-18.249
48.58,-145.224,-17.733
48.62,-142.03,-17.309
48.65,-138.942,-17.0
48.68,-135.924,-16.702
48.71,-132.87,-16.416
48.75,-130.028,-16.175
48.78,-127.325,-15.832
48.81,-124.377,-15.373
48.84,-121.289,-14.858
48.88,-118.095,-14.216
48.91,-114.761,-13.563
48.94,-111.252,-13.025
48.97,-107.953,-12.635
49.01,-104.794,-12.269
49.04,-101.53,-11.822
49.07,-98.232,-11.421
49.1,-94.827,-10.963
49.14,-91.423,-10.413
49.17,-87.949,-9.852
49.2,-84.544,-9.382
49.23,-81.21,-8.981
49.27,-77.771,-8.557
49.3,-74.472,-8.122
49.33,-71.173,-7.778
49.36,-68.015,-7.377
49.4,-64.751,-6.965
49.43,-61.487,-6.541
49.46,-58.223,-6.117
49.49,-54.994,-5.693
49.53,-51.73,-5.224
49.56,-48.326,-4.651
49.59,-44.781,-4.067
49.62,-41.026,-3.391
49.66,-37.131,-2.738
49.69,-33.516,-2.211
49.72,-29.901,-1.695
49.75,-26.357,-1.226
49.79,-22.917,-0.733
49.82,-19.197,-0.206
49.85,-15.582,0.367
49.89,-11.862,1.088
49.92,-7.37,1.615
49.95,-2.457,1.661
49.98,0.912,1.81
50.02,3.439,2.245
50.05,5.545,2.6
50.08,7.791,3.001
50.11,10.704,3.448
50.15,14.319,4.009
50.18,18.425,4.456
50.21,21.864,4.857
50.24,24.146,5.407
50.28,25.198,6.312
50.31,26.357,7.503
50.34,28.252,8.706
50.37,30.954,9.966
50.41,34.393,11.238
50.44,38.64,12.246
50.47,42.957,12.991
50.5,47.343,13.575
50.54,51.765,14.079
50.57,56.187,14.411
50.6,60.434,14.663
50.63,64.435,14.869
50.67,68.33,15.098
50.7,72.015,15.316
50.73,75.56,15.522
50.76,78.894,15.797
50.8,82.263,16.164
50.83,85.527,16.462
50.86,88.651,16.874
50.89,91.985,17.412
50.93,95.284,17.802
50.96,98.442,18.157
50.99,101.53,18.627
51.02,104.935,19.142
51.06,108.374,19.749
51.09,111.989,20.368
51.12,115.569,20.952
51.16,119.183,21.479
51.19,122.588,21.834
51.22,125.711,22.04
51.25,128.87,22.419
51.29,132.344,23.014
51.32,135.678,23.381
51.35,138.837,23.942
51.38,142.206,24.423
51.42,145.224,24.652
51.45,147.856,24.687
51.48,150.348,24.881
51.51,153.156,25.271
51.55,155.928,25.672
51.58,158.63,26.061
51.61,161.368,26.669
51.64,164.597,27.31
51.68,167.86,27.86
51.71,170.844,28.238
51.74,173.721,28.57
51.77,176.599,28.822
51.81,179.407,29.051
51.84,182.144,29.406
51.87,184.987,29.807
51.9,187.654,30.128
51.94,190.251,30.426
51.97,192.673,30.632
52.0,195.024,30.758
52.03,197.13,30.873
52.07,199.236,31.125
52.1,201.411,31.503
52.13,203.658,31.869
52.16,205.974,32.133
52.2,208.36,32.431
52.23,210.361,32.625
52.26,211.975,32.66
52.29,213.73,32.774
52.33,215.73,33.084
52.36,217.941,33.553
52.39,220.012,33.977
52.43,222.153,34.447
52.46,224.68,34.974
52.49,227.136,35.249
52.52,229.207,35.329
52.56,231.207,35.581
52.59,233.524,35.879
52.62,235.84,36.142
52.65,237.665,36.222
52.69,239.42,36.452
52.72,241.595,36.83
52.75,243.526,36.898
52.78,244.859,36.795
52.82,246.017,36.738
52.85,247.772,37.07
52.88,249.667,37.471
52.91,251.247,37.643
52.95,252.51,37.826
52.98,254.335,38.239
53.01,256.195,38.422
53.04,257.564,38.342
53.08,258.757,38.502
53.11,260.406,38.777
53.14,261.88,38.857
53.17,263.144,39.029
53.21,264.442,39.189
53.24,265.741,39.212
53.27,266.759,39.201
53.3,267.812,39.293
53.34,268.935,39.476
53.37,270.198,39.705
53.4,271.426,39.911
53.43,272.62,40.14
53.47,273.953,40.312
53.5,275.217,40.461
53.53,276.41,40.553
53.56,277.533,40.656
53.6,278.586,40.713
53.63,279.498,40.747
53.66,280.481,40.793
53.69,281.464,40.954
53.73,282.516,41.057
53.76,283.324,41.091
53.79,283.99,41.045
53.83,284.482,40.954
53.86,284.903,40.759
53.89,285.043,40.633
53.92,285.394,40.667
53.96,285.851,40.908
53.99,286.342,41.011
54.02,286.658,41.08
54.05,287.044,41.034
54.09,287.079,40.77
54.12,287.219,40.873
54.15,287.395,40.69
54.18,287.079,40.495
54.22,287.079,40.621
54.25,287.325,40.736
54.28,287.254,40.633
54.31,286.868,40.427
54.35,286.588,40.255
54.38,286.307,40.083
54.41,285.745,39.865
54.44,285.324,39.945
54.48,285.359,40.209
54.51,285.359,40.301
54.54,285.114,40.232
54.57,284.657,40.003
54.61,284.131,39.659
54.64,283.359,39.304
54.67,282.411,38.96
54.7,281.639,38.846
54.74,280.937,38.903
54.77,280.235,38.857
54.8,279.288,38.651
54.83,278.165,38.307
54.87,276.936,37.906
54.9,275.533,37.471
54.93,274.023,37.116
54.96,272.62,37.013
55.0,271.356,37.059
55.03,270.268,36.99
55.06,269.005,36.841
55.1,267.741,36.646
55.13,266.373,36.314
55.16,264.934,36.028
55.19,263.53,35.776
55.23,262.091,35.547
55.26,260.547,35.329
55.29,259.038,35.157
55.32,257.599,34.997
55.36,256.16,34.71
55.39,254.405,34.344
55.42,252.615,34.034
55.45,251.036,33.874
55.49,249.457,33.633
55.52,247.772,33.427
55.55,246.439,33.507
55.58,245.035,33.244
55.62,243.034,32.683
55.65,240.858,32.259
55.68,239.209,32.053
55.71,237.524,31.801
55.75,235.489,31.468
55.78,233.383,31.228
55.81,231.558,31.056
55.84,229.944,30.919
55.88,228.084,30.609
55.91,226.048,30.277
55.94,224.153,30.071
55.97,222.363,29.75
56.01,220.328,29.418
56.04,218.292,29.177
56.07,216.432,28.902
56.1,214.502,28.639
56.14,212.326,28.169
56.17,210.115,27.734
56.2,207.939,27.436
56.23,205.272,26.909
56.27,202.956,26.795
56.3,201.131,26.543
56.33,198.885,26.199
56.37,196.498,26.027
56.4,194.217,25.512
56.43,191.69,24.985
56.46,189.093,24.515
56.5,186.005,23.61
56.53,182.881,23.289
56.56,180.635,23.323
56.59,178.178,22.877
56.63,174.634,22.018
56.66,171.194,21.491
56.69,168.457,21.181
56.72,165.474,20.563
56.76,161.438,19.635
56.79,157.858,19.463
56.82,155.226,19.291
56.85,152.594,19.222
56.89,149.646,18.81
56.92,146.207,18.168
56.95,142.908,17.607
56.98,139.749,17.069
57.02,136.555,16.53
57.05,133.221,16.141
57.08,130.063,15.82
57.11,126.974,15.499
57.15,124.062,15.247
57.18,121.219,14.984
57.21,118.341,14.526
57.24,115.182,13.987
57.28,111.954,13.46
57.31,108.865,13.025
57.34,105.847,12.613
57.37,102.618,12.131
57.41,99.284,11.604
57.44,95.775,11.009
57.47,92.195,10.367
57.5,88.58,9.817
57.54,84.966,9.302
57.57,81.456,8.912
57.6,78.087,8.569
57.63,74.718,8.237
57.67,71.419,7.836
57.7,68.19,7.515
57.73,65.031,7.16
57.77,61.908,6.69
57.8,58.539,6.186
57.83,55.205,5.751
57.86,51.976,5.373
57.9,48.677,4.88
57.93,45.203,4.273
57.96,41.553,3.677
57.99,37.973,3.139
58.03,34.288,2.52
58.06,30.428,1.81
58.09,26.567,1.203
58.12,22.812,0.699
58.16,19.127,0.229
58.19,15.688,-0.241
58.22,12.178,-0.722
58.25,8.388,-1.077
58.29,3.931,-1.294
58.32,0.246,-1.535
58.35,-2.281,-2.039
58.38,-4.703,-2.463
58.42,-6.844,-2.898
58.45,-10.002,-3.574
58.48,-14.249,-4.158
58.51,-18.776,-4.445
58.55,-22.426,-4.685
58.58,-24.707,-5.189
58.61,-25.62,-6.026
58.64,-26.497,-7.137
58.68,-28.181,-8.363
58.71,-30.814,-9.691
58.74,-34.253,-11.055
58.77,-38.499,-12.235
58.81,-43.132,-13.117
58.84,-47.835,-13.85
58.87,-52.502,-14.377
58.9,-57.03,-14.697
58.94,-61.417,-14.938
58.97,-65.523,-15.121
59.0,-69.383,-15.224
59.04,-72.998,-15.385
59.07,-76.332,-15.534
59.1,-79.561,-15.751
59.13,-82.614,-16.015
59.17,-85.667,-16.359
59.2,-88.791,-16.771
59.23,-91.914,-17.241
59.26,-94.968,-17.676
59.3,-98.056,-18.088
59.33,-101.18,-18.524
59.36,-104.408,-19.016
59.39,-107.742,-19.532
59.43,-111.111,-20.07
59.46,-114.551,-20.666
59.49,-118.06,-21.239
59.52,-121.5,-21.651
59.56,-124.869,-22.063
59.59,-128.203,-22.487
59.62,-131.537,-22.991
59.65,-135.081,-23.484
59.69,-138.802,-24.286
59.72,-142.592,-24.859
59.75,-145.715,-24.95
59.78,-148.137,-24.744
59.82,-150.629,-24.859
59.85,-153.963,-25.66
59.88,-157.156,-25.993
59.91,-159.613,-26.302
59.95,-162.386,-26.978
59.98,-166.0,-27.757
60.01,-169.405,-28.135
60.04,-172.072,-28.341
60.08,-174.704,-28.616
60.11,-177.617,-28.788
60.14,-180.074,-28.811
60.17,-182.425,-29.097
60.21,-184.917,-29.532
60.24,-187.408,-29.842
60.27,-189.584,-30.094
60.31,-191.795,-30.357
60.34,-194.077,-30.552
60.37,-196.182,-30.747
60.4,-198.253,-30.999
60.44,-200.499,-31.48
60.47,-202.956,-32.03
60.5,-205.588,-32.454
60.53,-208.15,-32.751
60.57,-210.466,-33.038
60.6,-212.677,-33.255
60.63,-214.677,-33.381
60.66,-216.888,-33.576
60.7,-218.994,-33.84
60.73,-221.205,-34.16
60.76,-223.311,-34.516
60.79,-225.487,-34.836
60.83,-227.592,-35.088
60.86,-229.733,-35.26
60.89,-231.593,-35.375
60.92,-233.524,-35.604
60.96,-235.384,-35.776
60.99,-237.138,-35.948
61.02,-238.893,-36.211
61.05,-240.648,-36.417
61.09,-242.332,-36.578
61.12,-243.806,-36.532
61.15,-245.351,-36.852
61.18,-247.281,-37.253
61.22,-249.106,-37.505
61.25,-250.65,-37.735
61.28,-252.475,-38.101
61.31,-254.51,-38.365
61.35,-256.09,-38.388
61.38,-257.458,-38.399
61.41,-258.862,-38.525
61.44,-260.406,-38.617
61.48,-261.705,-38.72
61.51,-262.968,-38.892
61.54,-264.197,-39.029
61.58,-265.215,-39.018
61.61,-266.127,-38.983
61.64,-267.11,-39.086
61.67,-268.233,-39.258
61.71,-269.321,-39.453
61.74,-270.514,-39.774
61.77,-271.848,-40.06
61.8,-273.216,-40.266
61.84,-274.374,-40.415
61.87,-275.603,-40.53
61.9,-276.761,-40.644
61.93,-277.989,-40.713
61.97,-279.007,-40.759
62.0,-280.025,-40.931
62.03,-281.218,-41.103
62.06,-282.271,-41.194
62.1,-283.113,-41.194
62.13,-283.71,-41.022
62.16,-284.201,-40.828
62.19,-284.447,-40.621
62.23,-284.447,-40.392
62.26,-284.622,-40.438
62.29,-284.833,-40.484
62.32,-285.675,-41.16
62.36,-287.781,-42.489
62.39,-290.378,-43.508
62.42,-292.834,-44.344
62.45,-295.677,-45.146
62.49,-298.836,-45.536
62.52,-301.363,-45.444
62.55,-303.117,-45.112
62.58,-304.276,-44.436
62.62,-304.451,-43.302
62.65,-303.117,-41.698
62.68,-300.766,-40.198
62.71,-298.169,-39.132
62.75,-295.607,-38.525
62.78,-293.115,-38.365
62.81,-290.904,-38.456
62.84,-288.869,-38.514
62.88,-286.763,-38.365
62.91,-284.763,-38.181
62.94,-283.043,-38.101
62.98,-281.639,-38.124
63.01,-280.551,-38.342
63.04,-279.884,-38.754
63.07,-279.709,-39.201
63.11,-279.463,-39.327
63.14,-278.831,-39.063
63.17,-277.954,-38.628
63.2,-277.042,-38.204
63.24,-276.059,-37.769
63.27,-274.725,-37.471
63.3,-273.567,-37.402
63.33,-272.514,-37.334
63.37,-271.216,-37.059
63.4,-269.566,-36.623
63.43,-267.706,-36.085
63.46,-265.846,-35.558
63.5,-263.951,-35.295
63.53,-262.231,-35.191
63.56,-260.617,-35.134
63.59,-259.003,-35.077
63.63,-257.599,-35.02
63.66,-256.371,-34.997
63.69,-254.897,-34.607
63.72,-252.931,-34.08
63.76,-251.212,-33.84
63.79,-249.878,-33.759
63.82,-248.544,-33.679
63.85,-246.965,-33.553
63.89,-245.526,-33.462
63.92,-244.333,-33.381
63.95,-243.069,-33.072
63.98,-241.315,-32.671
64.02,-239.7,-32.408
64.05,-238.191,-32.179
64.08,-236.647,-31.95
64.11,-234.927,-31.606
64.15,-233.067,-31.342
64.18,-231.032,-30.804
64.21,-228.575,-30.117
64.25,-226.013,-29.567
64.28,-223.592,-29.189
64.31,-221.205,-28.914
64.34,-218.854,-28.685
64.38,-216.608,-28.616
64.41,-215.028,-28.845
64.44,-213.484,-28.639
64.47,-211.098,-28.02
64.51,-208.887,-27.665
64.54,-206.781,-27.39
64.57,-204.535,-27.001
64.6,-202.429,-26.691
64.64,-200.464,-26.554
64.67,-198.218,-26.153
64.7,-195.586,-25.489
64.73,-192.603,-24.801
64.77,-189.935,-24.458
64.8,-185.689,-22.419
64.83,-176.775,-17.871
64.86,-166.527,-15.075
64.9,-159.613,-14.709
64.93,-154.98,-15.236
64.96,-150.874,-16.737
64.99,-147.646,-18.398
65.03,-145.996,-19.681
65.06,-145.786,-20.952
65.09,-146.803,-22.018
65.12,-147.856,-22.545
65.16,-148.347,-22.499
65.19,-148.312,-21.914
65.22,-147.786,-21.113
65.25,-146.593,-20.127
65.29,-144.417,-18.902
65.32,-141.328,-17.676
65.35,-137.959,-16.794
65.38,-134.871,-16.244
65.42,-131.537,-15.706
65.45,-127.992,-15.259
65.48,-124.623,-14.938
65.52,-121.324,-14.468
65.55,-117.709,-13.792
65.58,-113.989,-13.22
65.61,-110.515,-12.865
65.65,-107.497,-12.613
65.68,-104.373,-12.326
65.71,-101.215,-12.04
65.74,-98.407,-11.891
65.78,-95.67,-11.524
65.81,-92.616,-10.952
65.84,-89.388,-10.425
65.87,-86.404,-10.047
65.91,-83.456,-9.668
65.94,-80.333,-9.164
65.97,-77.069,-8.672
66.0,-73.911,-8.328
66.04,-70.787,-7.767
66.07,-67.137,-7.045
66.1,-63.417,-6.472
66.13,-59.872,-6.003
66.17,-56.363,-5.499
66.2,-52.713,-4.983
66.23,-49.063,-4.513
66.26,-45.589,-4.147
66.3,-42.044,-3.574
66.33,-38.219,-2.852
66.36,-34.253,-2.314
66.39,-30.533,-1.776
66.43,-26.848,-1.191
66.46,-23.022,-0.584
66.49,-19.092,-0.046
66.52,-15.372,0.286
66.56,-12.038,0.642
66.59,-8.458,0.928
66.62,-4.597,0.962
66.65,-1.123,0.974
66.69,0.983,1.352
66.72,3.123,1.902
66.75,5.194,2.543
66.78,7.826,3.46
66.82,11.897,4.193
66.85,16.705,4.651
66.88,21.373,5.086
66.92,24.461,5.453
66.95,25.83,6.152
66.98,26.953,7.286
67.01,28.989,8.534
67.05,31.866,9.646
67.08,35.025,10.883
67.11,38.991,12.051
67.14,43.343,12.83
67.18,47.624,13.46
67.21,52.081,14.045
67.24,56.503,14.354
67.27,60.574,14.56
67.31,64.505,14.801
67.34,68.365,14.984
67.37,71.91,15.167
67.4,75.244,15.27
67.44,78.262,15.419
67.47,81.316,15.82
67.5,84.65,16.324
67.53,87.878,16.771
67.57,91.002,17.218
67.6,94.196,17.619
67.63,97.459,18.054
67.66,100.723,18.478
67.7,103.812,18.879
67.73,107.181,19.474
67.76,110.725,20.116
67.79,114.235,20.586
67.83,117.499,21.044
67.86,120.798,21.399
67.89,124.026,21.708
67.92,127.15,22.109
67.96,130.379,22.556
67.99,133.607,23.026
68.02,136.977,23.656
68.05,140.486,24.274
68.09,143.855,24.664
68.12,146.768,24.836
68.15,149.541,25.042
68.19,152.559,25.443
68.22,155.682,25.867
68.25,158.595,26.279
68.28,161.649,26.863
68.32,164.948,27.459
68.35,168.141,27.894
68.38,171.124,28.226
68.41,173.967,28.547
68.45,176.81,28.731
68.48,179.477,28.914
68.51,182.179,29.303
68.54,184.987,29.693
68.58,187.584,30.002
68.61,190.076,30.311
68.64,192.497,30.506
68.67,194.814,30.667
68.71,196.884,30.804
68.74,199.025,31.067
68.77,201.236,31.457
68.8,203.447,31.846
68.84,205.869,32.133
68.87,208.325,32.442
68.9,210.431,32.66
68.93,212.256,32.843
68.97,214.151,33.061
69.0,216.537,33.427
69.03,218.889,33.863
69.06,221.065,34.229
69.1,223.241,34.561
69.13,225.592,34.974
69.16,227.908,35.134
69.19,229.803,35.088
69.23,231.558,35.272
69.26,233.734,35.547
69.29,235.77,35.856
69.32,237.524,36.051
69.36,239.244,36.257
69.39,241.315,36.578
69.42,243.175,36.749
69.46,244.649,36.738
69.49,246.193,36.956
69.52,248.018,37.208
69.55,249.738,37.368
69.59,251.141,37.505
69.62,252.545,37.62
69.65,254.16,37.883
69.68,255.809,38.113
69.72,257.213,38.239
69.75,258.406,38.216
69.78,259.81,38.479
69.81,261.635,38.937
69.85,263.354,39.224
69.88,264.723,39.35
69.91,266.162,39.556
69.94,267.671,39.579
69.98,268.724,39.396
70.01,269.672,39.396
70.04,270.9,39.579
70.07,272.163,39.808
70.11,273.251,39.98
70.14,274.304,40.14
70.17,275.568,40.335
70.2,276.656,40.369
70.24,277.568,40.392
70.27,278.481,40.507
70.3,279.639,40.667
70.33,280.656,40.816
70.37,281.744,41.011
70.4,282.762,41.091
70.43,283.64,41.137
70.46,284.377,41.045
70.5,284.973,41.011
70.53,285.535,40.885
70.56,285.394,40.369
70.59,285.394,40.404
70.63,286.026,40.736
70.66,286.552,40.816
70.69,286.728,40.885
70.72,287.009,41.011
70.76,287.5,40.942
70.79,287.43,40.598
70.82,286.833,40.163
70.86,286.588,40.152
70.89,286.868,40.358
70.92,286.903,40.381
70.95,286.552,40.369
70.99,286.377,40.301
71.02,286.201,40.163
71.05,285.815,39.957
71.08,285.359,39.877
71.12,285.359,40.014
71.15,285.5,40.22
71.18,285.5,40.312
71.21,285.359,40.255
71.25,285.043,39.98
71.28,284.412,39.579
71.31,283.569,39.178
71.34,282.622,38.834
71.38,281.85,38.708
71.41,281.148,38.754
71.44,280.305,38.697
71.47,279.393,38.536
71.51,278.34,38.25
71.54,277.147,37.861
71.57,275.813,37.505
71.6,274.48,37.231
71.64,273.216,37.162
71.67,272.198,37.127
71.7,271.005,37.024
71.73,269.812,36.864
71.77,268.584,36.635
71.8,267.11,36.222
71.83,265.495,35.856
71.86,264.021,35.604
71.9,262.512,35.398
71.93,260.898,35.169
71.96,259.319,34.997
71.99,257.845,34.848
72.03,256.265,34.573
72.06,254.475,34.183
72.09,252.65,33.908
72.13,251.106,33.805
72.16,249.632,33.611
72.19,247.842,33.313
72.22,246.193,33.164
72.26,244.824,33.107
72.29,243.35,32.866
72.32,241.525,32.476
72.35,239.595,32.156
72.39,237.981,31.938
72.42,236.296,31.663
72.45,234.401,31.308
72.48,232.401,31.125
72.52,230.716,30.953
72.55,228.926,30.609
72.58,226.891,30.22
72.61,224.925,29.945
72.65,223.065,29.716
72.68,221.1,29.429
72.71,219.064,29.177
72.74,217.099,28.96
72.78,215.204,28.616
72.81,212.923,28.043
72.84,210.396,27.505
72.87,208.044,27.104
72.91,205.518,26.76
72.94,202.956,26.451
72.97,200.71,26.233
73.0,198.674,26.107
73.04,196.393,25.832
73.07,193.831,25.317
73.1,191.234,24.813
73.13,188.672,24.309
73.17,185.864,23.702
73.2,182.846,23.232
73.23,180.074,22.968
73.26,177.441,22.613
73.3,174.458,22.086
73.33,171.265,21.536
73.36,168.176,21.055
73.4,164.983,20.448
73.43,161.543,19.852
73.46,158.35,19.52
73.49,155.296,19.142
73.53,152.383,19.039
73.56,149.33,18.489
73.59,145.645,17.664
73.62,141.995,17.115
73.66,138.766,16.691
73.69,135.468,16.198
73.72,132.098,15.935
73.75,129.256,15.923
73.79,126.694,15.797
73.82,123.956,15.465
73.85,121.043,15.03
73.88,117.955,14.445
73.92,114.867,13.804
73.95,111.533,13.14
73.98,108.128,12.67
74.01,104.935,12.269
74.05,101.671,11.799
74.08,98.232,11.318
74.11,94.827,10.86
74.14,91.353,10.321
74.18,87.843,9.829
74.21,84.404,9.348
74.24,81.14,9.027
74.27,77.946,8.775
74.31,74.963,8.5
74.34,71.84,8.111
74.37,68.716,7.675
74.4,65.488,7.194
74.44,62.224,6.69
74.47,58.82,6.129
74.5,55.45,5.625
74.53,52.046,5.178
74.57,48.677,4.708
74.6,45.097,4.032
74.63,41.202,3.322
74.66,37.271,2.841
74.7,33.656,2.325
74.73,30.006,1.718
74.76,26.321,1.191
74.8,22.777,0.825
74.83,19.408,0.458
74.86,16.179,0.092
74.89,13.231,-0.355
74.93,10.002,-0.768
74.96,6.317,-1.02
74.99,2.246,-1.146
75.02,-0.597,-1.524
75.06,-3.088,-2.177
75.09,-5.615,-2.864
75.12,-8.914,-3.735
75.15,-13.617,-4.41
75.19,-18.811,-4.857
75.22,-23.303,-5.178
75.25,-25.935,-5.739
75.28,-26.988,-6.747
75.32,-28.041,-8.007
75.35,-30.182,-9.153
75.38,-33.446,-10.402
75.41,-37.482,-11.536
75.45,-41.483,-12.303
75.48,-45.589,-13.025
75.51,-50.011,-13.724
75.54,-54.362,-14.079
75.58,-58.328,-14.228
75.61,-61.908,-14.228
75.64,-65.172,-14.136
75.67,-68.225,-14.205
75.71,-71.103,-14.331
75.74,-73.735,-14.434
75.77,-76.437,-14.858
75.8,-79.561,-15.465
75.84,-83.0,-16.129
75.87,-86.51,-16.851
75.9,-90.125,-17.504
75.93,-93.774,-18.02
75.97,-97.354,-18.489
76.0,-100.934,-18.936
76.03,-104.654,-19.463
76.07,-108.409,-19.967
76.1,-111.989,-20.425
76.13,-115.639,-21.009
76.16,-119.499,-21.559
76.2,-123.044,-21.937
76.23,-126.413,-22.361
76.26,-129.887,-22.774
76.29,-133.081,-22.957
76.33,-136.275,-23.381
76.36,-139.468,-23.77
76.39,-142.592,-24.194
76.42,-145.505,-24.526
76.46,-148.137,-24.572
76.49,-150.488,-24.71
76.52,-153.12,-25.111
76.55,-155.858,-25.454
76.59,-158.56,-25.935
76.62,-161.333,-26.554
76.65,-164.386,-27.195
76.68,-167.58,-27.7
76.72,-170.598,-28.1
76.75,-173.581,-28.513
76.78,-176.494,-28.845
76.81,-179.477,-29.166
76.85,-182.425,-29.624
76.88,-185.443,-30.059
76.91,-188.286,-30.369
76.94,-190.883,-30.552
76.98,-193.34,-30.701
77.01,-195.691,-30.815
77.04,-197.797,-30.941
77.07,-199.727,-31.045
77.11,-201.587,-31.342
77.14,-203.938,-31.755
77.17,-206.395,-32.018
77.2,-208.501,-32.236
77.24,-210.15,-32.476
77.27,-212.045,-32.717
77.3,-214.081,-32.935
77.34,-216.151,-33.301
77.37,-218.398,-33.702
77.4,-220.538,-34.103
77.43,-222.82,-34.47
77.47,-225.171,-34.836
77.5,-227.452,-35.1
77.53,-229.523,-35.272
77.56,-231.664,-35.455
77.6,-233.804,-35.753
77.63,-235.77,-35.913
77.66,-237.489,-35.959
77.69,-239.069,-35.97
77.73,-240.578,-35.993
77.76,-242.227,-36.314
77.79,-244.052,-36.589
77.82,-245.667,-36.852
77.86,-247.246,-37.116
77.89,-249.001,-37.357
77.92,-250.65,-37.54
77.95,-252.299,-37.723
77.99,-253.949,-37.998
78.02,-255.598,-38.158
78.05,-257.002,-38.181
78.08,-258.336,-38.296
78.12,-259.81,-38.456
78.15,-261.284,-38.617
78.18,-262.617,-38.8
78.21,-263.951,-38.983
78.25,-265.144,-39.075
78.28,-266.197,-39.052
78.31,-267.18,-39.098
78.34,-268.338,-39.258
78.38,-269.601,-39.464
78.41,-270.76,-39.728
78.44,-272.058,-40.083
78.47,-273.462,-40.266
78.51,-274.725,-40.415
78.54,-275.883,-40.461
78.57,-277.077,-40.541
78.6,-278.165,-40.633
78.64,-278.937,-40.45
78.67,-279.849,-40.633
78.7,-280.902,-40.77
78.74,-281.92,-40.931
78.77,-282.797,-41.045
78.8,-283.464,-40.988
78.83,-284.061,-40.931
78.87,-284.727,-40.954
78.9,-285.043,-40.644
78.93,-285.71,-41.08
78.96,-286.938,-41.526
79.0,-287.921,-41.733
79.03,-289.009,-42.156
79.06,-290.413,-42.523
79.09,-291.431,-42.282
79.13,-291.536,-41.721
79.16,-291.747,-41.492
79.19,-291.817,-40.999
79.22,-290.939,-40.243
79.26,-289.536,-39.602
79.29,-288.167,-39.167
79.32,-286.833,-38.731
79.35,-285.114,-38.445
79.39,-283.534,-38.376
79.42,-282.341,-38.353
79.45,-281.288,-38.514
79.48,-280.692,-38.892
79.52,-280.551,-39.258
79.55,-280.481,-39.567
79.58,-280.481,-39.739
79.61,-280.621,-39.774
79.65,-280.586,-39.648
79.68,-280.341,-39.384
79.71,-279.955,-39.167
79.74,-279.604,-39.075
79.78,-279.218,-38.892
79.81,-278.516,-38.64
79.84,-277.533,-38.342
79.87,-276.55,-38.044
79.91,-275.497,-37.712
79.94,-274.304,-37.402
79.97,-272.971,-37.265
80.01,-271.848,-37.139
80.04,-270.689,-37.013
80.07,-269.566,-36.933
80.1,-268.268,-36.6
80.14,-266.653,-36.165
80.17,-265.074,-35.833
80.2,-263.565,-35.592
80.23,-261.986,-35.306
80.27,-260.196,-35.043
80.3,-258.582,-34.905
80.33,-257.248,-34.859
80.36,-255.809,-34.664
80.4,-254.054,-34.321
80.43,-252.44,-34.138
80.46,-251.071,-34.012
80.49,-249.597,-33.748
80.53,-247.878,-33.45
80.56,-246.333,-33.381
80.59,-245.14,-33.324
80.62,-243.35,-32.74
80.66,-241.034,-32.144
80.69,-239.069,-31.835
80.72,-237.314,-31.48
80.75,-234.998,-30.964
80.79,-232.471,-30.586
80.82,-230.295,-30.414
80.85,-228.435,-30.288
80.88,-226.399,-30.082
80.92,-224.258,-29.876
80.95,-222.469,-29.75
80.98,-220.784,-29.613
81.01,-218.994,-29.361
81.05,-217.134,-29.097
81.08,-215.344,-28.914
81.11,-213.695,-28.662
81.14,-211.765,-28.272
81.18,-209.764,-27.803
81.21,-207.518,-27.402
81.24,-205.061,-27.024
81.28,-202.78,-26.6
81.31,-200.639,-26.233
81.34,-198.358,-25.97
81.37,-195.972,-25.718
81.41,-193.515,-25.317
81.44,-190.883,-24.824
81.47,-187.97,-24.068
81.5,-184.952,-23.564
81.54,-182.32,-23.404
81.57,-179.688,-22.991
81.6,-176.564,-22.373
81.63,-173.265,-21.834
81.67,-170.177,-21.319
81.7,-167.194,-20.929
81.73,-164.0,-20.402
81.76,-160.701,-19.978
81.8,-157.683,-19.715
81.83,-155.542,-20.024
81.86,-153.612,-19.978
81.89,-151.12,-19.589
81.93,-148.137,-18.959
81.96,-145.364,-18.363
81.99,-142.662,-17.825
82.02,-139.644,-17.218
82.06,-136.345,-16.633
82.09,-133.046,-16.152
82.12,-129.852,-15.637
82.15,-126.448,-15.041
82.19,-122.833,-14.445
82.22,-119.113,-13.85
82.25,-115.358,-13.197
82.28,-111.497,-12.613
82.32,-107.777,-12.223
82.35,-104.303,-11.879
82.38,-100.688,-11.398
82.41,-97.073,-10.986
82.45,-93.599,-10.608
82.48,-90.23,-10.184
82.51,-86.826,-9.783
82.55,-83.562,-9.394
82.58,-80.298,-9.038
82.61,-77.174,-8.695
82.64,-74.051,-8.305
82.68,-70.927,-7.904
82.71,-67.769,-7.515
82.74,-64.61,-7.057
82.77,-61.346,-6.518
82.81,-57.837,-5.934
82.84,-54.362,-5.43
82.87,-50.958,-4.972
82.9,-47.484,-4.479
82.94,-43.939,-3.975
82.97,-40.289,-3.448
83.0,-36.604,-2.852
83.03,-32.884,-2.303
83.07,-29.305,-1.879
83.1,-25.935,-1.432
83.13,-22.426,-0.894
83.16,-18.706,-0.367
83.2,-15.266,0.057
83.23,-11.862,0.493
83.26,-8.353,0.859
83.29,-4.211,1.111
83.33,-0.386,1.524
83.36,2.386,2.188
83.39,5.019,2.715
83.42,7.686,3.368
83.46,11.546,4.181
83.49,16.179,4.662
83.52,20.531,4.857
83.55,23.514,5.292
83.59,25.128,6.003
83.62,25.935,6.862
83.65,27.304,7.95
83.68,29.691,9.164
83.72,32.709,10.379
83.75,36.218,11.456
83.78,40.219,12.315
83.81,44.466,13.002
83.85,48.712,13.529
83.88,52.959,13.953
83.91,57.205,14.239
83.95,61.206,14.503
83.98,65.031,14.732
84.01,68.646,14.835
84.04,71.98,14.984
84.08,75.209,15.224
84.11,78.368,15.465
84.14,81.526,15.854
84.17,84.755,16.381
84.21,88.089,16.851
84.24,91.353,17.355
84.27,94.617,17.79
84.3,97.81,18.191
84.34,101.074,18.661
84.37,104.408,19.119
84.4,107.848,19.704
84.43,111.462,20.345
84.47,114.867,20.838
84.5,118.306,21.25
84.53,121.675,21.674
84.56,124.974,21.972
84.6,128.168,22.361
84.63,131.396,22.762
84.66,134.695,23.289
84.69,138.24,23.988
84.73,141.679,24.377
84.76,144.768,24.733
84.79,147.61,24.904
84.82,150.348,25.019
84.86,153.226,25.454
84.89,156.314,25.935
84.92,159.227,26.336
84.95,162.175,26.909
84.99,165.369,27.516
85.02,168.633,27.986
85.05,171.616,28.272
85.08,174.458,28.582
85.12,177.371,28.857
85.15,180.144,29.154
85.18,182.951,29.555
85.22,185.794,29.91
85.25,188.426,30.254
85.28,191.023,30.552
85.31,193.445,30.712
85.35,195.656,30.815
85.38,197.726,30.907
85.41,199.692,31.079
85.44,201.692,31.4
85.48,203.763,31.72
85.51,205.974,31.972
85.54,208.22,32.247
85.57,210.01,32.465
85.61,211.624,32.602
85.64,213.484,32.832
85.67,215.625,33.21
85.7,217.801,33.656
85.74,219.907,34.046
85.77,222.047,34.458
85.8,224.364,34.848
85.83,226.54,35.008
85.87,228.365,34.985
85.9,230.154,35.191
85.93,232.26,35.489
85.96,234.331,35.776
86.0,236.156,35.982
86.03,238.016,36.303
86.06,240.402,36.818
86.09,242.438,36.967
86.13,243.912,36.921
86.16,245.596,37.139
86.19,247.807,37.528
86.22,249.808,37.723
86.26,251.212,37.861
86.29,252.931,38.136
86.32,255.002,38.433
86.35,256.757,38.548
86.39,258.231,38.628
86.42,259.88,38.869
86.45,261.635,39.041
86.49,263.179,39.132
86.52,264.442,39.178
86.55,265.565,39.178
86.58,266.653,39.132
86.62,267.566,39.098
86.65,268.408,39.144
86.68,269.391,39.258
86.71,270.268,39.419
86.75,271.321,39.728
86.78,272.655,40.083
86.81,273.988,40.346
86.84,275.182,40.507
86.88,276.34,40.576
86.91,277.428,40.576
86.94,278.34,40.576
86.97,279.218,40.541
87.01,280.095,40.667
87.04,281.113,40.942
87.07,282.201,41.125
87.1,283.043,41.125
87.14,283.64,41.057
87.17,284.096,40.839
87.2,283.99,40.301
87.23,283.885,40.266
87.27,284.412,40.576
87.3,285.078,40.885
87.33,285.219,40.793
87.36,285.394,40.965
87.4,286.166,41.16
87.43,286.658,41.091
87.46,286.763,40.954
87.49,286.763,40.839
87.53,287.184,40.919
87.56,287.605,41.034
87.59,287.851,41.057
87.62,287.991,41.068
87.66,288.062,40.954
87.69,287.886,40.667
87.72,287.395,40.289
87.75,286.728,39.991
87.79,286.307,39.957
87.82,286.201,40.083
87.85,285.78,40.083
87.89,285.149,39.945
87.92,284.447,39.671
87.95,283.78,39.361
87.98,282.867,39.041
88.02,281.85,38.754
88.05,280.867,38.685
88.08,280.27,38.834
88.11,279.709,38.823
88.15,278.796,38.662
88.18,277.814,38.422
88.21,276.726,38.078
88.24,275.497,37.689
88.28,274.059,37.334
88.31,272.76,37.185
88.34,271.637,37.139
88.37,270.479,37.024
88.41,269.18,36.841
88.44,267.812,36.589
88.47,266.338,36.211
88.5,264.653,35.799
88.54,262.898,35.466
88.57,261.214,35.191
88.6,259.494,34.939
88.63,257.774,34.745
88.67,256.125,34.63
88.7,254.405,34.424
88.73,252.65,34.172
88.76,251.036,34.012
88.8,249.562,33.874
88.83,248.123,33.702
88.86,246.579,33.519
88.89,245.21,33.553
88.93,244.368,33.691
88.96,243.35,33.565
88.99,241.806,33.118
89.02,240.157,32.728
89.06,238.788,32.476
89.09,237.314,32.11
89.12,235.349,31.652
89.16,233.313,31.274
89.19,231.383,30.953
89.22,229.312,30.495
89.25,226.855,30.014
89.29,224.504,29.693
89.32,222.469,29.498
89.35,220.433,29.315
89.38,218.257,29.04
89.42,216.151,28.845
89.45,214.432,28.662
89.48,212.396,28.295
89.51,210.255,27.803
89.55,207.939,27.436
89.58,205.518,27.127
89.61,203.236,26.795
89.64,201.306,26.52
89.68,199.13,26.29
89.71,196.814,25.947
89.74,194.217,25.397
89.77,191.515,24.859
89.81,188.812,24.309
89.84,185.829,23.667
89.87,182.741,23.22
89.9,179.968,23.014
89.94,177.371,22.705
89.97,174.318,22.086
90.0,170.949,21.514
90.03,167.966,21.193
90.07,165.088,20.689
90.1,161.684,20.013
90.13,158.35,19.749
90.16,155.156,19.211
90.2,151.997,18.913
90.23,149.049,18.627
90.26,146.172,18.317
90.29,143.329,18.123
90.33,140.205,17.367
90.36,136.906,16.989
90.39,133.923,16.53
90.43,130.975,16.175
90.46,128.168,15.946
90.49,125.114,15.385
90.52,121.64,14.697
90.56,118.201,14.079
90.59,114.761,13.46
90.62,111.111,12.853
90.65,107.567,12.475
90.69,104.268,12.189
90.72,101.039,11.776
90.75,97.635,11.375
90.78,94.336,10.963
90.82,91.037,10.482
90.85,87.668,9.989
90.88,84.369,9.52
90.91,81.07,9.107
90.95,77.841,8.729
90.98,74.648,8.34
91.01,71.489,7.985
91.04,68.436,7.664
91.08,65.417,7.286
91.11,62.294,6.816
91.14,59.065,6.346
91.17,55.766,5.831
91.21,52.397,5.258
91.24,48.853,4.685
91.27,45.203,4.055
91.3,41.518,3.494
91.34,37.868,2.944
91.37,34.183,2.337
91.4,30.392,1.753
91.43,26.743,1.214
91.47,23.093,0.642
91.5,19.302,0.115
91.53,15.828,-0.412
91.56,12.318,-0.894
91.6,8.353,-1.34
91.63,3.58,-1.65
91.66,-0.421,-1.959
91.69,-3.334,-2.463
91.73,-5.896,-2.795
91.76,-8.353,-3.07
91.79,-11.476,-3.425
91.83,-15.161,-3.987
91.86,-19.127,-4.399
91.89,-22.18,-4.697
91.92,-23.9,-5.258
91.96,-24.777,-6.22
91.99,-26.006,-7.423
92.02,-27.971,-8.741
92.05,-30.884,-10.127
92.09,-34.499,-11.444
92.12,-38.78,-12.532
92.15,-43.307,-13.323
92.18,-48.045,-13.953
92.22,-52.643,-14.411
92.25,-57.17,-14.686
92.28,-61.276,-14.823
92.31,-65.277,-14.927
92.35,-68.997,-15.075
92.38,-72.542,-15.247
92.41,-75.876,-15.454
92.44,-79.07,-15.694
92.48,-82.263,-16.003
92.51,-85.422,-16.416
92.54,-88.651,-16.908
92.57,-91.914,-17.378
92.61,-95.178,-17.825
92.64,-98.442,-18.306
92.67,-101.811,-18.81
92.7,-105.215,-19.337
92.74,-108.655,-19.864
92.77,-112.059,-20.368
92.8,-115.533,-20.838
92.83,-118.797,-21.227
92.87,-122.096,-21.536
92.9,-125.15,-21.937
92.93,-128.308,-22.361
92.96,-131.677,-22.865
93.0,-135.011,-23.438
93.03,-138.766,-24.286
93.06,-142.171,-24.641
93.1,-145.013,-24.721
93.13,-147.505,-24.675
93.16,-149.821,-24.629
93.19,-152.805,-25.34
93.23,-155.928,-25.844
93.26,-158.56,-26.279
93.29,-161.298,-26.875
93.32,-164.702,-27.619
93.36,-168.282,-28.181
93.39,-171.37,-28.547
93.42,-174.178,-28.822
93.45,-177.055,-28.971
93.49,-179.793,-29.051
93.52,-182.355,-29.383
93.55,-185.162,-29.853
93.58,-187.9,-30.208
93.62,-190.392,-30.449
93.65,-192.743,-30.701
93.68,-195.129,-30.919
93.71,-197.411,-31.067
93.75,-199.376,-31.251
93.78,-201.482,-31.606
93.81,-203.938,-32.041
93.84,-206.5,-32.305
93.88,-208.606,-32.511
93.91,-210.431,-32.774
93.94,-212.396,-32.9
93.97,-214.256,-33.026
94.01,-216.257,-33.313
94.04,-218.468,-33.714
94.07,-220.573,-34.115
94.1,-222.714,-34.538
94.14,-225.136,-34.974
94.17,-227.522,-35.34
94.2,-229.663,-35.535
94.23,-231.734,-35.741
94.27,-234.015,-36.028
94.3,-236.191,-36.222
94.33,-237.875,-36.234
94.37,-239.665,-36.452
94.4,-241.56,-36.6
94.43,-243.069,-36.509
94.46,-243.912,-36.268
94.5,-245.175,-36.578
94.53,-247.105,-37.036
94.56,-248.685,-37.265
94.59,-249.913,-37.563
94.63,-251.703,-38.044
94.66,-253.844,-38.433
94.69,-255.563,-38.559
94.72,-257.002,-38.628
94.76,-258.511,-38.72
94.79,-260.091,-38.823
94.82,-261.494,-38.949
94.85,-262.968,-39.144
94.89,-264.337,-39.247
94.92,-265.39,-39.201
94.95,-266.373,-39.189
94.98,-267.461,-39.247
95.02,-268.513,-39.384
95.05,-269.601,-39.59
95.08,-270.83,-39.877
95.11,-272.128,-40.14
95.15,-273.357,-40.381
95.18,-274.515,-40.553
95.21,-275.743,-40.587
95.24,-276.831,-40.644
95.28,-277.954,-40.713
95.31,-278.937,-40.747
95.34,-279.919,-40.919
95.37,-281.148,-41.183
95.41,-282.341,-41.297
95.44,-283.183,-41.297
95.47,-283.78,-41.183
95.5,-284.341,-40.988
95.54,-284.727,-40.793
95.57,-284.833,-40.61
95.6,-285.219,-40.839
95.63,-285.886,-41.022
95.67,-286.412,-41.217
95.7,-287.219,-41.641
95.73,-288.097,-41.755
95.77,-288.834,-41.836
95.8,-289.009,-41.4
95.83,-288.728,-40.919
95.86,-288.623,-40.736
95.9,-288.518,-40.495
95.93,-287.675,-40.026
95.96,-286.517,-39.682
95.99,-285.64,-39.51
96.03,-284.938,-39.373
96.06,-283.92,-39.224
96.09,-282.973,-39.247
96.12,-282.587,-39.499
96.16,-282.657,-39.911
96.19,-282.797,-40.232
96.22,-282.903,-40.404
96.25,-282.832,-40.312
96.29,-282.727,-40.06
96.32,-282.376,-39.739
96.35,-281.815,-39.396
96.38,-281.218,-39.189
96.42,-280.727,-39.155
96.45,-280.13,-39.063
96.48,-279.323,-38.88
96.51,-278.375,-38.594
96.55,-277.287,-38.181
96.58,-275.919,-37.712
96.61,-274.339,-37.299
96.64,-272.9,-37.116
96.68,-271.637,-37.024
96.71,-270.303,-36.921
96.74,-269.005,-36.887
96.77,-267.812,-36.738
96.81,-266.408,-36.383
96.84,-264.864,-36.074
96.87,-263.495,-35.879
96.9,-262.091,-35.65
96.94,-260.547,-35.409
96.97,-259.038,-35.214
97.0,-257.739,-35.111
97.04,-256.3,-34.859
97.07,-254.581,-34.504
97.1,-253.001,-34.298
97.13,-251.457,-34.092
97.17,-249.878,-33.759
97.2,-247.842,-33.359
97.23,-245.982,-33.038
97.26,-244.193,-32.82
97.3,-242.297,-32.522
97.33,-240.297,-32.179
97.36,-238.332,-31.972
97.39,-236.507,-31.789
97.43,-234.717,-31.549
97.46,-232.857,-31.354
97.49,-231.172,-31.239
97.52,-229.698,-31.171
97.56,-228.119,-30.907
97.59,-226.083,-30.472
97.62,-224.188,-30.208
97.65,-222.574,-29.979
97.69,-220.679,-29.635
97.72,-218.608,-29.326
97.75,-216.678,-29.063
97.78,-214.818,-28.822
97.82,-212.782,-28.387
97.85,-210.431,-27.837
97.88,-208.08,-27.425
97.91,-205.588,-27.092
97.95,-203.166,-26.737
97.98,-200.99,-26.428
98.01,-198.779,-26.199
98.04,-196.323,-25.878
98.08,-193.796,-25.42
98.11,-191.339,-24.996
98.14,-188.882,-24.549
98.17,-186.04,-23.896
98.21,-183.127,-23.507
98.24,-180.53,-23.289
98.27,-177.827,-22.774
98.31,-174.529,-22.098
98.34,-171.23,-21.491
98.37,-168.001,-20.952
98.4,-164.772,-20.357
98.44,-161.263,-19.818
98.47,-157.928,-19.474
98.5,-155.156,-19.497
98.53,-152.138,-18.902
98.57,-148.383,-18.088
98.6,-144.768,-17.653
98.63,-141.82,-17.378
98.66,-139.188,-17.344
98.7,-135.994,-16.725
98.73,-132.414,-16.244
98.76,-129.536,-16.026
98.79,-126.939,-15.728
98.83,-123.921,-15.27
98.86,-120.728,-14.812
98.89,-117.534,-14.216
98.92,-114.2,-13.598
98.96,-110.76,-13.036
98.99,-107.426,-12.67
99.02,-104.268,-12.303
99.05,-101.039,-11.856
99.09,-97.67,-11.433
99.12,-94.301,-10.94
99.15,-91.037,-10.482
99.18,-87.668,-10.012
99.22,-84.369,-9.565
99.25,-81.0,-9.084
99.28,-77.596,-8.66
99.31,-74.367,-8.305
99.35,-71.208,-7.962
99.38,-67.979,-7.538
99.41,-64.821,-7.137
99.44,-61.732,-6.77
99.48,-58.539,-6.358
99.51,-55.24,-5.819
99.54,-51.765,-5.224
99.58,-48.221,-4.639
99.61,-44.676,-4.101
99.64,-41.061,-3.563
99.67,-37.376,-2.956
99.71,-33.446,-2.303
99.74,-29.55,-1.661
99.77,-25.76,-1.134
99.8,-22.145,-0.676
99.84,-18.565,-0.229
99.87,-15.126,0.206
99.9,-11.687,0.699
99.93,-7.932,1.168
99.97,-3.404,1.375
100.0,0.14,1.546
100.03,2.632,2.073
100.06,5.124,2.623
100.1,7.686,3.196
100.13,11.23,3.712
100.16,15.407,4.078
100.19,19.653,4.307
100.23,22.917,4.559
100.26,24.883,5.018
100.29,25.62,5.808
100.32,26.462,6.931
100.36,28.181,8.179
100.39,30.814,9.497
100.42,33.972,10.848
100.45,37.692,12.086
100.49,42.184,13.048
100.52,46.957,13.747
100.55,51.695,14.331
100.58,56.363,14.766
100.62,60.82,14.995
100.65,64.961,15.133
100.68,68.787,15.213
100.71,72.296,15.293
100.75,75.63,15.419
100.78,78.789,15.614
100.81,81.912,15.98
100.84,85.106,16.427
100.88,88.37,16.943
100.91,91.704,17.47
100.94,95.038,17.905
100.98,98.372,18.363
101.01,101.741,18.89
101.04,105.286,19.406
101.07,108.865,19.956
101.11,112.34,20.505
101.14,115.919,21.044
101.17,119.534,21.548
101.2,122.939,21.834
101.24,126.027,22.063
101.27,129.221,22.51
101.3,132.66,23.06
101.33,136.099,23.564
101.37,139.293,23.942
101.4,142.522,24.538
101.43,145.926,24.904
101.46,148.663,24.893
101.5,151.12,24.996
101.53,153.928,25.431
101.56,156.841,25.844
101.59,159.473,26.153
101.63,162.105,26.726
101.66,165.263,27.367
101.69,168.317,27.86
101.72,171.159,28.226
101.76,173.967,28.547
101.79,176.669,28.776
101.82,179.372,29.005
101.85,182.074,29.383
101.89,184.846,29.83
101.92,187.584,30.197
101.95,190.146,30.518
101.98,192.673,30.735
102.02,194.884,30.861
102.05,197.06,30.93
102.08,199.025,31.136
102.11,201.166,31.514
102.15,203.342,31.938
102.18,205.728,32.224
102.21,208.15,32.534
102.25,210.185,32.763
102.28,211.975,32.9
102.31,213.905,33.095
102.34,216.116,33.45
102.38,218.503,33.92
102.41,220.784,34.321
102.44,223.03,34.722
102.47,225.627,35.214
102.51,228.084,35.466
102.54,229.979,35.375
102.57,231.734,35.466
102.6,233.839,35.707
102.64,235.945,35.959
102.67,237.595,36.005
102.7,239.034,36.177
102.73,241.139,36.692
102.77,243.21,36.83
102.8,244.614,36.841
102.83,245.842,36.841
102.86,247.667,37.208
102.9,249.667,37.574
102.93,251.282,37.757
102.96,252.686,37.952
102.99,254.546,38.307
103.03,256.406,38.422
103.06,257.669,38.342
103.09,258.932,38.514
103.12,260.582,38.788
103.16,262.091,38.892
103.19,263.319,39.063
103.22,264.618,39.235
103.25,265.916,39.258
103.29,266.969,39.235
103.32,267.847,39.304
103.35,268.97,39.464
103.38,270.198,39.682
103.42,271.426,39.945
103.45,272.655,40.198
103.48,273.918,40.404
103.52,275.146,40.541
103.55,276.305,40.576
103.58,277.322,40.621
103.61,278.305,40.656
103.65,279.218,40.702
103.68,280.165,40.816
103.71,281.183,41.057
103.74,282.306,41.24
103.78,283.218,41.263
103.81,283.85,41.171
103.84,284.447,41.034
103.87,284.833,40.885
103.91,285.078,40.759
103.94,285.429,40.805
103.97,285.991,41.057
104.0,286.552,41.183
104.04,286.938,41.194
104.07,287.219,41.137
104.1,287.219,40.816
104.13,287.184,40.736
104.17,287.079,40.495
104.2,286.903,40.415
104.23,286.974,40.61
104.26,287.184,40.724
104.3,287.114,40.69
104.33,286.938,40.61
104.36,286.833,40.427
104.39,286.517,40.175
104.43,285.956,39.945
104.46,285.64,39.991
104.49,285.605,40.175
104.52,285.535,40.22
104.56,285.114,40.083
104.59,284.552,39.785
104.62,283.85,39.441
104.65,283.043,39.109
104.69,281.99,38.834
104.72,281.078,38.777
104.75,280.481,38.857
104.78,279.814,38.811
104.82,278.867,38.651
104.85,277.884,38.422
104.88,276.866,38.067
104.92,275.533,37.654
104.95,274.094,37.357
104.98,272.9,37.276
105.01,271.848,37.265
105.05,270.76,37.162
105.08,269.426,36.99
105.11,268.268,36.784
105.14,266.934,36.474
105.18,265.495,36.211
105.21,264.127,36.005
105.24,262.653,35.73
105.27,261.108,35.421
105.31,259.494,35.18
105.34,257.95,34.962
105.37,256.335,34.642
105.4,254.546,34.275
105.44,252.756,34.012
105.47,251.176,33.897
105.5,249.597,33.691
105.53,247.772,33.439
105.57,246.088,33.267
105.6,244.508,33.026
105.63,242.859,32.763
105.66,241.069,32.511
105.7,239.42,32.282
105.73,237.875,32.133
105.76,236.261,31.95
105.79,234.576,31.663
105.83,232.857,31.445
105.86,231.277,31.193
105.89,229.382,30.735
105.92,227.101,30.208
105.96,224.995,29.796
105.99,222.89,29.429
106.02,220.679,29.131
106.05,218.362,28.891
106.09,216.327,28.731
106.12,214.326,28.501
106.15,212.045,28.089
106.19,209.729,27.619
106.22,207.343,27.299
106.25,204.956,27.024
106.28,202.921,26.737
106.32,200.885,26.554
106.35,198.779,26.405
106.38,196.568,26.038
106.41,194.112,25.489
106.45,191.55,24.962
106.48,188.953,24.435
106.51,186.04,23.805
106.54,182.986,23.323
106.58,180.179,23.037
106.61,177.441,22.648
106.64,174.353,22.098
106.67,171.054,21.536
106.71,168.001,21.124
106.74,164.877,20.62
106.77,161.543,20.001
106.8,158.35,19.715
106.84,155.156,19.142
106.87,151.752,18.638
106.9,148.628,18.409
106.93,145.435,17.848
106.97,142.276,17.573
107.0,138.942,16.874
107.03,135.573,16.53
107.06,132.8,16.427
107.1,130.133,16.141
107.13,127.22,15.786
107.16,124.202,15.385
107.19,121.254,14.881
107.23,118.095,14.262
107.26,114.832,13.655
107.29,111.322,13.071
107.32,107.988,12.59
107.36,104.619,12.109
107.39,101.109,11.582
107.42,97.635,11.135
107.46,94.16,10.654
107.49,90.721,10.184
107.52,87.317,9.794
107.55,83.913,9.394
107.59,80.579,9.05
107.62,77.49,8.798
107.65,74.612,8.523
107.68,71.559,8.133
107.72,68.401,7.698
107.75,65.312,7.263
107.78,62.224,6.828
107.81,59.03,6.301
107.85,55.661,5.751
107.88,52.187,5.212
107.91,48.747,4.708
107.94,45.168,4.09
107.98,41.447,3.482
108.01,37.657,2.887
108.04,33.832,2.257
108.07,29.971,1.684
108.11,26.181,1.146
108.14,22.601,0.756
108.17,18.987,0.309
108.2,15.056,-0.378
108.24,10.985,-0.997
108.27,6.703,-1.203
108.3,2.562,-0.905
108.33,0.035,-0.974
108.37,-1.86,-1.684
108.4,-4.176,-2.222
108.43,-6.071,-2.772
108.46,-9.055,-3.563
108.5,-13.02,-4.193
108.53,-17.477,-4.525
108.56,-21.513,-4.96
108.59,-24.532,-5.659
108.63,-26.041,-6.495
108.66,-27.164,-7.515
108.69,-29.199,-8.66
108.72,-31.972,-9.921
108.76,-35.446,-11.112
108.79,-39.482,-12.04
108.82,-43.694,-12.796
108.86,-47.94,-13.437
108.89,-52.327,-13.907
108.92,-56.538,-14.274
108.95,-60.82,-14.606
108.99,-64.926,-14.869
109.02,-68.646,-15.064
109.05,-72.156,-15.213
109.08,-75.525,-15.408
109.12,-78.894,-15.717
109.15,-82.228,-16.118
109.18,-85.527,-16.553
109.21,-88.826,-17.057
109.25,-92.23,-17.55
109.28,-95.494,-17.882
109.31,-98.582,-18.214
109.34,-101.671,-18.558
109.38,-104.935,-19.005
109.41,-108.128,-19.486
109.44,-111.392,-20.013
109.47,-114.761,-20.62
109.51,-118.271,-21.158
109.54,-121.5,-21.514
109.57,-124.623,-21.914
109.6,-127.957,-22.327
109.64,-131.326,-22.854
109.67,-134.766,-23.484
109.7,-138.661,-24.366
109.73,-142.592,-24.962
109.77,-145.821,-25.053
109.8,-148.558,-25.053
109.83,-151.436,-25.225
109.86,-154.91,-25.912
109.9,-158.069,-26.187
109.93,-160.42,-26.371
109.96,-163.123,-26.829
109.99,-166.422,-27.402
110.03,-169.475,-27.734
110.06,-171.931,-27.986
110.09,-174.423,-28.272
110.13,-177.126,-28.49
110.16,-179.688,-28.685
110.19,-182.109,-29.143
110.22,-184.917,-29.681
110.26,-187.689,-30.082
110.29,-190.216,-30.414
110.32,-192.778,-30.735
110.35,-195.34,-30.919
110.39,-197.586,-31.033
110.42,-199.657,-31.205
110.45,-201.762,-31.571
110.48,-204.149,-31.995
110.52,-206.676,-32.259
110.55,-208.887,-32.465
110.58,-210.782,-32.728
110.61,-212.712,-32.923
110.65,-214.713,-33.049
110.68,-216.748,-33.313
110.71,-218.854,-33.714
110.74,-221.065,-34.092
110.78,-223.241,-34.424
110.81,-225.381,-34.745
110.84,-227.417,-34.951
110.87,-229.417,-35.146
110.91,-231.418,-35.363
110.94,-233.559,-35.707
110.97,-235.664,-35.97
111.0,-237.454,-36.131
111.04,-239.49,-36.509
111.07,-241.666,-36.784
111.1,-243.385,-36.772
111.13,-244.543,-36.555
111.17,-246.088,-36.818
111.2,-248.158,-37.253
111.23,-249.878,-37.437
111.26,-251.282,-37.609
111.3,-252.966,-37.941
111.33,-254.756,-38.113
111.36,-256.125,-38.055
111.4,-257.283,-38.101
111.43,-258.617,-38.25
111.46,-260.056,-38.365
111.49,-261.249,-38.548
111.53,-262.617,-38.811
111.56,-264.021,-39.041
111.59,-265.215,-39.063
111.62,-266.232,-39.052
111.66,-267.32,-39.155
111.69,-268.584,-39.315
111.72,-269.742,-39.51
111.75,-271.005,-39.819
111.79,-272.374,-40.06
111.82,-273.743,-40.255
111.85,-274.971,-40.381
111.88,-276.164,-40.45
111.92,-277.357,-40.53
111.95,-278.41,-40.621
111.98,-279.393,-40.621
112.01,-280.341,-40.747
112.05,-281.464,-40.954
112.08,-282.481,-41.057
112.11,-283.289,-41.034
112.14,-283.85,-40.954
112.18,-284.341,-40.793
112.21,-284.622,-40.576
112.24,-284.727,-40.392
112.27,-285.078,-40.587
112.31,-285.535,-40.621
112.34,-285.851,-40.805
112.37,-286.588,-41.229
112.4,-287.36,-41.297
112.44,-287.956,-41.412
112.47,-287.991,-40.988
112.5,-287.711,-40.553
112.53,-287.746,-40.507
112.57,-287.886,-40.484
112.6,-287.465,-40.186
112.63,-286.658,-39.968
112.66,-286.131,-39.877
112.7,-285.815,-39.716
112.73,-285.078,-39.51
112.76,-284.447,-39.464
112.8,-284.166,-39.659
112.83,-284.236,-39.945
112.86,-284.236,-40.117
112.89,-284.236,-40.186
112.93,-284.061,-39.991
112.96,-283.64,-39.636
112.99,-282.973,-39.293
113.02,-282.201,-38.949
113.06,-281.429,-38.8
113.09,-280.762,-38.731
113.12,-279.955,-38.64
113.15,-279.077,-38.491
113.19,-278.094,-38.204
113.22,-276.901,-37.849
113.25,-275.638,-37.494
113.28,-274.199,-37.185
113.32,-272.971,-37.059
113.35,-271.812,-37.001
113.38,-270.619,-36.91
113.41,-269.461,-36.852
113.45,-268.338,-36.658
113.48,-266.899,-36.245
113.51,-265.215,-35.856
113.54,-263.635,-35.524
113.58,-262.126,-35.283
113.61,-260.512,-35.043
113.64,-258.827,-34.859
113.67,-257.318,-34.722
113.71,-255.704,-34.493
113.74,-253.984,-34.149
113.77,-252.299,-33.954
113.8,-250.79,-33.794
113.84,-249.176,-33.565
113.87,-247.527,-33.336
113.9,-245.772,-33.049
113.93,-244.157,-32.855
113.97,-242.403,-32.58
114.0,-240.613,-32.282
114.03,-238.718,-31.95
114.07,-237.033,-31.915
114.1,-235.805,-31.858
114.13,-234.261,-31.583
114.16,-232.401,-31.297
114.2,-230.786,-31.125
114.23,-229.137,-30.678
114.26,-226.891,-30.094
114.29,-224.68,-29.75
114.33,-222.714,-29.487
114.36,-220.644,-29.097
114.39,-218.398,-28.811
114.42,-216.292,-28.639
114.46,-214.291,-28.41
114.49,-212.115,-27.974
114.52,-209.834,-27.482
114.55,-207.343,-27.138
114.59,-204.956,-26.852
114.62,-202.745,-26.497
114.65,-200.569,-26.256
114.68,-198.358,-26.061
114.72,-196.042,-25.695
114.75,-193.515,-25.191
114.78,-190.988,-24.675
114.81,-188.321,-24.183
114.85,-185.408,-23.576
114.88,-182.46,-23.152
114.91,-179.723,-22.888
114.94,-176.915,-22.453
114.98,-173.721,-21.834
115.01,-170.457,-21.33
115.04,-167.439,-20.941
115.07,-164.386,-20.437
115.11,-161.122,-19.933
115.14,-157.964,-19.646
115.17,-155.402,-19.681
115.2,-152.524,-19.028
115.24,-148.839,-18.26
115.27,-145.505,-17.836
115.3,-142.311,-17.206
115.34,-139.223,-17.023
115.37,-136.205,-16.645
115.4,-133.081,-16.301
115.43,-130.098,-16.049
115.47,-127.571,-15.992
115.5,-125.851,-16.404
115.53,-124.518,-16.645
115.56,-122.868,-16.37
115.6,-120.728,-15.946
115.63,-118.552,-15.373
115.66,-116.06,-14.606
115.69,-113.112,-13.792
115.73,-109.567,-12.67
115.76,-105.04,-11.33
115.79,-99.986,-10.081
115.82,-94.933,-9.13
115.86,-89.949,-8.397
115.89,-85.036,-7.813
115.92,-80.368,-7.572
115.95,-76.437,-7.595
115.99,-72.893,-7.515
116.02,-69.278,-7.206
116.05,-65.663,-6.816
116.08,-62.189,-6.484
116.12,-58.96,-6.037
116.15,-55.45,-5.533
116.18,-52.046,-5.144
116.21,-48.923,-4.857
116.25,-45.729,-4.376
116.28,-42.114,-3.689
116.31,-38.254,-2.978
116.34,-34.428,-2.394
116.38,-30.743,-1.787
116.41,-26.953,-1.088
116.44,-23.058,-0.481
116.47,-19.267,-0.08
116.51,-15.758,0.367
116.54,-11.967,0.974
116.57,-7.791,1.409
116.61,-3.194,1.375
116.64,0.105,1.398
116.67,2.316,1.787
