Trigger_Date,2023/07/31
Trigger_Time,T 21:49:25.247 PDT
Samples_Per_Cycle,512
Microseconds_Per_Sample,32.561
Time (ms),Voltage (V),Current (A)
-16.67,14.81,0.47
-16.64,18.425,0.481
-16.61,22.812,1.398
-16.57,28.497,1.604
-16.54,31.059,2.005
-16.51,35.832,2.875
-16.48,40.886,2.978
-16.44,45.168,3.311
-16.41,49.59,3.505
-16.38,53.731,3.631
-16.35,57.661,3.815
-16.31,61.768,4.044
-16.28,65.698,4.17
-16.25,69.383,4.365
-16.22,73.033,4.559
-16.18,76.753,4.8
-16.15,80.473,5.029
-16.12,84.369,5.235
-16.09,88.019,5.464
-16.05,91.774,5.739
-16.02,95.494,5.957
-15.99,99.249,6.243
-15.95,103.11,6.449
-15.92,106.725,6.679
-15.89,110.304,6.919
-15.86,113.884,7.137
-15.82,117.358,7.412
-15.79,121.114,7.675
-15.76,124.869,7.939
-15.73,128.694,8.191
-15.69,132.379,8.397
-15.66,135.889,8.569
-15.63,138.802,8.706
-15.6,141.75,8.912
-15.56,145.68,9.21
-15.53,150.102,9.416
-15.5,154.454,9.646
-15.47,158.701,9.875
-15.43,162.526,10.081
-15.4,165.93,10.241
-15.37,169.194,10.425
-15.34,172.493,10.631
-15.3,175.722,10.825
-15.27,179.021,10.997
-15.24,182.179,11.192
-15.21,185.162,11.421
-15.17,188.356,11.65
-15.14,191.69,11.868
-15.11,194.954,12.051
-15.08,198.077,12.303
-15.04,201.271,12.555
-15.01,204.64,12.773
-14.98,207.623,12.991
-14.95,210.817,13.208
-14.91,213.028,13.105
-14.88,213.94,13.311
-14.85,218.573,14.045
-14.82,224.048,13.976
-14.78,226.926,14.182
-14.75,229.593,14.354
-14.72,231.383,14.434
-14.68,233.208,14.583
-14.65,235.208,14.709
-14.62,237.244,14.812
-14.59,239.42,15.087
-14.55,242.017,15.202
-14.52,244.754,15.568
-14.49,247.351,15.431
-14.46,247.07,15.58
-14.42,252.931,16.633
-14.39,256.265,15.717
-14.36,257.072,16.485
-14.33,260.161,16.416
-14.29,261.74,16.519
-14.26,263.951,16.645
-14.23,265.109,16.645
-14.2,267.039,16.954
-14.16,269.566,17.034
-14.13,272.128,17.241
-14.1,274.76,17.435
-14.07,276.866,17.516
-14.03,278.586,17.687
-14.0,280.341,17.825
-13.97,282.06,17.951
-13.94,283.604,18.02
-13.9,285.219,18.123
-13.87,286.798,18.226
-13.84,288.412,18.363
-13.81,289.922,18.478
-13.77,291.606,18.615
-13.74,293.08,18.73
-13.71,294.835,18.844
-13.68,296.309,18.89
-13.64,297.958,19.039
-13.61,298.274,18.982
-13.58,300.029,19.52
-13.55,301.924,19.222
-13.51,302.345,19.52
-13.48,304.065,19.566
-13.45,304.802,19.555
-13.42,306.171,19.692
-13.38,307.188,19.6
-13.35,308.136,19.669
-13.32,308.978,19.669
-13.28,309.785,19.749
-13.25,310.452,19.772
-13.22,311.154,19.772
-13.19,311.716,19.772
-13.15,312.312,19.841
-13.12,312.874,19.91
-13.09,313.541,19.978
-13.06,314.137,20.001
-13.02,314.769,20.036
-12.99,315.295,20.116
-12.96,315.927,20.208
-12.93,316.418,20.242
-12.89,316.98,20.311
-12.86,317.436,20.322
-12.83,317.928,20.368
-12.8,318.454,20.391
-12.76,318.98,20.437
-12.73,319.402,20.494
-12.7,319.893,20.528
-12.67,320.349,20.586
-12.63,320.876,20.62
-12.6,321.297,20.62
-12.57,321.753,20.574
-12.54,321.648,20.505
-12.5,322.209,20.62
-12.47,322.806,20.517
-12.44,322.946,20.563
-12.41,323.402,20.494
-12.37,323.648,20.448
-12.34,323.999,20.425
-12.31,324.174,20.379
-12.28,324.455,20.357
-12.24,324.666,20.345
-12.21,324.876,20.311
-12.18,325.052,20.23
-12.15,325.157,20.242
-12.11,325.438,20.139
-12.08,325.508,20.082
-12.05,325.684,20.036
-12.01,325.789,19.921
-11.98,325.859,19.898
-11.95,325.929,19.875
-11.92,326.035,19.852
-11.88,326.105,19.784
-11.85,326.105,19.715
-11.82,326.105,19.646
-11.79,326.07,19.635
-11.75,326.14,19.555
-11.72,326.105,19.486
-11.69,326.035,19.463
-11.66,325.999,19.474
-11.62,325.999,19.348
-11.59,325.859,19.303
-11.56,325.789,19.199
-11.53,325.684,19.154
-11.49,325.122,18.936
-11.46,324.736,18.913
-11.43,324.982,18.764
-11.4,324.455,18.581
-11.36,324.104,18.535
-11.33,323.438,18.34
-11.3,322.455,18.283
-11.27,321.507,18.088
-11.23,320.103,17.928
-11.2,318.349,17.722
-11.17,316.278,17.47
-11.14,313.786,17.206
-11.1,311.189,17.023
-11.07,308.698,16.794
-11.04,306.241,16.622
-11.01,303.854,16.45
-10.97,301.538,16.267
-10.94,298.871,16.084
-10.91,296.063,15.958
-10.88,293.221,15.82
-10.84,290.343,15.625
-10.81,287.289,15.465
-10.78,284.166,15.362
-10.75,281.183,15.179
-10.71,278.059,14.972
-10.68,274.796,14.869
-10.65,271.602,14.743
-10.61,268.549,14.617
-10.58,265.601,14.445
-10.55,262.547,14.319
-10.52,259.529,14.182
-10.48,256.511,14.022
-10.45,253.387,13.804
-10.42,250.194,13.598
-10.39,247.035,13.369
-10.35,243.806,13.14
-10.32,240.613,12.968
-10.29,237.209,12.842
-10.26,233.945,12.716
-10.22,230.611,12.544
-10.19,227.347,12.349
-10.16,224.048,12.143
-10.13,220.644,11.971
-10.09,217.239,11.776
-10.06,213.87,11.547
-10.03,210.501,11.318
-10.0,207.027,11.089
-9.96,203.517,10.86
-9.93,200.113,10.596
-9.9,196.463,10.344
-9.87,192.813,10.115
-9.83,189.128,9.852
-9.8,185.197,9.623
-9.77,181.302,9.348
-9.74,177.231,9.119
-9.7,173.125,8.97
-9.67,169.089,8.775
-9.64,164.842,8.546
-9.61,160.631,8.328
-9.57,156.384,8.099
-9.54,152.243,7.859
-9.51,147.926,7.618
-9.48,143.68,7.4
-9.44,139.223,7.183
-9.41,134.836,6.965
-9.38,130.414,6.736
-9.34,125.922,6.507
-9.31,121.394,6.278
-9.28,116.832,6.071
-9.25,112.375,5.831
-9.21,107.848,5.579
-9.18,103.32,5.361
-9.15,98.793,5.132
-9.12,94.231,4.914
-9.08,89.774,4.697
-9.05,85.176,4.491
-9.02,80.684,4.296
-8.99,76.227,4.067
-8.95,71.735,3.803
-8.92,67.172,3.563
-8.89,62.575,3.311
-8.86,58.118,3.024
-8.82,53.45,2.761
-8.79,48.888,2.497
-8.76,44.15,2.28
-8.73,39.482,2.016
-8.69,34.85,1.799
-8.66,30.322,1.558
-8.63,25.655,1.329
-8.6,21.057,1.088
-8.56,16.53,0.951
-8.53,12.143,0.676
-8.5,7.616,0.573
-8.47,4.176,0.389
-8.43,-1.895,-0.16
-8.4,-6.422,0.286
-8.37,-9.581,-0.183
-8.34,-14.986,-0.561
-8.3,-19.548,-0.71
-8.27,-23.268,-1.146
-8.24,-27.515,-1.753
-8.21,-31.761,-2.211
-8.17,-36.078,-2.704
-8.14,-40.781,-3.001
-8.11,-45.168,-3.242
-8.08,-49.554,-3.425
-8.04,-53.801,-3.608
-8.01,-57.837,-3.803
-7.98,-61.908,-3.975
-7.94,-65.733,-4.135
-7.91,-69.524,-4.33
-7.88,-73.138,-4.548
-7.85,-76.753,-4.811
-7.81,-80.473,-5.04
-7.78,-84.088,-5.27
-7.75,-87.808,-5.533
-7.72,-91.634,-5.797
-7.68,-95.494,-6.026
-7.65,-99.319,-6.255
-7.62,-102.969,-6.472
-7.59,-106.654,-6.713
-7.55,-110.269,-6.919
-7.52,-113.814,-7.171
-7.49,-117.393,-7.377
-7.46,-121.043,-7.606
-7.42,-124.658,-7.836
-7.39,-128.413,-8.065
-7.36,-132.028,-8.294
-7.33,-135.503,-8.523
-7.29,-138.486,-8.603
-7.26,-141.328,-8.89
-7.23,-145.329,-9.176
-7.2,-149.892,-9.405
-7.16,-154.103,-9.623
-7.13,-158.455,-9.966
-7.1,-161.684,-10.001
-7.07,-165.509,-10.516
-7.03,-169.685,-10.413
-7.0,-171.861,-10.585
-6.97,-175.687,-10.929
-6.94,-178.845,-10.871
-6.9,-181.828,-11.181
-6.87,-185.127,-11.33
-6.84,-188.181,-11.524
-6.81,-191.269,-11.753
-6.77,-194.673,-12.005
-6.74,-197.27,-12.12
-6.71,-200.78,-12.601
-6.67,-204.5,-12.613
-6.64,-207.062,-12.876
-6.61,-210.677,-13.162
-6.58,-212.186,-12.933
-6.54,-213.835,-13.46
-6.51,-219.31,-13.953
-6.48,-223.872,-13.85
-6.45,-226.434,-14.205
-6.41,-228.821,-14.411
-6.38,-230.646,-14.583
-6.35,-232.751,-14.617
-6.32,-234.612,-14.663
-6.28,-236.823,-14.629
-6.25,-239.034,-14.778
-6.22,-241.525,-14.915
-6.19,-244.087,-15.362
-6.15,-246.474,-15.27
-6.12,-246.298,-15.534
-6.09,-253.036,-16.691
-6.06,-256.3,-15.591
-6.02,-256.476,-16.45
-5.99,-259.599,-16.439
-5.96,-261.179,-16.599
-5.93,-263.46,-16.668
-5.89,-264.969,-16.759
-5.86,-267.285,-16.943
-5.83,-269.566,-17.046
-5.8,-272.128,-17.218
-5.76,-274.69,-17.344
-5.73,-276.796,-17.424
-5.7,-278.516,-17.573
-5.67,-280.446,-17.687
-5.63,-282.095,-17.722
-5.6,-283.569,-17.848
-5.57,-285.184,-17.974
-5.54,-286.763,-18.054
-5.5,-288.342,-18.168
-5.47,-290.062,-18.272
-5.44,-291.606,-18.398
-5.41,-293.256,-18.581
-5.37,-294.765,-18.673
-5.34,-296.239,-18.776
-5.31,-297.607,-18.879
-5.27,-298.976,-18.993
-5.24,-300.134,-19.073
-5.21,-301.433,-19.154
-5.18,-302.451,-19.177
-5.14,-303.574,-19.314
-5.11,-304.556,-19.348
-5.08,-305.89,-19.463
-5.05,-306.487,-19.371
-5.01,-307.294,-19.669
-4.98,-308.908,-19.635
-4.95,-309.329,-19.646
-4.92,-310.242,-19.761
-4.88,-310.803,-19.704
-4.85,-311.505,-19.818
-4.82,-312.067,-19.875
-4.79,-312.804,-19.933
-4.75,-313.365,-19.933
-4.72,-314.032,-20.001
-4.69,-314.629,-20.047
-4.66,-315.331,-20.104
-4.62,-315.857,-20.127
-4.59,-316.383,-20.196
-4.56,-316.98,-20.23
-4.53,-317.436,-20.253
-4.49,-317.963,-20.345
-4.46,-318.594,-20.322
-4.43,-319.051,-20.368
-4.4,-319.542,-20.379
-4.36,-320.103,-20.379
-4.33,-320.525,-20.357
-4.3,-320.981,-20.437
-4.27,-321.367,-20.425
-4.23,-321.823,-20.505
-4.2,-321.999,-20.402
-4.17,-322.104,-20.46
-4.14,-322.911,-20.448
-4.1,-323.051,-20.425
-4.07,-323.438,-20.483
-4.04,-323.613,-20.448
-4.0,-323.999,-20.471
-3.97,-324.28,-20.368
-3.94,-324.455,-20.357
-3.91,-324.631,-20.322
-3.87,-324.771,-20.345
-3.84,-324.947,-20.311
-3.81,-325.122,-20.322
-3.78,-325.298,-20.288
-3.74,-325.473,-20.276
-3.71,-325.648,-20.15
-3.68,-325.719,-20.059
-3.65,-325.824,-19.967
-3.61,-325.894,-19.841
-3.58,-326.035,-19.669
-3.55,-326.035,-19.589
-3.52,-326.105,-19.52
-3.48,-326.07,-19.44
-3.45,-326.035,-19.52
-3.42,-326.07,-19.452
-3.39,-325.964,-19.452
-3.35,-326.105,-19.36
-3.32,-325.964,-19.28
-3.29,-325.964,-19.257
-3.26,-325.929,-19.096
-3.22,-325.824,-18.97
-3.19,-325.719,-18.867
-3.16,-325.543,-18.787
-3.13,-325.298,-18.707
-3.09,-324.911,-18.65
-3.06,-324.596,-18.569
-3.03,-324.069,-18.489
-3.0,-323.402,-18.386
-2.96,-322.701,-18.237
-2.93,-321.542,-17.997
-2.9,-320.068,-17.779
-2.87,-318.349,-17.538
-2.83,-316.173,-17.241
-2.8,-313.681,-16.931
-2.77,-311.049,-16.668
-2.74,-308.487,-16.507
-2.7,-305.855,-16.507
-2.67,-303.539,-16.462
-2.64,-301.152,-16.359
-2.6,-298.625,-16.244
-2.57,-296.098,-16.061
-2.54,-293.361,-15.866
-2.51,-290.483,-15.683
-2.47,-287.535,-15.488
-2.44,-284.412,-15.316
-2.41,-281.253,-15.179
-2.38,-278.094,-15.053
-2.34,-274.796,-14.892
-2.31,-271.602,-14.732
-2.28,-268.549,-14.549
-2.25,-265.425,-14.4
-2.21,-262.442,-14.228
-2.18,-259.424,-14.056
-2.15,-256.371,-13.873
-2.12,-253.247,-13.701
-2.08,-249.983,-13.529
-2.05,-246.825,-13.38
-2.02,-243.631,-13.208
-1.99,-240.367,-13.025
-1.95,-237.209,-12.842
-1.92,-233.91,-12.647
-1.89,-230.751,-12.441
-1.86,-227.347,-12.257
-1.82,-224.118,-12.086
-1.79,-220.854,-11.845
-1.76,-217.45,-11.662
-1.73,-214.011,-11.467
-1.69,-210.571,-11.272
-1.66,-207.062,-11.066
-1.63,-203.517,-10.837
-1.6,-199.973,-10.596
-1.56,-196.288,-10.367
-1.53,-192.673,-10.127
-1.5,-188.847,-9.909
-1.47,-185.057,-9.726
-1.43,-181.126,-9.474
-1.4,-177.126,-9.29
-1.37,-173.125,-9.061
-1.33,-169.054,-8.798
-1.3,-164.912,-8.569
-1.27,-160.736,-8.282
-1.24,-156.349,-8.042
-1.2,-152.208,-7.824
-1.17,-147.961,-7.572
-1.14,-143.68,-7.366
-1.11,-139.363,-7.171
-1.07,-134.906,-6.942
-1.04,-130.344,-6.736
-1.01,-125.887,-6.484
-0.98,-121.394,-6.243
-0.94,-116.797,-6.06
-0.91,-112.305,-5.842
-0.88,-107.777,-5.625
-0.85,-103.285,-5.384
-0.81,-98.758,-5.144
-0.78,-94.266,-4.926
-0.75,-89.774,-4.662
-0.72,-85.141,-4.456
-0.68,-80.754,-4.216
-0.65,-76.262,-3.987
-0.62,-71.664,-3.746
-0.59,-67.102,-3.528
-0.55,-62.575,-3.276
-0.52,-58.083,-3.013
-0.49,-53.555,-2.681
-0.46,-48.817,-2.532
-0.42,-44.185,-2.245
-0.39,-39.552,-2.154
-0.36,-35.832,-1.89
-0.33,-29.655,-1.398
-0.29,-25.444,-1.673
-0.26,-21.759,-1.123
-0.23,-16.284,-0.894
-0.2,-11.862,-0.79
-0.16,-7.861,-0.527
-0.13,-3.299,-0.241
-0.1,1.299,-0.195
-0.07,5.685,-0.034
-0.03,10.248,0.149
0.0,14.74,0.389
0.03,19.057,0.722
0.07,23.373,1.157
0.1,27.515,1.65
0.13,31.726,2.211
0.16,36.043,2.669
0.2,40.746,3.07
0.23,45.168,3.288
0.26,49.519,3.517
0.29,53.766,3.723
0.33,57.942,3.861
0.36,61.803,4.021
0.39,65.768,4.204
0.42,69.699,4.33
0.46,73.138,4.513
0.49,76.753,4.766
0.52,80.473,5.04
0.55,84.229,5.327
0.59,88.019,5.579
0.62,91.774,5.854
0.65,95.564,6.083
0.68,99.355,6.312
0.72,103.18,6.518
0.75,106.865,6.724
0.78,110.41,6.954
0.81,113.954,7.206
0.85,117.569,7.389
0.88,121.254,7.652
0.91,124.904,7.836
0.94,128.694,8.111
0.98,132.274,8.271
1.01,135.994,8.534
1.04,138.521,8.443
1.07,141.293,9.027
1.11,146.242,9.187
1.14,149.646,9.268
1.17,154.314,9.817
1.2,158.665,9.852
1.24,162.28,10.184
1.27,165.965,10.379
1.3,169.334,10.573
1.33,172.563,10.699
1.37,175.862,10.883
1.4,179.161,11.02
1.43,182.285,11.226
1.47,185.233,11.421
1.5,188.567,11.685
1.53,191.936,11.834
1.56,195.059,12.063
1.6,198.183,12.326
1.63,201.517,12.555
1.66,204.921,12.773
1.69,207.974,12.968
1.73,210.992,13.208
1.76,212.993,13.14
1.79,214.081,13.346
1.82,218.854,14.022
1.86,224.153,13.907
1.89,226.891,14.125
1.92,229.382,14.342
1.95,231.313,14.468
1.99,233.208,14.594
2.02,235.103,14.743
2.05,237.138,14.789
2.08,239.209,15.064
2.12,241.806,15.156
2.15,244.579,15.568
2.18,247.105,15.35
2.21,247.0,15.591
2.25,253.072,16.519
2.28,255.949,15.694
2.31,257.108,16.519
2.34,260.126,16.301
2.38,261.53,16.576
2.41,263.916,16.656
2.44,265.004,16.679
2.47,266.969,16.931
2.51,269.461,17.046
2.54,271.918,17.252
2.57,274.48,17.47
2.6,276.585,17.538
2.64,278.375,17.745
2.67,280.376,17.882
2.7,281.955,17.939
2.74,283.394,18.123
2.77,285.043,18.226
2.8,286.693,18.352
2.83,288.307,18.489
2.87,289.992,18.638
2.9,291.641,18.718
2.93,293.361,18.833
2.96,294.94,18.833
3.0,296.449,19.062
3.03,297.818,18.959
3.06,298.485,19.119
3.09,300.871,19.326
3.13,301.398,19.154
3.16,302.661,19.486
3.19,303.854,19.326
3.22,304.767,19.589
3.26,306.1,19.52
3.29,306.943,19.623
3.32,308.066,19.612
3.35,308.873,19.646
3.39,309.75,19.658
3.42,310.452,19.692
3.45,311.119,19.681
3.48,311.716,19.749
3.52,312.347,19.795
3.55,312.979,19.875
3.58,313.576,19.91
3.61,314.102,20.013
3.65,314.734,20.082
3.68,315.295,20.139
3.71,315.927,20.185
3.74,316.454,20.185
3.78,316.945,20.185
3.81,317.331,20.276
3.84,317.963,20.345
3.87,318.419,20.345
3.91,318.945,20.471
3.94,319.366,20.563
3.97,319.963,20.563
4.0,320.349,20.574
4.04,320.876,20.597
4.07,321.227,20.574
4.1,321.683,20.609
4.14,321.648,20.46
4.17,322.174,20.609
4.2,322.806,20.483
4.23,322.946,20.54
4.27,323.402,20.505
4.3,323.543,20.505
4.33,324.034,20.437
4.36,324.139,20.379
4.4,324.455,20.368
4.43,324.631,20.265
4.46,324.876,20.23
4.49,325.052,20.127
4.53,325.192,20.07
4.56,325.368,20.013
4.59,325.543,19.978
4.62,325.648,19.933
4.66,325.754,19.887
4.69,325.789,19.864
4.72,325.859,19.864
4.75,325.894,19.841
4.79,325.964,19.898
4.82,326.035,19.83
4.85,325.824,19.784
4.88,326.035,19.738
4.92,326.035,19.612
4.95,325.999,19.589
4.98,326.035,19.509
5.01,325.999,19.44
5.05,325.999,19.314
5.08,325.859,19.199
5.11,325.754,19.142
5.14,325.613,19.051
5.18,325.368,19.016
5.21,325.192,18.913
5.24,324.876,18.787
5.27,324.525,18.695
5.31,324.139,18.524
5.34,323.402,18.409
5.37,322.701,18.26
5.41,321.472,18.077
5.44,320.068,17.928
5.47,318.384,17.676
5.5,316.208,17.378
5.54,313.576,17.137
5.57,310.944,16.943
5.6,308.487,16.714
5.63,306.065,16.565
5.67,303.679,16.45
5.7,301.257,16.37
5.73,298.801,16.221
5.76,296.169,16.026
5.8,293.291,15.877
5.83,290.308,15.74
5.86,287.254,15.591
5.89,284.236,15.408
5.93,281.113,15.247
5.96,277.954,15.075
5.99,274.76,14.881
6.02,271.602,14.732
6.06,268.549,14.583
6.09,265.46,14.423
6.12,262.477,14.285
6.15,259.529,14.102
6.19,256.406,13.907
6.22,253.212,13.758
6.25,250.018,13.598
6.28,246.79,13.414
6.32,243.666,13.208
6.35,240.367,13.036
6.38,237.103,12.899
6.41,233.875,12.75
6.45,230.646,12.555
6.48,227.417,12.349
6.51,224.118,12.131
6.54,220.749,11.914
6.58,217.38,11.685
6.61,214.011,11.467
6.64,210.677,11.238
6.67,207.097,11.009
6.71,203.587,10.791
6.74,200.008,10.562
6.77,196.288,10.299
6.81,192.603,10.104
6.84,188.812,9.932
6.87,185.022,9.714
6.9,181.126,9.497
6.94,177.196,9.279
6.97,173.23,9.027
7.0,169.124,8.809
7.03,164.983,8.569
7.07,160.841,8.317
7.1,156.595,8.111
7.13,152.348,7.859
7.16,148.032,7.629
7.2,143.715,7.412
7.23,139.328,7.194
7.26,134.941,6.954
7.29,130.484,6.679
7.33,125.957,6.438
7.36,121.394,6.22
7.39,116.867,6.003
7.42,112.34,5.785
7.46,107.883,5.556
7.49,103.32,5.361
7.52,98.653,5.166
7.55,94.196,4.972
7.59,89.703,4.72
7.62,85.141,4.491
7.65,80.649,4.227
7.68,76.192,4.009
7.72,71.7,3.757
7.75,67.137,3.482
7.78,62.61,3.196
7.81,58.083,2.944
7.85,53.38,2.669
7.88,48.782,2.474
7.91,44.15,2.188
7.94,39.412,2.005
7.98,34.744,1.73
8.01,30.322,1.638
8.04,25.655,1.283
8.08,21.268,1.329
8.11,17.477,0.928
8.14,11.336,0.55
8.17,7.791,0.825
8.21,3.966,0.206
8.24,-1.579,0.115
8.27,-6.177,0.126
8.3,-10.143,-0.092
8.34,-14.88,-0.435
8.37,-19.232,-0.676
8.4,-23.338,-1.168
8.43,-27.515,-1.661
8.47,-31.726,-2.211
8.5,-36.008,-2.704
8.53,-40.781,-3.07
8.56,-45.238,-3.276
8.6,-49.66,-3.517
8.63,-53.906,-3.643
8.66,-57.907,-3.826
8.69,-61.873,-4.021
8.73,-65.768,-4.204
8.76,-69.559,-4.399
8.79,-73.138,-4.605
8.82,-76.683,-4.857
8.86,-80.403,-5.098
8.89,-84.264,-5.304
8.92,-87.984,-5.522
8.95,-91.739,-5.774
8.99,-95.529,-6.026
9.02,-99.249,-6.301
9.05,-102.864,-6.541
9.08,-106.549,-6.816
9.12,-110.234,-7.022
9.15,-113.814,-7.217
9.18,-117.323,-7.412
9.21,-120.973,-7.664
9.25,-124.693,-7.836
9.28,-128.448,-8.088
9.31,-132.028,-8.282
9.34,-135.468,-8.546
9.38,-138.416,-8.615
9.41,-141.364,-8.958
9.44,-145.189,-9.164
9.48,-149.12,-9.462
9.51,-154.665,-9.783
9.54,-158.104,-9.703
9.57,-161.824,-10.276
9.61,-165.93,-10.253
9.64,-169.054,-10.436
9.67,-172.423,-10.654
9.7,-175.616,-10.78
9.74,-178.74,-10.952
9.77,-181.828,-11.123
9.8,-185.057,-11.318
9.83,-188.11,-11.513
9.87,-191.234,-11.834
9.9,-194.322,-11.994
9.93,-197.13,-12.292
9.96,-201.236,-12.624
10.0,-204.184,-12.59
10.03,-207.132,-13.059
10.06,-210.747,-13.128
10.09,-211.975,-13.025
10.13,-214.011,-13.552
10.16,-219.661,-13.941
10.19,-223.978,-13.792
10.22,-226.469,-14.171
10.26,-228.856,-14.365
10.29,-230.821,-14.526
10.32,-232.822,-14.549
10.35,-234.647,-14.629
10.39,-236.787,-14.617
10.42,-238.998,-14.778
10.45,-241.49,-14.904
10.48,-243.982,-15.362
10.52,-246.368,-15.236
10.55,-246.193,-15.534
10.58,-253.107,-16.656
10.61,-256.335,-15.545
10.65,-256.721,-16.473
10.68,-259.81,-16.473
10.71,-261.319,-16.656
10.75,-263.46,-16.714
10.78,-264.934,-16.782
10.81,-267.25,-16.977
10.84,-269.637,-17.023
10.88,-272.093,-17.206
10.91,-274.55,-17.412
10.94,-276.62,-17.435
10.97,-278.27,-17.619
11.01,-280.235,-17.699
11.04,-281.779,-17.756
11.07,-283.394,-17.871
11.1,-284.938,-17.997
11.14,-286.552,-18.134
11.17,-288.202,-18.26
11.2,-289.851,-18.386
11.23,-291.571,-18.581
11.27,-293.185,-18.673
11.3,-294.765,-18.821
11.33,-296.239,-18.89
11.36,-297.713,-19.016
11.4,-299.046,-19.016
11.43,-300.766,-19.165
11.46,-301.643,-19.028
11.49,-302.345,-19.28
11.53,-304.311,-19.28
11.56,-304.732,-19.257
11.59,-305.995,-19.543
11.62,-307.048,-19.36
11.66,-307.68,-19.578
11.69,-308.838,-19.578
11.72,-309.364,-19.612
11.75,-310.172,-19.738
11.79,-310.733,-19.761
11.82,-311.505,-19.898
11.85,-312.207,-19.875
11.88,-312.804,-19.921
11.92,-313.541,-19.921
11.95,-314.067,-19.978
11.98,-314.734,-20.013
12.01,-315.225,-20.07
12.05,-315.962,-20.139
12.08,-316.418,-20.15
12.11,-317.015,-20.208
12.15,-317.436,-20.219
12.18,-317.998,-20.311
12.21,-318.559,-20.276
12.24,-319.051,-20.334
12.28,-319.542,-20.368
12.31,-319.963,-20.425
12.34,-320.454,-20.448
12.37,-321.016,-20.448
12.41,-321.262,-20.494
12.44,-321.893,-20.574
12.47,-321.928,-20.402
12.5,-322.034,-20.574
12.54,-322.946,-20.505
12.57,-322.981,-20.483
12.6,-323.473,-20.551
12.63,-323.683,-20.46
12.67,-324.034,-20.483
12.7,-324.245,-20.391
12.73,-324.455,-20.391
12.76,-324.596,-20.379
12.8,-324.841,-20.357
12.83,-325.052,-20.253
12.86,-325.192,-20.196
12.89,-325.473,-20.07
12.93,-325.543,-19.967
12.96,-325.613,-19.944
12.99,-325.719,-19.956
13.02,-325.859,-19.864
13.06,-325.859,-19.841
13.09,-325.929,-19.795
13.12,-325.999,-19.749
13.15,-326.035,-19.692
13.19,-326.035,-19.658
13.22,-326.035,-19.612
13.25,-326.07,-19.555
13.28,-326.035,-19.486
13.32,-325.999,-19.406
13.35,-325.999,-19.36
13.38,-325.929,-19.268
13.42,-325.789,-19.222
13.45,-325.754,-19.142
13.48,-325.613,-19.039
13.51,-325.473,-18.993
13.55,-325.298,-18.844
13.58,-324.911,-18.753
13.61,-324.631,-18.604
13.64,-324.174,-18.443
13.68,-323.543,-18.295
13.71,-322.736,-18.111
13.74,-321.402,-17.939
13.77,-319.928,-17.768
13.81,-318.349,-17.516
13.84,-316.138,-17.195
13.87,-313.47,-16.908
13.9,-310.873,-16.656
13.94,-308.241,-16.519
13.97,-305.82,-16.485
14.0,-303.539,-16.404
14.03,-301.222,-16.29
14.07,-298.73,-16.129
14.1,-296.028,-15.958
14.13,-293.115,-15.843
14.16,-290.308,-15.683
14.2,-287.289,-15.499
14.23,-284.236,-15.339
14.26,-281.148,-15.167
14.29,-277.989,-14.995
14.33,-274.725,-14.858
14.36,-271.532,-14.732
14.39,-268.478,-14.571
14.42,-265.425,-14.423
14.46,-262.477,-14.297
14.49,-259.459,-14.125
14.52,-256.441,-13.93
14.55,-253.212,-13.781
14.59,-250.053,-13.598
14.62,-246.825,-13.426
14.65,-243.736,-13.231
14.68,-240.543,-12.991
14.72,-237.244,-12.796
14.75,-233.91,-12.624
14.78,-230.681,-12.464
14.82,-227.382,-12.257
14.85,-224.013,-12.063
14.88,-220.609,-11.902
14.91,-217.239,-11.662
14.95,-213.87,-11.444
14.98,-210.431,-11.204
15.01,-206.956,-10.963
15.04,-203.342,-10.78
15.08,-199.867,-10.573
15.11,-196.182,-10.321
15.14,-192.532,-10.104
15.17,-188.742,-9.84
15.21,-184.882,-9.646
15.24,-181.056,-9.405
15.27,-177.126,-9.153
15.3,-173.055,-8.924
15.34,-168.983,-8.683
15.37,-164.702,-8.489
15.4,-160.596,-8.282
15.43,-156.349,-8.053
15.47,-152.103,-7.859
15.5,-147.821,-7.675
15.53,-143.575,-7.446
15.56,-139.117,-7.251
15.6,-134.836,-7.022
15.63,-130.344,-6.77
15.66,-125.922,-6.53
15.69,-121.465,-6.278
15.73,-116.937,-6.06
15.76,-112.515,-5.854
15.79,-108.023,-5.625
15.82,-103.461,-5.418
15.86,-98.969,-5.178
15.89,-94.441,-4.926
15.92,-89.914,-4.662
15.95,-85.316,-4.399
15.99,-80.754,-4.17
16.02,-76.332,-3.895
16.05,-71.664,-3.643
16.09,-67.067,-3.414
16.12,-62.399,-3.208
16.15,-57.872,-3.013
16.18,-53.204,-2.795
16.22,-48.607,-2.555
16.25,-44.009,-2.303
16.28,-39.447,-2.062
16.31,-34.779,-1.81
16.35,-30.322,-1.65
16.38,-25.76,-1.363
16.41,-21.162,-1.168
16.44,-16.74,-0.916
16.48,-12.318,-0.745
16.51,-7.791,-0.493
16.54,-3.369,-0.389
16.57,1.193,-0.183
16.61,5.65,-0.149
16.64,10.318,0.183
16.67,14.319,0.137
16.7,18.214,0.813
16.74,24.286,1.214
16.77,27.199,1.306
16.8,31.2,2.291
16.83,36.324,2.6
16.87,40.781,3.013
16.9,45.062,3.265
16.93,49.554,3.517
16.96,53.661,3.654
17.0,57.837,3.895
17.03,61.768,4.055
17.06,65.628,4.296
17.09,69.524,4.468
17.13,73.138,4.685
17.16,76.823,4.926
17.19,80.649,5.144
17.22,84.369,5.35
17.26,88.124,5.602
17.29,91.844,5.831
17.32,95.494,6.094
17.35,99.319,6.312
17.39,103.004,6.564
17.42,106.619,6.793
17.45,110.234,6.999
17.49,113.744,7.24
17.52,117.393,7.48
17.55,121.149,7.675
17.58,124.904,7.916
17.62,128.729,8.088
17.65,132.379,8.271
17.68,135.818,8.466
17.71,138.731,8.592
17.75,141.539,8.867
17.78,145.435,9.187
17.81,149.821,9.416
17.84,154.173,9.691
17.88,158.49,9.955
17.91,162.386,10.15
17.94,165.79,10.367
17.97,169.124,10.596
18.01,172.353,10.768
18.04,175.792,10.94
18.07,178.951,11.169
18.1,182.39,11.295
18.14,184.636,11.398
18.17,188.812,11.891
18.2,192.076,11.673
18.23,194.638,12.109
18.27,198.428,12.303
18.3,201.341,12.509
18.33,204.71,12.807
18.36,207.869,12.945
18.4,210.782,13.185
18.43,212.747,13.14
18.46,213.905,13.38
18.49,218.713,14.079
18.53,224.048,13.987
18.56,226.785,14.239
18.59,229.488,14.423
18.62,231.313,14.48
18.66,233.138,14.583
18.69,235.278,14.697
18.72,237.209,14.709
18.76,239.349,14.995
18.79,242.052,15.064
18.82,244.684,15.419
18.85,247.211,15.293
18.89,246.93,15.476
18.92,253.107,16.542
18.95,256.16,15.625
18.98,256.932,16.53
19.02,260.301,16.29
19.05,261.67,16.462
19.08,263.916,16.645
19.11,265.004,16.679
19.15,266.969,16.977
19.18,269.496,17.057
19.21,271.953,17.344
19.24,274.655,17.538
19.28,276.761,17.596
19.31,278.481,17.813
19.34,280.481,17.859
19.37,282.06,17.882
19.41,283.64,17.974
19.44,285.149,18.1
19.47,286.728,18.26
19.5,288.272,18.363
19.54,289.957,18.524
19.57,291.536,18.604
19.6,293.221,18.764
19.63,294.589,18.856
19.67,296.519,19.016
19.7,297.046,18.867
19.73,298.766,19.348
19.76,300.661,19.131
19.8,301.257,19.326
19.83,303.012,19.348
19.86,303.679,19.36
19.89,305.153,19.417
19.93,306.065,19.371
19.96,307.153,19.486
19.99,308.101,19.474
20.02,308.873,19.6
20.06,309.645,19.669
20.09,310.382,19.772
20.12,311.049,19.784
20.16,311.61,19.841
20.19,312.137,19.967
20.22,312.839,20.036
20.25,313.4,20.139
20.29,314.137,20.173
20.32,314.699,20.185
20.35,315.295,20.242
20.38,315.962,20.242
20.42,316.489,20.276
20.45,316.98,20.299
20.48,317.436,20.334
20.51,317.998,20.402
20.55,318.559,20.368
20.58,319.016,20.437
20.61,319.507,20.494
20.64,319.893,20.586
20.68,320.454,20.654
20.71,321.016,20.631
20.74,321.367,20.609
20.77,321.858,20.586
20.81,321.753,20.483
20.84,322.314,20.586
20.87,322.946,20.437
20.9,323.051,20.471
20.94,323.543,20.425
20.97,323.718,20.379
21.0,324.104,20.357
21.03,324.28,20.322
21.07,324.49,20.311
21.1,324.666,20.276
21.13,324.982,20.242
21.16,324.806,20.15
21.2,325.087,20.196
21.23,325.298,20.127
21.26,325.368,20.139
21.29,325.613,20.116
21.33,325.719,20.104
21.36,325.789,20.093
21.39,325.859,20.07
21.43,325.929,20.082
21.46,326.07,19.921
21.49,326.07,19.841
21.52,326.14,19.807
21.56,326.105,19.704
21.59,326.105,19.646
21.62,326.105,19.566
21.65,326.07,19.509
21.69,326.07,19.406
21.72,326.035,19.326
21.75,325.964,19.211
21.78,325.824,19.154
21.82,325.754,19.085
21.85,325.508,18.993
21.88,325.333,18.89
21.91,325.052,18.741
21.95,324.666,18.604
21.98,324.245,18.489
22.01,323.648,18.317
22.04,322.841,18.111
22.08,321.683,17.939
22.11,320.244,17.733
22.14,318.524,17.527
22.17,316.383,17.252
22.21,313.716,17.046
22.24,311.049,16.92
22.27,308.522,16.725
22.3,305.96,16.622
22.34,303.679,16.496
22.37,301.328,16.347
22.4,298.801,16.21
22.43,296.098,16.118
22.47,293.361,15.923
22.5,290.413,15.751
22.53,287.395,15.591
22.56,284.306,15.419
22.6,281.183,15.259
22.63,277.989,15.098
22.66,274.796,14.938
22.69,271.637,14.789
22.73,268.549,14.64
22.76,265.495,14.537
22.79,262.617,14.354
22.83,259.529,14.182
22.86,256.441,14.033
22.89,253.352,13.827
22.92,250.159,13.632
22.96,246.93,13.472
22.99,243.771,13.3
23.02,240.578,13.105
23.05,237.314,12.922
23.09,234.155,12.693
23.12,230.962,12.464
23.15,227.628,12.257
23.18,224.329,12.04
23.22,221.03,11.834
23.25,217.59,11.65
23.28,214.186,11.421
23.31,210.747,11.192
23.35,207.237,10.963
23.38,203.658,10.745
23.41,199.937,10.562
23.44,196.288,10.344
23.48,192.603,10.092
23.51,188.777,9.886
23.54,184.952,9.691
23.57,181.021,9.462
23.61,177.02,9.29
23.64,173.019,9.073
23.67,168.983,8.809
23.7,164.737,8.58
23.74,160.596,8.351
23.77,156.349,8.099
23.8,152.103,7.859
23.83,147.821,7.629
23.87,143.539,7.4
23.9,139.188,7.16
23.93,134.695,6.931
23.96,130.168,6.724
24.0,125.746,6.507
24.03,121.184,6.289
24.06,116.727,6.106
24.09,112.27,5.854
24.13,107.812,5.625
24.16,103.391,5.373
24.19,98.863,5.109
24.23,94.301,4.88
24.26,89.844,4.639
24.29,85.316,4.387
24.32,80.859,4.135
24.36,76.297,3.872
24.39,71.735,3.654
24.42,67.137,3.391
24.45,62.61,3.173
24.49,58.047,2.887
24.52,53.38,2.669
24.55,48.642,2.417
24.58,44.08,2.222
24.62,39.166,1.959
24.65,34.639,1.867
24.68,29.831,1.546
24.71,26.076,1.615
24.75,21.162,0.951
24.78,15.372,1.042
24.81,12.529,0.962
24.84,7.791,0.424
24.88,2.667,0.401
24.91,-1.299,0.252
24.94,-5.65,-0.023
24.97,-10.493,-0.172
25.01,-14.67,-0.389
25.04,-19.022,-0.779
25.07,-23.338,-1.191
25.1,-27.585,-1.684
25.14,-31.691,-2.211
25.17,-36.078,-2.692
25.2,-40.781,-3.059
25.23,-45.273,-3.299
25.27,-49.625,-3.482
25.3,-53.871,-3.666
25.33,-57.942,-3.838
25.36,-61.908,-4.021
25.4,-65.733,-4.204
25.43,-69.559,-4.41
25.46,-73.174,-4.662
25.5,-76.999,-4.903
25.53,-80.649,-5.121
25.56,-84.334,-5.373
25.59,-88.089,-5.613
25.63,-91.844,-5.865
25.66,-95.74,-6.094
25.69,-99.495,-6.278
25.72,-103.11,-6.507
25.76,-106.689,-6.747
25.79,-110.304,-6.988
25.82,-113.884,-7.183
25.85,-117.429,-7.4
25.89,-121.008,-7.629
25.92,-124.728,-7.824
25.95,-128.378,-7.996
25.98,-132.133,-8.237
26.02,-135.432,-8.385
26.05,-138.521,-8.603
26.08,-140.802,-8.683
26.11,-145.364,-9.336
26.15,-150.348,-9.21
26.18,-153.506,-9.565
26.21,-157.964,-9.966
26.24,-161.578,-10.069
26.28,-165.404,-10.356
26.31,-168.983,-10.482
26.34,-172.318,-10.699
26.37,-175.476,-10.871
26.41,-178.81,-11.043
26.44,-181.828,-11.192
26.47,-185.022,-11.433
26.5,-188.075,-11.639
26.54,-191.585,-11.925
26.57,-194.252,-11.983
26.6,-197.586,-12.452
26.63,-201.447,-12.464
26.67,-203.938,-12.681
26.7,-207.413,-13.025
26.73,-210.641,-13.071
26.76,-212.045,-13.025
26.8,-214.081,-13.506
26.83,-219.556,-13.941
26.86,-223.802,-13.77
26.9,-226.294,-14.136
26.93,-228.821,-14.331
26.96,-230.751,-14.491
26.99,-232.822,-14.571
27.03,-234.752,-14.617
27.06,-236.787,-14.583
27.09,-238.998,-14.755
27.12,-241.42,-14.823
27.16,-243.982,-15.316
27.19,-246.298,-15.202
27.22,-246.263,-15.534
27.25,-253.001,-16.599
27.29,-256.23,-15.614
27.32,-256.792,-16.427
27.35,-259.74,-16.45
27.38,-261.319,-16.588
27.42,-263.46,-16.633
27.45,-264.969,-16.679
27.48,-267.285,-16.84
27.51,-269.531,-16.943
27.55,-272.058,-17.126
27.58,-274.515,-17.344
27.61,-276.41,-17.516
27.64,-278.13,-17.745
27.68,-280.095,-17.836
27.71,-281.674,-17.882
27.74,-283.253,-17.997
27.77,-284.938,-18.088
27.81,-286.658,-18.203
27.84,-288.307,-18.295
27.87,-289.992,-18.409
27.9,-291.711,-18.478
27.94,-293.221,-18.638
27.97,-294.835,-18.73
28.0,-296.379,-18.879
28.03,-297.748,-18.867
28.07,-298.66,-18.97
28.1,-300.52,-19.131
28.13,-301.573,-19.005
28.17,-302.521,-19.199
28.2,-303.714,-19.177
28.23,-304.802,-19.268
28.26,-305.714,-19.36
28.3,-306.837,-19.463
28.33,-307.82,-19.52
28.36,-308.627,-19.612
28.39,-309.47,-19.646
28.43,-310.242,-19.715
28.46,-310.838,-19.784
28.49,-311.54,-19.852
28.52,-312.207,-19.875
28.56,-312.804,-19.91
28.59,-313.506,-19.933
28.62,-314.067,-19.978
28.65,-314.664,-20.059
28.69,-315.295,-20.093
28.72,-315.892,-20.139
28.75,-316.418,-20.23
28.78,-317.015,-20.242
28.82,-317.401,-20.288
28.85,-317.998,-20.357
28.88,-318.524,-20.368
28.91,-319.016,-20.437
28.95,-319.472,-20.46
28.98,-319.963,-20.483
29.01,-320.419,-20.494
29.04,-320.911,-20.574
29.08,-321.262,-20.586
29.11,-321.823,-20.654
29.14,-322.034,-20.402
29.17,-322.139,-20.437
29.21,-322.946,-20.391
29.24,-323.157,-20.265
29.27,-323.473,-20.288
29.3,-323.648,-20.322
29.34,-323.999,-20.379
29.37,-324.21,-20.345
29.4,-324.455,-20.334
29.43,-324.631,-20.253
29.47,-324.806,-20.288
29.5,-325.087,-20.196
29.53,-325.192,-20.139
29.57,-325.333,-20.139
29.6,-325.403,-20.185
29.63,-325.613,-20.104
29.66,-325.684,-20.116
29.7,-325.929,-19.933
29.73,-325.824,-19.841
29.76,-325.964,-19.818
29.79,-326.035,-19.646
29.83,-326.035,-19.6
29.86,-326.07,-19.52
29.89,-326.035,-19.497
29.92,-325.999,-19.474
29.96,-325.929,-19.52
29.99,-325.999,-19.406
30.02,-325.964,-19.348
30.05,-325.929,-19.268
30.09,-325.859,-19.177
30.12,-325.754,-19.085
30.15,-325.648,-18.97
30.18,-325.508,-18.867
30.22,-325.192,-18.764
30.25,-324.841,-18.673
30.28,-324.561,-18.592
30.31,-324.139,-18.432
30.35,-323.473,-18.272
30.38,-322.736,-18.111
30.41,-321.472,-17.905
30.44,-319.928,-17.699
30.48,-318.314,-17.47
30.51,-316.243,-17.183
30.54,-313.751,-16.863
30.57,-311.084,-16.645
30.61,-308.417,-16.519
30.64,-305.89,-16.485
30.67,-303.644,-16.381
30.7,-301.222,-16.255
30.74,-298.66,-16.164
30.77,-296.063,-16.038
30.8,-293.396,-15.877
30.84,-290.483,-15.694
30.87,-287.535,-15.488
30.9,-284.412,-15.305
30.93,-281.288,-15.156
30.97,-278.13,-14.995
31.0,-274.936,-14.835
31.03,-271.672,-14.697
31.06,-268.584,-14.549
31.1,-265.46,-14.377
31.13,-262.407,-14.228
31.16,-259.319,-14.102
31.19,-256.195,-13.953
31.23,-253.142,-13.815
31.26,-250.018,-13.609
31.29,-246.86,-13.403
31.32,-243.666,-13.197
31.36,-240.508,-12.979
31.39,-237.279,-12.773
31.42,-233.98,-12.578
31.45,-230.681,-12.418
31.49,-227.382,-12.246
31.52,-224.083,-12.04
31.55,-220.749,-11.822
31.58,-217.415,-11.593
31.62,-214.011,-11.387
31.65,-210.606,-11.169
31.68,-207.167,-10.94
31.71,-203.517,-10.745
31.75,-199.902,-10.585
31.78,-196.358,-10.367
31.81,-192.673,-10.173
31.84,-188.847,-9.932
31.88,-185.022,-9.691
31.91,-181.091,-9.474
31.94,-177.231,-9.279
31.97,-173.265,-9.038
32.01,-169.159,-8.821
32.04,-164.948,-8.58
32.07,-160.666,-8.351
32.1,-156.419,-8.133
32.14,-152.243,-7.881
32.17,-147.856,-7.675
32.2,-143.61,-7.446
32.24,-139.188,-7.24
32.27,-134.731,-6.999
32.3,-130.309,-6.736
32.33,-125.816,-6.518
32.37,-121.394,-6.266
32.4,-116.937,-6.026
32.43,-112.375,-5.797
32.46,-107.988,-5.602
32.5,-103.461,-5.338
32.53,-98.933,-5.098
32.56,-94.371,-4.869
32.59,-89.844,-4.617
32.63,-85.281,-4.365
32.66,-80.789,-4.135
32.69,-76.192,-3.929
32.72,-71.664,-3.712
32.76,-67.067,-3.46
32.79,-62.505,-3.23
32.82,-58.012,-2.967
32.85,-53.38,-2.738
32.89,-48.747,-2.463
32.92,-44.15,-2.222
32.95,-39.447,-1.982
32.98,-34.85,-1.776
33.02,-30.322,-1.558
33.05,-25.549,-1.386
33.08,-20.952,-1.18
33.11,-16.46,-0.985
33.15,-12.003,-0.79
33.18,-7.616,-0.63
33.21,-3.229,-0.401
33.24,1.228,-0.286
33.28,5.721,-0.046
33.31,10.178,0.034
33.34,14.635,0.412
33.37,18.811,0.515
33.41,22.356,1.157
33.44,28.357,1.764
33.47,31.41,1.856
33.51,35.306,2.944
33.54,40.851,3.093
33.57,45.062,3.379
33.6,49.484,3.666
33.64,53.731,3.792
33.67,57.661,3.941
33.7,61.873,4.158
33.73,65.909,4.239
33.77,69.664,4.433
33.8,73.209,4.594
33.83,76.753,4.823
33.86,80.649,5.063
33.9,84.474,5.292
33.93,88.194,5.556
33.96,91.949,5.842
33.99,95.705,6.049
34.03,99.319,6.312
34.06,103.215,6.541
34.09,106.795,6.759
34.12,110.41,6.965
34.16,113.989,7.16
34.19,117.534,7.354
34.22,121.254,7.584
34.25,125.044,7.767
34.29,128.729,7.996
34.32,132.414,8.237
34.35,135.924,8.385
34.38,138.766,8.534
34.42,141.75,8.775
34.45,145.575,9.096
34.48,149.927,9.359
34.51,154.243,9.634
34.55,158.35,9.932
34.58,162.315,10.173
34.61,165.825,10.379
34.64,169.194,10.551
34.68,172.493,10.722
34.71,175.792,10.94
34.74,179.091,11.135
34.77,182.214,11.307
34.81,185.303,11.501
34.84,188.602,11.719
34.87,191.866,11.925
34.91,194.989,12.097
34.94,197.902,12.349
34.97,201.201,12.601
35.0,204.675,12.784
35.04,207.658,12.945
35.07,210.817,13.22
35.1,213.239,13.151
35.13,214.221,13.3
35.17,218.678,14.033
35.2,224.258,13.953
35.23,227.136,14.125
35.26,229.768,14.297
35.3,231.593,14.388
35.33,233.524,14.48
35.36,235.349,14.606
35.39,237.279,14.732
35.43,239.735,14.984
35.46,242.122,15.053
35.49,245.035,15.534
35.52,247.667,15.35
35.56,247.07,15.557
35.59,253.036,16.622
35.62,256.265,15.694
35.65,257.037,16.519
35.69,260.161,16.427
35.72,261.6,16.553
35.75,263.846,16.714
35.78,265.144,16.737
35.82,267.11,17.023
35.85,269.566,17.137
35.88,271.988,17.321
35.91,274.62,17.538
35.95,276.691,17.63
35.98,278.586,17.79
36.01,280.481,17.905
36.04,282.095,17.985
36.08,283.71,18.088
36.11,285.254,18.111
36.14,286.728,18.26
36.18,288.377,18.329
36.21,289.992,18.455
36.24,291.641,18.581
36.27,293.291,18.73
36.31,295.01,18.753
36.34,296.414,18.879
36.37,297.888,18.925
36.4,299.152,19.108
36.44,300.345,19.096
36.47,300.661,19.188
36.5,303.012,19.474
36.53,303.784,19.177
36.57,304.802,19.555
36.6,306.03,19.406
36.63,306.802,19.692
36.66,308.136,19.635
36.7,308.838,19.726
36.73,309.75,19.726
36.76,310.347,19.795
36.79,311.049,19.818
36.83,311.61,19.898
36.86,312.207,20.001
36.89,312.804,20.162
36.92,313.541,20.208
36.96,314.102,20.219
36.99,314.734,20.253
37.02,315.331,20.253
37.05,315.962,20.242
37.09,316.454,20.276
37.12,317.05,20.345
37.15,317.471,20.357
37.18,317.892,20.437
37.22,318.524,20.425
37.25,318.945,20.448
37.28,319.472,20.505
37.31,319.998,20.483
37.35,320.454,20.528
37.38,320.946,20.494
37.41,321.262,20.563
37.44,321.823,20.54
37.48,321.858,20.425
37.51,322.49,20.528
37.54,322.876,20.402
37.58,323.262,20.483
37.61,323.648,20.311
37.64,323.824,20.322
37.67,324.174,20.219
37.71,324.28,20.253
37.74,324.666,20.162
37.77,324.701,20.15
37.8,324.911,20.23
37.84,324.982,20.265
37.87,325.192,20.334
37.9,325.368,20.276
37.93,325.543,20.311
37.97,325.754,20.219
38.0,325.789,20.15
38.03,325.894,20.093
38.06,325.929,20.082
38.1,326.035,19.99
38.13,326.07,19.898
38.16,326.14,19.864
38.19,326.14,19.715
38.23,326.105,19.692
38.26,326.14,19.578
38.29,326.035,19.566
38.32,326.105,19.543
38.36,326.07,19.429
38.39,325.999,19.394
38.42,325.929,19.291
38.45,325.859,19.165
38.49,325.719,19.073
38.52,325.578,18.89
38.55,324.701,18.65
38.58,324.736,18.718
38.62,324.666,18.432
38.65,324.034,18.386
38.68,323.578,18.203
38.71,322.56,18.054
38.75,321.472,17.951
38.78,320.174,17.768
38.81,318.419,17.584
38.85,316.243,17.332
38.88,313.646,17.149
38.91,311.084,16.989
38.94,308.522,16.805
38.98,306.1,16.679
39.01,303.854,16.473
39.04,301.363,16.324
39.07,298.801,16.187
39.11,295.923,16.106
39.14,293.045,16.038
39.17,290.167,15.923
39.2,287.149,15.786
39.24,284.131,15.614
39.27,281.148,15.408
39.3,278.094,15.19
39.33,274.901,14.972
39.37,271.742,14.789
39.4,268.619,14.64
39.43,265.601,14.468
39.46,262.442,14.365
39.5,259.389,14.262
39.53,256.371,14.045
39.56,253.142,13.861
39.59,249.948,13.712
39.63,246.825,13.472
39.66,243.631,13.243
39.69,240.472,13.036
39.72,237.244,12.819
39.76,233.98,12.658
39.79,230.681,12.452
39.82,227.452,12.223
39.85,224.083,11.994
39.89,220.644,11.845
39.92,217.415,11.639
39.95,213.835,11.433
39.98,210.396,11.272
40.02,206.992,11.043
40.05,203.447,10.825
40.08,199.937,10.573
40.11,196.323,10.321
40.15,192.603,10.115
40.18,188.882,9.932
40.21,185.092,9.691
40.25,181.126,9.474
40.28,177.196,9.279
40.31,173.09,9.061
40.34,169.054,8.809
40.38,164.877,8.557
40.41,160.631,8.328
40.44,156.384,8.099
40.47,152.138,7.87
40.51,147.786,7.675
40.54,143.469,7.458
40.57,139.047,7.263
40.6,134.66,7.034
40.64,130.273,6.77
40.67,125.851,6.53
40.7,121.394,6.278
40.73,116.937,6.003
40.77,112.375,5.774
40.8,108.023,5.522
40.83,103.496,5.281
40.86,98.863,5.098
40.9,94.476,4.857
40.93,89.879,4.605
40.96,85.316,4.376
40.99,80.824,4.135
41.03,76.332,3.883
41.06,71.735,3.654
41.09,67.102,3.437
41.12,62.505,3.196
41.16,57.942,2.978
41.19,53.204,2.726
41.22,48.572,2.497
41.25,43.939,2.28
41.29,39.201,2.073
41.32,34.499,1.867
41.35,30.077,1.673
41.38,25.304,1.455
41.42,20.811,1.283
41.45,16.214,1.042
41.48,12.038,0.848
41.52,7.3,0.538
41.55,3.685,0.63
41.58,-1.228,-0.08
41.61,-6.984,0.149
41.65,-9.932,0.034
41.68,-14.74,-0.561
41.71,-19.759,-0.733
41.74,-23.619,-1.1
41.78,-27.55,-1.707
41.81,-31.902,-2.211
41.84,-36.183,-2.658
41.87,-40.851,-2.99
41.91,-45.132,-3.23
41.94,-49.484,-3.505
41.97,-53.625,-3.677
42.0,-57.732,-3.883
42.04,-61.768,-4.055
42.07,-65.663,-4.193
42.1,-69.453,-4.376
42.13,-73.138,-4.571
42.17,-76.753,-4.823
42.2,-80.544,-5.109
42.23,-84.299,-5.338
42.26,-87.984,-5.579
42.3,-91.774,-5.819
42.33,-95.599,-6.026
42.36,-99.355,-6.243
42.39,-103.075,-6.449
42.43,-106.689,-6.701
42.46,-110.304,-6.919
42.49,-113.849,-7.137
42.52,-117.464,-7.354
42.56,-121.114,-7.595
42.59,-124.763,-7.824
42.62,-128.554,-8.076
42.65,-132.239,-8.237
42.69,-135.643,-8.397
42.72,-138.556,-8.5
42.75,-141.399,-8.741
42.78,-145.364,-9.05
42.82,-149.786,-9.325
42.85,-154.033,-9.577
42.88,-158.279,-9.955
42.92,-162.0,-10.047
42.95,-164.983,-10.379
42.98,-169.615,-10.654
43.01,-172.177,-10.47
43.05,-175.23,-11.02
43.08,-178.986,-11.02
43.11,-181.723,-11.249
43.14,-185.092,-11.467
43.18,-188.251,-11.696
43.21,-191.269,-11.834
43.24,-194.006,-12.086
43.27,-198.042,-12.441
43.31,-201.131,-12.406
43.34,-204.008,-12.784
43.37,-207.588,-12.91
43.4,-210.677,-13.059
43.44,-212.466,-12.991
43.47,-213.87,-13.346
43.5,-218.994,-13.941
43.53,-223.802,-13.815
43.57,-226.469,-14.102
43.6,-228.821,-14.342
43.63,-230.681,-14.526
43.66,-232.822,-14.549
43.7,-234.787,-14.571
43.73,-236.858,-14.571
43.76,-239.139,-14.755
43.79,-241.701,-14.846
43.83,-244.122,-15.282
43.86,-246.684,-15.213
43.89,-246.333,-15.431
43.92,-252.686,-16.633
43.96,-256.511,-15.671
43.99,-256.862,-16.404
44.02,-259.74,-16.485
44.05,-261.389,-16.633
44.09,-263.6,-16.679
44.12,-264.934,-16.725
44.15,-267.25,-16.92
44.18,-269.566,-16.989
44.22,-272.128,-17.218
44.25,-274.76,-17.367
44.28,-276.761,-17.481
44.32,-278.375,-17.63
44.35,-280.165,-17.733
44.38,-281.815,-17.825
44.41,-283.464,-17.939
44.45,-285.078,-18.054
44.48,-286.693,-18.157
44.51,-288.237,-18.295
44.54,-289.851,-18.432
44.58,-291.571,-18.547
44.61,-293.221,-18.615
44.64,-294.765,-18.707
44.67,-296.239,-18.821
44.71,-297.678,-18.89
44.74,-299.011,-18.947
44.77,-300.24,-19.028
44.8,-301.468,-19.073
44.84,-302.591,-19.119
44.87,-303.609,-19.211
44.9,-304.697,-19.326
44.93,-305.644,-19.371
44.97,-306.837,-19.44
45.0,-307.224,-19.383
45.03,-308.347,-19.646
45.06,-309.575,-19.543
45.1,-309.996,-19.658
45.13,-310.909,-19.704
45.16,-311.4,-19.749
45.19,-312.102,-19.91
45.23,-312.769,-19.933
45.26,-313.435,-20.082
45.29,-314.137,-20.082
45.32,-314.664,-20.139
45.36,-315.225,-20.219
45.39,-315.927,-20.23
45.42,-316.489,-20.253
45.45,-317.12,-20.253
45.49,-317.542,-20.253
45.52,-318.033,-20.322
45.55,-318.559,-20.345
45.59,-319.051,-20.425
45.62,-319.577,-20.425
45.65,-320.139,-20.425
45.68,-320.56,-20.414
45.72,-321.051,-20.437
45.75,-321.437,-20.402
45.78,-321.999,-20.391
45.81,-322.034,-20.276
45.85,-322.139,-20.414
45.88,-322.981,-20.402
45.91,-323.157,-20.357
45.94,-323.578,-20.368
45.98,-323.753,-20.334
46.01,-324.069,-20.368
46.04,-324.315,-20.322
46.07,-324.49,-20.334
46.11,-324.736,-20.265
46.14,-324.911,-20.23
46.17,-325.052,-20.196
46.2,-325.157,-20.23
46.24,-325.298,-20.253
46.27,-325.438,-20.253
46.3,-325.648,-20.173
46.33,-325.719,-20.104
46.37,-325.894,-20.001
46.4,-325.929,-19.875
46.43,-325.964,-19.818
46.46,-326.035,-19.715
46.5,-325.999,-19.658
46.53,-326.07,-19.612
46.56,-326.07,-19.555
46.59,-326.07,-19.486
46.63,-325.999,-19.463
46.66,-325.999,-19.429
46.69,-325.999,-19.383
46.72,-325.964,-19.291
46.76,-325.929,-19.142
46.79,-325.754,-19.073
46.82,-325.684,-18.959
46.85,-325.543,-18.856
46.89,-325.333,-18.73
46.92,-324.982,-18.592
46.95,-324.596,-18.478
46.99,-324.139,-18.363
47.02,-323.438,-18.237
47.05,-322.736,-18.077
47.08,-321.472,-17.859
47.12,-319.893,-17.733
47.15,-318.314,-17.481
47.18,-316.103,-17.126
47.21,-313.611,-16.851
47.25,-311.014,-16.599
47.28,-308.241,-16.496
47.31,-305.785,-16.507
47.34,-303.503,-16.462
47.38,-301.152,-16.37
47.41,-298.625,-16.267
47.44,-295.993,-16.118
47.47,-293.221,-15.923
47.51,-290.413,-15.728
47.54,-287.465,-15.545
47.57,-284.341,-15.385
47.6,-281.183,-15.247
47.64,-278.024,-15.121
47.67,-274.76,-14.972
47.7,-271.567,-14.823
47.73,-268.478,-14.652
47.77,-265.355,-14.491
47.8,-262.407,-14.342
47.83,-259.424,-14.125
47.86,-256.371,-13.941
47.9,-253.177,-13.77
47.93,-250.018,-13.575
47.96,-246.825,-13.403
47.99,-243.701,-13.22
48.03,-240.437,-13.025
48.06,-237.209,-12.853
48.09,-233.945,-12.624
48.12,-230.611,-12.475
48.16,-227.417,-12.28
48.19,-224.048,-12.074
48.22,-220.714,-11.891
48.26,-217.415,-11.65
48.29,-213.94,-11.433
48.32,-210.501,-11.226
48.35,-207.027,-10.974
48.39,-203.482,-10.768
48.42,-199.902,-10.573
48.45,-196.252,-10.356
48.48,-192.462,-10.173
48.52,-188.742,-9.966
48.55,-184.917,-9.772
48.58,-181.021,-9.588
48.61,-177.09,-9.394
48.65,-173.055,-9.164
48.68,-169.019,-8.935
48.71,-164.842,-8.718
48.74,-160.701,-8.466
48.78,-156.419,-8.202
48.81,-152.173,-7.962
48.84,-147.856,-7.721
48.87,-143.539,-7.469
48.91,-139.153,-7.194
48.94,-134.695,-6.954
48.97,-130.203,-6.713
49.0,-125.676,-6.507
49.04,-121.184,-6.278
49.07,-116.727,-6.094
49.1,-112.27,-5.865
49.13,-107.883,-5.613
49.17,-103.461,-5.327
49.2,-99.004,-5.052
49.23,-94.511,-4.8
49.26,-89.879,-4.617
49.3,-85.387,-4.41
49.33,-80.789,-4.181
49.36,-76.297,-3.941
49.39,-71.805,-3.643
49.43,-67.067,-3.471
49.46,-62.575,-3.208
49.49,-57.942,-2.978
49.52,-53.345,-2.738
49.56,-48.642,-2.577
49.59,-44.115,-2.28
49.62,-39.307,-2.154
49.66,-35.622,-1.959
49.69,-29.655,-1.375
49.72,-25.128,-1.673
49.75,-21.689,-1.146
49.79,-16.179,-0.905
49.82,-11.581,-0.848
49.85,-7.616,-0.664
49.88,-3.053,-0.389
49.92,1.509,-0.321
49.95,5.826,-0.126
49.98,10.353,0.057
50.01,14.81,0.309
50.05,19.092,0.642
50.08,23.338,1.088
50.11,27.55,1.558
50.14,31.621,2.177
50.18,36.008,2.692
50.21,40.64,3.104
50.24,45.097,3.368
50.27,49.414,3.597
50.31,53.661,3.769
50.34,57.802,3.929
50.37,61.873,4.044
50.4,65.804,4.181
50.44,69.629,4.376
50.47,73.244,4.548
50.5,76.894,4.788
50.53,80.684,5.018
50.57,84.369,5.212
50.6,88.019,5.487
50.63,91.844,5.705
50.66,95.564,5.934
50.7,99.319,6.163
50.73,103.075,6.392
50.76,106.795,6.621
50.79,110.374,6.862
50.83,113.954,7.045
50.86,117.534,7.286
50.89,121.254,7.549
50.93,125.079,7.767
50.96,128.799,7.985
50.99,132.449,8.237
51.02,135.854,8.443
51.06,138.696,8.603
51.09,141.609,8.89
51.12,145.575,9.199
51.15,149.821,9.416
51.19,154.173,9.772
51.22,158.525,10.024
51.25,162.456,10.173
51.28,165.895,10.379
51.32,169.159,10.573
51.35,172.493,10.745
51.38,175.862,10.929
51.41,179.161,11.123
51.45,182.32,11.272
51.48,185.338,11.467
51.51,188.531,11.696
51.54,191.866,11.914
51.58,195.024,12.131
51.61,198.218,12.372
51.64,201.517,12.567
51.67,204.851,12.716
51.71,208.044,12.842
51.74,211.133,13.036
51.77,212.958,12.922
51.8,214.151,13.197
51.84,219.17,13.861
51.87,224.223,13.758
51.9,226.926,14.033
51.93,229.558,14.216
51.97,231.277,14.331
52.0,233.173,14.457
52.03,235.138,14.629
52.06,237.173,14.709
52.1,239.384,15.03
52.13,241.946,15.133
52.16,244.614,15.568
52.19,247.211,15.385
52.23,246.895,15.602
52.26,253.036,16.588
52.29,255.949,15.74
52.33,256.862,16.553
52.36,260.02,16.416
52.39,261.53,16.668
52.42,264.021,16.737
52.46,265.215,16.737
52.49,267.215,16.977
52.52,269.707,17.103
52.55,272.093,17.286
52.59,274.69,17.516
52.62,276.936,17.596
52.65,278.656,17.756
52.68,280.586,17.894
52.72,282.271,17.962
52.75,283.815,18.042
52.78,285.429,18.111
52.81,286.974,18.214
52.85,288.553,18.329
52.88,290.237,18.398
52.91,291.782,18.489
52.94,293.571,18.581
52.98,294.94,18.615
53.01,296.484,18.776
53.04,297.748,18.799
53.07,299.257,19.039
53.11,299.818,18.867
53.14,300.977,19.348
53.17,303.188,19.257
53.2,303.433,19.348
53.24,305.013,19.6
53.27,305.785,19.555
53.3,306.943,19.704
53.33,307.855,19.681
53.37,308.803,19.83
53.4,309.575,19.807
53.43,310.312,19.91
53.46,310.979,19.91
53.5,311.61,20.001
53.53,312.207,20.047
53.56,312.874,20.116
53.6,313.576,20.104
53.63,314.172,20.127
53.66,314.699,20.173
53.69,315.331,20.253
53.73,315.927,20.276
53.76,316.418,20.334
53.79,316.945,20.437
53.82,317.506,20.425
53.86,318.033,20.402
53.89,318.594,20.357
53.92,319.086,20.334
53.95,319.577,20.334
53.99,320.033,20.345
54.02,320.49,20.368
54.05,320.911,20.437
54.08,321.367,20.505
54.12,321.858,20.425
54.15,321.648,20.437
54.18,322.35,20.574
54.21,322.771,20.483
54.25,323.016,20.586
54.28,323.438,20.505
54.31,323.578,20.54
54.34,324.069,20.437
54.38,324.174,20.414
54.41,324.455,20.448
54.44,324.631,20.402
54.47,324.876,20.402
54.51,325.087,20.265
54.54,325.192,20.253
54.57,325.368,20.242
54.6,325.578,20.219
54.64,325.648,20.162
54.67,325.719,20.173
54.7,325.859,20.116
54.73,325.929,20.059
54.77,325.999,20.001
54.8,326.07,19.944
54.83,326.14,19.83
54.86,326.105,19.784
54.9,326.175,19.681
54.93,326.175,19.566
54.96,326.175,19.463
55.0,326.14,19.337
55.03,326.07,19.257
55.06,326.07,19.165
55.09,325.894,19.096
55.13,325.894,19.028
55.16,325.789,18.856
55.19,325.368,18.867
55.22,325.298,18.787
55.26,324.841,18.65
55.29,324.561,18.604
55.32,324.034,18.432
55.35,323.508,18.375
55.39,322.104,18.088
55.42,320.946,18.111
55.45,320.209,17.871
55.48,317.998,17.71
55.52,316.103,17.516
55.55,313.506,17.229
55.58,311.049,17.069
55.61,308.733,16.805
55.65,306.206,16.668
55.68,303.714,16.565
55.71,301.363,16.427
55.74,298.73,16.29
55.78,295.993,16.175
55.81,293.08,15.98
55.84,290.097,15.889
55.87,287.219,15.706
55.91,284.131,15.534
55.94,281.183,15.373
55.97,278.13,15.133
56.0,274.866,14.949
56.04,271.742,14.778
56.07,268.689,14.56
56.1,265.601,14.342
56.13,262.582,14.148
56.17,259.389,14.01
56.2,256.3,13.85
56.23,253.072,13.689
56.27,249.808,13.529
56.3,246.544,13.357
56.33,243.28,13.231
56.36,240.192,13.048
56.4,236.998,12.842
56.43,233.699,12.693
56.46,230.435,12.544
56.49,227.277,12.315
56.53,223.943,12.143
56.56,220.714,11.937
56.59,217.239,11.742
56.62,213.87,11.547
56.66,210.501,11.307
56.69,207.027,11.055
56.72,203.552,10.837
56.75,199.902,10.631
56.79,196.288,10.413
56.82,192.567,10.195
56.85,188.742,10.024
56.88,184.952,9.829
56.92,181.091,9.6
56.95,177.126,9.371
56.98,173.055,9.164
57.01,169.054,8.912
57.05,164.842,8.66
57.08,160.736,8.385
57.11,156.49,8.099
57.14,152.208,7.859
57.18,147.891,7.606
57.21,143.504,7.354
57.24,139.047,7.125
57.27,134.52,6.896
57.31,130.098,6.679
57.34,125.606,6.449
57.37,121.043,6.255
57.4,116.621,6.026
57.44,112.094,5.808
57.47,107.532,5.613
57.5,103.11,5.384
57.53,98.618,5.144
57.57,93.95,4.949
57.6,89.493,4.766
57.63,85.071,4.536
57.67,80.544,4.33
57.7,76.192,4.078
57.73,71.594,3.826
57.76,67.067,3.597
57.8,62.61,3.311
57.83,57.942,3.07
57.86,53.415,2.818
57.89,48.747,2.612
57.93,44.15,2.36
57.96,39.377,2.142
57.99,34.709,1.959
58.02,30.147,1.741
58.06,25.62,1.478
58.09,20.882,1.26
58.12,16.53,1.031
58.15,12.003,0.802
58.19,7.651,0.573
58.22,2.913,0.367
58.25,-0.456,0.332
58.28,-6.177,-0.355
58.32,-11.266,0.011
58.35,-14.249,-0.401
58.38,-19.373,-0.962
58.41,-24.075,-1.203
58.45,-27.76,-1.695
58.48,-31.796,-2.325
58.51,-36.429,-2.715
58.54,-40.816,-3.07
58.58,-45.343,-3.265
58.61,-49.66,-3.46
58.64,-53.906,-3.597
58.67,-57.942,-3.735
58.71,-61.908,-3.895
58.74,-65.839,-4.09
58.77,-69.629,-4.296
58.8,-73.279,-4.548
58.84,-76.964,-4.777
58.87,-80.684,-4.972
58.9,-84.334,-5.212
58.94,-88.019,-5.464
58.97,-91.774,-5.67
59.0,-95.564,-5.934
59.03,-99.214,-6.197
59.07,-102.899,-6.449
59.1,-106.619,-6.656
59.13,-110.304,-6.873
59.16,-113.814,-7.091
59.2,-117.464,-7.32
59.23,-121.149,-7.515
59.26,-124.799,-7.721
59.29,-128.448,-7.985
59.33,-132.063,-8.282
59.36,-135.538,-8.454
59.39,-138.416,-8.649
59.42,-141.399,-8.89
59.46,-145.399,-9.245
59.49,-149.786,-9.382
59.52,-154.033,-9.691
59.55,-158.104,-9.863
59.59,-162.035,-10.195
59.62,-165.334,-10.218
59.65,-168.492,-10.642
59.68,-172.914,-10.745
59.72,-175.23,-10.677
59.75,-178.459,-11.169
59.78,-182.039,-11.135
59.81,-184.811,-11.387
59.85,-188.391,-11.627
59.88,-191.164,-11.696
59.91,-194.287,-12.166
59.94,-198.358,-12.303
59.98,-200.85,-12.418
60.01,-204.359,-12.819
60.04,-207.588,-12.83
60.07,-210.536,-13.059
60.11,-212.08,-12.887
60.14,-214.186,-13.437
60.17,-219.907,-13.827
60.2,-224.013,-13.655
60.24,-226.364,-14.045
60.27,-228.751,-14.274
60.3,-230.611,-14.468
60.34,-232.787,-14.56
60.37,-234.787,-14.594
60.4,-236.787,-14.583
60.43,-239.104,-14.801
60.47,-241.631,-14.869
60.5,-244.122,-15.339
60.53,-246.474,-15.247
60.56,-246.263,-15.602
60.6,-253.247,-16.714
60.63,-256.371,-15.625
60.66,-256.827,-16.507
60.69,-259.915,-16.427
60.73,-261.284,-16.576
60.76,-263.425,-16.645
60.79,-264.758,-16.737
60.82,-267.11,-16.943
60.86,-269.496,-17.057
60.89,-272.058,-17.229
60.92,-274.515,-17.39
60.95,-276.48,-17.504
60.99,-278.235,-17.642
61.02,-280.2,-17.745
61.05,-281.815,-17.779
61.08,-283.499,-17.859
61.12,-285.114,-17.939
61.15,-286.763,-18.008
61.18,-288.307,-18.157
61.21,-289.957,-18.295
61.25,-291.641,-18.409
61.28,-293.256,-18.547
61.31,-294.835,-18.627
61.34,-296.274,-18.764
61.38,-297.713,-18.879
61.41,-299.117,-18.936
61.44,-300.38,-18.993
61.47,-301.503,-19.085
61.51,-302.556,-19.165
61.54,-303.609,-19.291
61.57,-304.697,-19.371
61.61,-305.75,-19.463
61.64,-306.802,-19.555
61.67,-307.785,-19.681
61.7,-308.662,-19.715
61.74,-309.119,-19.704
61.77,-310.242,-19.852
61.8,-310.803,-19.784
61.83,-311.47,-19.944
61.87,-312.207,-19.898
61.9,-312.698,-19.967
61.93,-313.435,-19.99
61.96,-314.067,-20.059
62.0,-314.699,-20.104
62.03,-315.225,-20.127
62.06,-315.927,-20.116
62.09,-316.348,-20.15
62.13,-316.98,-20.208
62.16,-317.506,-20.173
62.19,-317.998,-20.208
62.22,-318.524,-20.242
62.26,-319.086,-20.276
62.29,-319.507,-20.311
62.32,-319.998,-20.368
62.35,-320.525,-20.334
62.39,-320.911,-20.402
62.42,-321.332,-20.437
62.45,-321.858,-20.505
62.48,-321.999,-20.391
62.52,-322.104,-20.471
62.55,-322.946,-20.437
62.58,-323.087,-20.402
62.61,-323.438,-20.483
62.65,-323.718,-20.425
62.68,-324.034,-20.437
62.71,-324.315,-20.345
62.74,-324.49,-20.322
62.78,-324.701,-20.242
62.81,-324.806,-20.242
62.84,-324.947,-20.276
62.87,-325.192,-20.219
62.91,-325.298,-20.219
62.94,-325.403,-20.23
62.97,-325.648,-20.173
63.01,-325.754,-20.024
63.04,-325.789,-19.978
63.07,-325.929,-19.875
63.1,-325.894,-19.841
63.14,-325.999,-19.795
63.17,-325.999,-19.726
63.2,-326.07,-19.681
63.23,-326.035,-19.635
63.27,-326.07,-19.543
63.3,-326.07,-19.452
63.33,-326.035,-19.394
63.36,-326.035,-19.314
63.4,-325.999,-19.188
63.43,-325.859,-19.142
63.46,-325.789,-19.073
63.49,-325.719,-18.947
63.53,-325.473,-18.856
63.56,-325.192,-18.764
63.59,-324.841,-18.707
63.62,-324.596,-18.581
63.66,-324.104,-18.443
63.69,-323.438,-18.34
63.72,-322.63,-18.146
63.75,-321.472,-17.905
63.79,-319.893,-17.733
63.82,-318.138,-17.527
63.85,-315.927,-17.241
63.88,-313.33,-16.977
63.92,-310.733,-16.771
63.95,-308.066,-16.668
63.98,-305.644,-16.633
64.01,-303.468,-16.507
64.05,-301.187,-16.37
64.08,-298.66,-16.198
64.11,-295.993,-16.049
64.14,-293.185,-15.923
64.18,-290.413,-15.728
64.21,-287.395,-15.534
64.24,-284.306,-15.396
64.28,-281.218,-15.202
64.31,-278.094,-14.995
64.34,-274.866,-14.858
64.37,-271.672,-14.697
64.41,-268.619,-14.526
64.44,-265.53,-14.365
64.47,-262.477,-14.193
64.5,-259.459,-14.033
64.54,-256.371,-13.85
64.57,-253.177,-13.678
64.6,-249.948,-13.506
64.63,-246.719,-13.357
64.67,-243.526,-13.162
64.7,-240.262,-13.002
64.73,-236.998,-12.842
64.76,-233.699,-12.67
64.8,-230.435,-12.498
64.83,-227.066,-12.303
64.86,-223.767,-12.154
64.89,-220.503,-11.937
64.93,-217.099,-11.742
64.96,-213.695,-11.547
64.99,-210.291,-11.318
65.02,-206.851,-11.112
65.06,-203.412,-10.883
65.09,-199.797,-10.654
65.12,-196.217,-10.402
65.15,-192.497,-10.184
65.19,-188.742,-9.978
65.22,-184.987,-9.737
65.25,-181.091,-9.52
65.28,-177.161,-9.268
65.32,-173.125,-9.027
65.35,-169.019,-8.798
65.38,-164.807,-8.58
65.41,-160.631,-8.363
65.45,-156.384,-8.145
65.48,-152.243,-7.893
65.51,-147.961,-7.641
65.54,-143.575,-7.446
65.58,-139.258,-7.206
65.61,-134.836,-6.976
65.64,-130.344,-6.747
65.68,-125.851,-6.518
65.71,-121.324,-6.289
65.74,-116.797,-6.06
65.77,-112.199,-5.865
65.81,-107.777,-5.636
65.84,-103.215,-5.407
65.87,-98.653,-5.178
65.9,-94.09,-4.949
65.94,-89.528,-4.72
65.97,-85.036,-4.479
66.0,-80.544,-4.239
66.03,-76.016,-3.975
66.07,-71.454,-3.769
66.1,-66.891,-3.574
66.13,-62.329,-3.345
66.16,-57.872,-3.116
66.2,-53.275,-2.841
66.23,-48.537,-2.704
66.26,-44.185,-2.394
66.29,-39.307,-2.199
66.33,-35.762,-2.062
66.36,-29.971,-1.375
66.39,-25.198,-1.661
66.42,-22.04,-1.123
66.46,-16.565,-0.779
66.49,-11.757,-0.745
66.52,-7.826,-0.561
66.55,-3.299,-0.286
66.59,1.369,-0.183
66.62,5.756,-0.046
66.65,10.283,0.126
66.68,14.81,0.378
66.72,19.092,0.71
66.75,23.409,1.157
66.78,27.585,1.638
66.81,31.761,2.177
66.85,36.183,2.612
66.88,40.746,2.978
66.91,45.273,3.185
66.94,49.59,3.402
66.98,53.871,3.574
67.01,57.907,3.746
67.04,61.803,3.987
67.08,65.839,4.147
67.11,69.524,4.319
67.14,73.174,4.513
67.17,76.788,4.731
67.21,80.544,5.018
67.24,84.404,5.258
67.27,88.124,5.556
67.3,91.914,5.819
67.34,95.74,6.003
67.37,99.425,6.209
67.4,103.18,6.438
67.43,106.83,6.656
67.47,110.41,6.896
67.5,113.919,7.102
67.53,117.464,7.343
67.56,121.149,7.606
67.6,124.904,7.824
67.63,128.554,8.076
67.66,132.309,8.305
67.69,135.818,8.511
67.73,138.731,8.683
67.76,141.714,8.924
67.79,145.645,9.256
67.82,150.102,9.462
67.86,154.419,9.691
67.89,158.665,9.932
67.92,162.631,10.069
67.95,166.141,10.195
67.99,169.475,10.379
68.02,172.739,10.562
68.05,175.897,10.734
68.08,179.091,10.952
68.12,182.144,11.146
68.15,185.127,11.398
68.18,188.461,11.627
68.21,191.725,11.834
68.25,194.919,12.063
68.28,198.148,12.269
68.31,201.411,12.498
68.35,204.781,12.761
68.38,207.869,12.956
68.41,211.028,13.185
68.44,212.958,13.094
68.48,214.081,13.392
68.51,219.029,14.045
68.54,224.048,13.941
68.57,226.82,14.239
68.61,229.488,14.365
68.64,231.488,14.457
68.67,233.348,14.549
68.7,235.278,14.709
68.74,237.209,14.766
68.77,239.42,15.053
68.8,241.982,15.098
68.83,244.754,15.557
68.87,247.176,15.259
68.9,246.93,15.625
68.93,253.563,16.496
68.96,256.055,15.591
69.0,257.072,16.633
69.03,260.477,16.278
69.06,261.775,16.507
69.09,264.197,16.588
69.13,265.25,16.611
69.16,267.18,16.908
69.19,269.672,17.011
69.22,271.988,17.241
69.26,274.655,17.447
69.29,276.726,17.481
69.32,278.481,17.699
69.35,280.551,17.733
69.39,281.99,17.825
69.42,283.534,17.974
69.45,285.008,18.134
69.48,286.658,18.26
69.52,288.202,18.386
69.55,289.922,18.512
69.58,291.606,18.627
69.61,293.291,18.684
69.65,294.8,18.799
69.68,296.449,18.867
69.71,297.818,19.028
69.75,299.117,19.096
69.78,299.397,19.199
69.81,301.819,19.589
69.84,302.872,19.245
69.88,303.644,19.658
69.91,305.153,19.452
69.94,305.714,19.612
69.97,307.083,19.658
70.01,307.996,19.658
70.04,308.978,19.669
70.07,309.645,19.726
70.1,310.452,19.784
70.14,311.119,19.795
70.17,311.786,19.818
70.2,312.383,19.83
70.23,313.084,19.841
70.27,313.576,19.91
70.3,314.207,19.978
70.33,314.769,20.013
70.36,315.611,20.116
70.4,316.103,20.104
70.43,316.313,20.23
70.46,317.155,20.345
70.49,317.471,20.322
70.53,318.033,20.46
70.56,318.594,20.357
70.59,318.945,20.494
70.62,319.577,20.471
70.66,319.928,20.517
70.69,320.525,20.528
70.72,320.911,20.563
70.75,321.437,20.528
70.79,321.753,20.483
70.82,321.753,20.425
70.85,322.35,20.494
70.88,322.806,20.437
70.92,322.946,20.586
70.95,323.367,20.609
70.98,323.613,20.597
71.02,324.034,20.574
71.05,324.174,20.517
71.08,324.42,20.505
71.11,324.701,20.391
71.15,324.911,20.299
71.18,325.052,20.23
71.21,325.262,20.173
71.24,325.508,20.07
71.28,325.648,20.001
71.31,325.754,19.898
71.34,325.824,19.852
71.37,325.894,19.83
71.41,325.964,19.83
71.44,325.999,19.807
71.47,325.999,19.795
71.5,326.07,19.784
71.54,326.07,19.772
71.57,326.14,19.715
71.6,326.105,19.646
71.63,326.105,19.566
71.67,326.035,19.52
71.7,326.07,19.452
71.73,325.999,19.348
71.76,325.964,19.28
71.8,325.859,19.131
71.83,325.684,19.085
71.86,325.543,18.947
71.89,325.227,18.844
71.93,324.876,18.776
71.96,324.596,18.627
71.99,324.034,18.524
72.02,323.508,18.455
72.06,322.174,18.146
72.09,320.946,18.203
72.12,320.244,17.905
72.15,318.068,17.664
72.19,315.997,17.516
72.22,313.646,17.172
72.25,311.084,16.977
72.28,308.627,16.759
72.32,306.206,16.588
72.35,303.749,16.427
72.38,301.257,16.29
72.42,298.695,16.175
72.45,295.923,16.038
72.48,293.045,15.877
72.51,290.202,15.706
72.55,287.219,15.58
72.58,284.166,15.419
72.61,281.148,15.259
72.64,277.989,15.11
72.68,274.796,14.949
72.71,271.532,14.823
72.74,268.478,14.686
72.77,265.46,14.514
72.81,262.407,14.377
72.84,259.459,14.171
72.87,256.371,13.999
72.9,253.177,13.838
72.94,250.089,13.632
72.97,246.79,13.495
73.0,243.736,13.3
73.03,240.543,13.105
73.07,237.244,12.956
73.1,234.05,12.75
73.13,230.646,12.578
73.16,227.417,12.395
73.2,224.118,12.154
73.23,220.784,11.937
73.26,217.345,11.73
73.29,213.94,11.478
73.33,210.501,11.238
73.36,206.956,11.032
73.39,203.377,10.848
73.42,199.762,10.631
73.46,196.182,10.39
73.49,192.462,10.15
73.52,188.812,9.909
73.55,184.952,9.657
73.59,181.056,9.439
73.62,177.196,9.199
73.65,173.09,8.981
73.69,169.019,8.775
73.72,164.807,8.557
73.75,160.666,8.328
73.78,156.384,8.088
73.82,152.173,7.859
73.85,147.821,7.618
73.88,143.504,7.366
73.91,139.117,7.148
73.95,134.625,6.954
73.98,130.203,6.747
74.01,125.711,6.518
74.04,121.254,6.312
74.08,116.762,6.106
74.11,112.27,5.865
74.14,107.777,5.648
74.17,103.25,5.441
74.21,98.758,5.224
74.24,94.266,4.983
74.27,89.738,4.777
74.3,85.246,4.513
74.34,80.719,4.273
74.37,76.297,4.021
74.4,71.735,3.746
74.43,67.067,3.505
74.47,62.54,3.23
74.5,57.907,3.001
74.53,53.275,2.738
74.56,48.642,2.486
74.6,43.974,2.245
74.63,39.166,2.062
74.66,34.569,1.856
74.69,30.006,1.673
74.73,25.479,1.42
74.76,20.811,1.237
74.79,16.425,0.997
74.82,12.003,0.825
74.86,7.616,0.573
74.89,3.018,0.458
74.92,-0.316,0.344
74.95,-6.282,-0.252
74.99,-11.055,0.137
75.02,-14.108,-0.378
75.05,-19.373,-0.859
75.09,-23.97,-1.111
75.12,-27.69,-1.615
75.15,-31.761,-2.28
75.18,-36.394,-2.692
75.22,-40.921,-3.024
75.25,-45.343,-3.219
75.28,-49.695,-3.414
75.31,-53.976,-3.54
75.35,-57.977,-3.689
75.38,-61.943,-3.872
75.41,-65.839,-4.067
75.44,-69.559,-4.284
75.48,-73.279,-4.525
75.51,-76.929,-4.777
75.54,-80.614,-5.029
75.57,-84.334,-5.247
75.61,-88.019,-5.522
75.64,-91.879,-5.774
75.67,-95.599,-6.026
75.7,-99.355,-6.243
75.74,-103.04,-6.484
75.77,-106.654,-6.713
75.8,-110.41,-6.919
75.83,-113.884,-7.114
75.87,-117.464,-7.343
75.9,-121.149,-7.515
75.93,-124.799,-7.732
75.96,-128.484,-7.973
76.0,-132.169,-8.202
76.03,-135.538,-8.385
76.06,-138.486,-8.557
76.09,-141.328,-8.798
76.13,-145.399,-9.176
76.16,-149.751,-9.348
76.19,-154.208,-9.714
76.22,-158.42,-9.886
76.26,-162.386,-10.184
76.29,-165.404,-10.184
76.32,-169.019,-10.631
76.36,-173.195,-10.596
76.39,-175.336,-10.677
76.42,-178.986,-11.1
76.45,-182.144,-11.043
76.49,-185.127,-11.33
76.52,-188.321,-11.559
76.55,-191.515,-11.788
76.58,-194.533,-12.063
76.62,-197.937,-12.303
76.65,-200.569,-12.441
76.68,-204.465,-12.865
76.71,-207.623,-12.807
76.75,-210.291,-13.14
76.78,-212.186,-13.025
76.81,-213.976,-13.495
76.84,-219.872,-13.964
76.88,-224.188,-13.77
76.91,-226.54,-14.148
76.94,-228.821,-14.4
76.97,-230.786,-14.56
77.01,-232.822,-14.56
77.04,-234.752,-14.617
77.07,-236.787,-14.583
77.1,-239.174,-14.812
77.14,-241.595,-14.869
77.17,-244.228,-15.362
77.2,-246.158,-15.144
77.23,-246.474,-15.648
77.27,-253.668,-16.53
77.3,-256.125,-15.534
77.33,-256.932,-16.485
77.36,-259.88,-16.37
77.4,-261.389,-16.588
77.43,-263.741,-16.553
77.46,-265.004,-16.588
77.49,-267.32,-16.725
77.53,-269.637,-16.782
77.56,-272.163,-17.057
77.59,-274.76,-17.252
77.62,-276.585,-17.412
77.66,-278.2,-17.653
77.69,-280.025,-17.802
77.72,-281.674,-17.916
77.76,-283.324,-18.031
77.79,-285.114,-18.111
77.82,-286.728,-18.146
77.85,-288.272,-18.272
77.89,-289.992,-18.363
77.92,-291.606,-18.432
77.95,-293.08,-18.65
77.98,-294.765,-18.776
78.02,-296.274,-18.879
78.05,-297.678,-18.993
78.08,-299.011,-19.062
78.11,-300.275,-19.085
78.15,-301.468,-19.142
78.18,-302.521,-19.165
78.21,-303.574,-19.291
78.24,-304.626,-19.348
78.28,-305.75,-19.44
78.31,-306.802,-19.474
78.34,-307.75,-19.589
78.37,-308.627,-19.566
78.41,-309.013,-19.635
78.44,-310.277,-19.715
78.47,-310.768,-19.623
78.5,-311.4,-19.818
78.54,-312.102,-19.761
78.57,-312.663,-19.875
78.6,-313.33,-19.898
78.63,-313.962,-19.967
78.67,-314.594,-19.967
78.7,-315.12,-20.024
78.73,-315.787,-20.104
78.76,-316.348,-20.196
78.8,-316.91,-20.242
78.83,-317.366,-20.288
78.86,-317.963,-20.322
78.89,-318.524,-20.334
78.93,-318.945,-20.402
78.96,-319.507,-20.425
78.99,-319.998,-20.448
79.03,-320.419,-20.505
79.06,-320.911,-20.586
79.09,-321.402,-20.528
79.12,-321.893,-20.528
79.16,-321.964,-20.437
79.19,-322.104,-20.54
79.22,-323.016,-20.437
79.25,-323.122,-20.345
79.29,-323.402,-20.471
79.32,-323.683,-20.414
79.35,-323.999,-20.448
79.38,-324.28,-20.368
79.42,-324.455,-20.334
79.45,-324.736,-20.265
79.48,-324.911,-20.185
79.51,-325.052,-20.15
79.55,-325.122,-20.185
79.58,-325.262,-20.23
79.61,-325.543,-20.185
79.64,-325.719,-20.059
79.68,-325.754,-19.99
79.71,-325.859,-19.91
79.74,-325.929,-19.83
79.77,-326.105,-19.681
79.81,-326.07,-19.543
79.84,-326.07,-19.532
79.87,-326.035,-19.497
79.9,-326.07,-19.497
79.94,-326.035,-19.474
79.97,-325.999,-19.452
80.0,-325.999,-19.44
80.03,-325.929,-19.406
80.07,-325.929,-19.337
80.1,-325.894,-19.222
80.13,-325.789,-19.108
80.16,-325.613,-19.073
80.2,-325.473,-18.936
80.23,-325.227,-18.867
80.26,-324.982,-18.741
80.29,-324.631,-18.581
80.33,-324.21,-18.466
80.36,-323.543,-18.283
80.39,-322.771,-18.1
80.43,-321.437,-17.905
80.46,-319.893,-17.756
80.49,-318.243,-17.538
80.52,-316.068,-17.241
80.56,-313.576,-16.931
80.59,-310.873,-16.691
80.62,-308.136,-16.576
80.65,-305.679,-16.542
80.69,-303.468,-16.45
80.72,-301.222,-16.301
80.75,-298.66,-16.164
80.78,-295.923,-16.026
80.82,-293.08,-15.889
80.85,-290.237,-15.751
80.88,-287.289,-15.58
80.91,-284.166,-15.408
80.95,-281.148,-15.213
80.98,-278.059,-14.995
81.01,-274.796,-14.835
81.04,-271.602,-14.64
81.08,-268.478,-14.491
81.11,-265.425,-14.388
81.14,-262.372,-14.274
81.17,-259.283,-14.125
81.21,-256.09,-14.01
81.24,-253.072,-13.827
81.27,-249.878,-13.609
81.3,-246.754,-13.426
81.34,-243.631,-13.22
81.37,-240.367,-13.036
81.4,-237.138,-12.853
81.43,-233.91,-12.635
81.47,-230.646,-12.452
81.5,-227.312,-12.235
81.53,-223.978,-12.028
81.56,-220.573,-11.845
81.6,-217.134,-11.673
81.63,-213.765,-11.49
81.66,-210.361,-11.272
81.7,-206.886,-11.066
81.73,-203.412,-10.848
81.76,-199.867,-10.596
81.79,-196.252,-10.367
81.83,-192.603,-10.161
81.86,-188.918,-9.932
81.89,-184.987,-9.714
81.92,-181.197,-9.474
81.96,-177.196,-9.245
81.99,-173.019,-9.061
82.02,-168.983,-8.821
82.05,-164.702,-8.592
82.09,-160.561,-8.385
82.12,-156.314,-8.156
82.15,-152.068,-7.973
82.18,-147.856,-7.71
82.22,-143.469,-7.503
82.25,-139.153,-7.286
82.28,-134.731,-7.034
82.31,-130.273,-6.805
82.35,-125.781,-6.564
82.38,-121.254,-6.312
82.41,-116.832,-6.049
82.44,-112.34,-5.785
82.48,-107.812,-5.567
82.51,-103.285,-5.338
82.54,-98.758,-5.109
82.57,-94.231,-4.892
82.61,-89.668,-4.662
82.64,-85.106,-4.433
82.67,-80.579,-4.239
82.7,-76.157,-3.975
82.74,-71.594,-3.735
82.77,-66.997,-3.494
82.8,-62.505,-3.253
82.83,-57.907,-3.001
82.87,-53.38,-2.749
82.9,-48.642,-2.532
82.93,-44.115,-2.28
82.96,-39.201,-2.073
83.0,-35.657,-1.982
83.03,-30.006,-1.272
83.06,-24.953,-1.558
83.1,-21.794,-1.146
83.13,-16.46,-0.768
83.16,-11.546,-0.779
83.19,-7.616,-0.642
83.23,-3.229,-0.355
83.26,1.474,-0.252
83.29,5.791,-0.16
83.32,10.248,0.046
83.36,14.81,0.298
83.39,19.057,0.619
83.42,23.373,1.065
83.45,27.585,1.546
83.49,31.761,2.131
83.52,36.218,2.589
83.55,40.746,3.024
83.58,45.273,3.299
83.62,49.625,3.563
83.65,53.836,3.769
83.68,58.012,3.906
83.71,61.943,4.09
83.75,65.839,4.273
83.78,69.769,4.399
83.81,73.349,4.571
83.84,76.964,4.8
83.88,80.754,5.018
83.91,84.474,5.281
83.94,88.3,5.499
83.97,91.949,5.739
84.01,95.564,5.991
84.04,99.355,6.255
84.07,103.11,6.484
84.1,106.83,6.724
84.14,110.41,6.896
84.17,113.919,7.102
84.2,117.499,7.297
84.23,121.219,7.618
84.27,125.009,7.813
84.3,128.799,8.076
84.33,132.414,8.225
84.37,135.924,8.511
84.4,138.556,8.466
84.43,141.223,8.912
84.46,146.382,9.187
84.5,149.751,9.176
84.53,154.243,9.806
84.56,158.946,9.783
84.59,162.456,10.081
84.63,166.071,10.264
84.66,169.299,10.447
84.69,172.388,10.665
84.72,175.827,10.883
84.76,179.126,11.043
84.79,182.285,11.249
84.82,185.197,11.456
84.85,188.496,11.742
84.89,191.901,11.925
84.92,195.129,12.131
84.95,198.428,12.326
84.98,201.622,12.544
85.02,204.851,12.761
85.05,208.044,12.956
85.08,211.133,13.151
85.11,213.028,13.036
85.15,214.151,13.334
85.18,219.17,14.01
85.21,224.294,13.896
85.24,227.066,14.148
85.28,229.593,14.251
85.31,231.207,14.319
85.34,233.138,14.457
85.37,235.173,14.606
85.41,237.279,14.663
85.44,239.63,14.961
85.47,242.262,14.995
85.5,244.894,15.431
85.54,247.351,15.224
85.57,247.07,15.454
85.6,253.493,16.473
85.63,256.441,15.522
85.67,257.143,16.496
85.7,260.266,16.416
85.73,261.775,16.553
85.77,263.881,16.645
85.8,265.004,16.679
85.83,267.039,16.977
85.86,269.601,17.103
85.9,272.093,17.264
85.93,274.62,17.493
85.96,276.585,17.596
85.99,278.41,17.802
86.03,280.446,17.871
86.06,281.99,17.962
86.09,283.569,18.088
86.12,285.254,18.134
86.16,286.728,18.226
86.19,288.377,18.317
86.22,289.922,18.409
86.25,291.641,18.615
86.29,293.256,18.673
86.32,294.905,18.867
86.35,296.379,18.844
86.38,297.923,19.073
86.42,298.695,18.913
86.45,299.748,19.257
86.48,302.1,19.165
86.51,302.415,19.177
86.55,304.065,19.417
86.58,304.942,19.268
86.61,306.03,19.509
86.64,307.118,19.44
86.68,308.101,19.578
86.71,309.084,19.566
86.74,309.821,19.669
86.77,310.522,19.726
86.81,311.189,19.83
86.84,311.751,19.875
86.87,312.347,19.956
86.9,312.944,20.013
86.94,313.541,20.116
86.97,314.137,20.173
87.0,314.734,20.23
87.04,315.26,20.265
87.07,315.892,20.357
87.1,316.383,20.379
87.13,316.98,20.345
87.17,317.436,20.322
87.2,317.892,20.414
87.23,318.419,20.425
87.26,318.945,20.46
87.3,319.437,20.471
87.33,319.858,20.528
87.36,320.419,20.505
87.39,320.84,20.586
87.43,321.332,20.54
87.46,321.718,20.528
87.49,321.613,20.505
87.52,322.279,20.643
87.56,322.876,20.414
87.59,322.981,20.471
87.62,323.543,20.368
87.65,323.788,20.219
87.69,324.104,20.139
87.72,324.245,20.116
87.75,324.49,20.104
87.78,324.561,20.139
87.82,324.841,20.196
87.85,325.017,20.15
87.88,325.157,20.173
87.91,325.368,20.139
87.95,325.473,20.139
87.98,325.613,20.127
88.01,325.684,20.127
88.04,325.789,20.116
88.08,325.964,20.001
88.11,325.929,19.933
88.14,326.105,19.887
88.17,325.929,19.715
88.21,325.894,19.749
88.24,326.105,19.612
88.27,325.964,19.623
88.3,326.175,19.532
88.34,325.999,19.406
88.37,326.035,19.394
88.4,325.894,19.417
88.44,325.894,19.371
88.47,325.789,19.245
88.5,325.684,19.142
88.53,325.473,19.005
88.57,325.298,18.867
88.6,325.017,18.673
88.63,324.666,18.512
88.66,324.245,18.34
88.7,323.648,18.157
88.73,322.841,17.997
88.76,321.613,17.79
88.79,320.068,17.642
88.83,318.384,17.458
88.86,316.103,17.172
88.89,313.225,17.034
88.92,310.803,16.851
88.96,308.241,16.691
88.99,305.785,16.611
89.02,303.503,16.496
89.05,301.117,16.393
89.09,298.625,16.278
89.12,295.993,16.152
89.15,293.08,16.026
89.18,290.132,15.912
89.22,287.114,15.786
89.25,284.131,15.58
89.28,281.042,15.362
89.31,277.919,15.167
89.35,274.725,14.961
89.38,271.602,14.801
89.41,268.513,14.64
89.44,265.495,14.48
89.48,262.407,14.342
89.51,259.319,14.171
89.54,256.23,14.022
89.57,253.142,13.827
89.61,249.843,13.666
89.64,246.649,13.506
89.67,243.526,13.311
89.7,240.402,13.082
89.74,237.138,12.865
89.77,233.91,12.681
89.8,230.646,12.452
89.84,227.452,12.212
89.87,224.083,11.994
89.9,220.784,11.765
89.93,217.31,11.616
89.97,213.835,11.421
90.0,210.361,11.204
90.03,206.921,11.009
90.06,203.412,10.757
90.1,199.692,10.585
90.13,196.077,10.39
90.16,192.497,10.173
90.19,188.707,9.943
90.23,184.846,9.737
90.26,180.986,9.531
90.29,176.95,9.348
90.32,172.844,9.13
90.36,168.668,8.89
90.39,164.597,8.672
90.42,160.561,8.42
90.45,156.384,8.202
90.49,152.278,7.962
90.52,147.926,7.71
90.55,143.504,7.492
90.58,139.223,7.251
90.62,134.836,7.022
90.65,130.344,6.793
90.68,125.816,6.541
90.71,121.219,6.312
90.75,116.762,6.049
90.78,112.164,5.831
90.81,107.672,5.579
90.84,103.18,5.338
90.88,98.547,5.098
90.91,93.985,4.88
90.94,89.458,4.639
90.97,84.93,4.41
91.01,80.368,4.181
91.04,75.911,3.975
91.07,71.349,3.735
91.11,66.786,3.517
91.14,62.154,3.276
91.17,57.661,3.082
91.2,53.064,2.807
91.24,48.396,2.669
91.27,43.834,2.36
91.3,39.131,2.199
91.33,34.464,1.936
91.37,30.112,1.787
91.4,25.374,1.398
91.43,21.198,1.455
91.46,17.232,0.916
91.5,11.055,0.664
91.53,7.861,0.813
91.56,3.755,0.137
91.59,-1.93,0.137
91.63,-6.177,0.149
91.66,-10.248,-0.126
91.69,-15.021,-0.435
91.72,-19.267,-0.687
91.76,-23.409,-1.18
91.79,-27.655,-1.673
91.82,-31.866,-2.188
91.85,-36.218,-2.635
91.89,-40.886,-3.024
91.92,-45.448,-3.265
91.95,-49.8,-3.517
91.98,-54.047,-3.677
92.02,-58.153,-3.872
92.05,-62.119,-4.021
92.08,-65.979,-4.193
92.11,-69.734,-4.399
92.15,-73.314,-4.617
92.18,-76.859,-4.834
92.21,-80.614,-5.086
92.24,-84.369,-5.338
92.28,-88.264,-5.533
92.31,-92.055,-5.751
92.34,-95.88,-5.945
92.37,-99.565,-6.163
92.41,-103.18,-6.415
92.44,-106.865,-6.644
92.47,-110.339,-6.816
92.51,-113.954,-7.057
92.54,-117.464,-7.251
92.57,-121.078,-7.526
92.6,-124.728,-7.732
92.64,-128.448,-8.042
92.67,-132.169,-8.214
92.7,-135.608,-8.454
92.73,-138.451,-8.557
92.77,-141.574,-8.901
92.8,-145.224,-9.004
92.83,-149.471,-9.508
92.86,-154.84,-9.623
92.9,-157.928,-9.691
92.93,-162.0,-10.23
92.96,-165.825,-10.173
92.99,-168.913,-10.459
93.03,-172.353,-10.619
93.06,-175.476,-10.791
93.09,-178.529,-10.974
93.12,-181.653,-11.215
93.16,-184.811,-11.41
93.19,-188.145,-11.662
93.22,-191.164,-11.822
93.25,-194.603,-12.154
93.29,-197.586,-12.2
93.32,-200.464,-12.59
93.35,-204.675,-12.796
93.38,-207.307,-12.796
93.42,-210.431,-13.174
93.45,-212.08,-12.933
93.48,-214.011,-13.483
93.51,-219.872,-13.896
93.55,-224.153,-13.724
93.58,-226.469,-14.079
93.61,-228.786,-14.308
93.64,-230.751,-14.48
93.68,-232.857,-14.526
93.71,-234.647,-14.549
93.74,-236.682,-14.549
93.78,-238.998,-14.743
93.81,-241.49,-14.835
93.84,-243.982,-15.339
93.87,-246.263,-15.236
93.91,-246.228,-15.591
93.94,-253.317,-16.633
93.97,-256.371,-15.511
94.0,-256.862,-16.427
94.04,-259.845,-16.393
94.07,-261.319,-16.633
94.1,-263.565,-16.622
94.13,-264.934,-16.691
94.17,-267.355,-16.885
94.2,-269.672,-16.977
94.23,-272.163,-17.172
94.26,-274.62,-17.321
94.3,-276.55,-17.447
94.33,-278.2,-17.653
94.36,-280.165,-17.745
94.39,-281.779,-17.813
94.43,-283.324,-17.951
94.46,-284.903,-18.031
94.49,-286.447,-18.157
94.52,-288.026,-18.317
94.56,-289.746,-18.443
94.59,-291.466,-18.535
94.62,-293.15,-18.627
94.65,-294.695,-18.673
94.69,-296.204,-18.833
94.72,-297.643,-18.879
94.75,-299.117,-19.028
94.78,-300.064,-18.925
94.82,-301.117,-19.142
94.85,-302.977,-19.165
94.88,-303.609,-19.142
94.91,-304.767,-19.36
94.95,-305.855,-19.314
94.98,-306.837,-19.452
95.01,-307.82,-19.497
95.04,-308.768,-19.578
95.08,-309.54,-19.578
95.11,-310.242,-19.623
95.14,-310.838,-19.658
95.18,-311.505,-19.726
95.21,-312.137,-19.784
95.24,-312.733,-19.864
95.27,-313.4,-19.921
95.31,-314.032,-20.001
95.34,-314.594,-20.093
95.37,-315.19,-20.162
95.4,-315.857,-20.23
95.44,-316.454,-20.23
95.47,-316.945,-20.265
95.5,-317.506,-20.288
95.53,-317.963,-20.345
95.57,-318.524,-20.379
95.6,-319.051,-20.391
95.63,-319.472,-20.448
95.66,-320.033,-20.448
95.7,-320.454,-20.425
95.73,-320.981,-20.46
95.76,-321.402,-20.414
95.79,-321.893,-20.46
95.83,-321.964,-20.357
95.86,-322.139,-20.46
95.89,-322.946,-20.425
95.92,-323.122,-20.379
95.96,-323.473,-20.379
95.99,-323.718,-20.334
96.02,-324.069,-20.311
96.05,-324.28,-20.23
96.09,-324.455,-20.253
96.12,-324.631,-20.23
96.15,-324.806,-20.242
96.18,-324.982,-20.23
96.22,-325.087,-20.242
96.25,-325.262,-20.23
96.28,-325.473,-20.185
96.31,-325.613,-20.15
96.35,-325.719,-20.093
96.38,-325.789,-20.001
96.41,-325.894,-19.921
96.45,-325.964,-19.795
96.48,-325.999,-19.726
96.51,-326.07,-19.612
96.54,-325.999,-19.6
96.58,-325.964,-19.635
96.61,-326.035,-19.589
96.64,-326.035,-19.532
96.67,-325.999,-19.44
96.71,-325.929,-19.394
96.74,-325.929,-19.36
96.77,-325.789,-19.257
96.8,-325.789,-19.119
96.84,-325.684,-18.97
96.87,-325.508,-18.844
96.9,-325.192,-18.741
96.93,-324.876,-18.65
96.97,-324.596,-18.535
97.0,-324.104,-18.421
97.03,-323.438,-18.283
97.06,-322.665,-18.123
97.1,-321.472,-17.916
97.13,-319.963,-17.71
97.16,-318.279,-17.481
97.19,-316.103,-17.183
97.23,-313.611,-16.885
97.26,-310.979,-16.599
97.29,-308.311,-16.485
97.32,-305.679,-16.462
97.36,-303.328,-16.416
97.39,-300.941,-16.336
97.42,-298.415,-16.233
97.45,-295.818,-16.072
97.49,-292.975,-15.935
97.52,-290.202,-15.728
97.55,-287.254,-15.511
97.58,-284.201,-15.385
97.62,-281.569,-15.282
97.65,-278.13,-15.064
97.68,-274.725,-15.007
97.71,-271.742,-14.789
97.75,-268.408,-14.617
97.78,-265.53,-14.48
97.81,-262.407,-14.274
97.85,-259.389,-14.113
97.88,-256.125,-13.907
97.91,-253.072,-13.815
97.94,-249.948,-13.563
97.98,-246.684,-13.414
98.01,-243.596,-13.22
98.04,-240.297,-13.014
98.07,-237.138,-12.842
98.11,-233.804,-12.681
98.14,-230.576,-12.509
98.17,-227.242,-12.28
98.2,-223.907,-12.097
98.24,-220.609,-11.891
98.27,-217.204,-11.662
98.3,-213.835,-11.456
98.33,-210.396,-11.226
98.37,-206.886,-11.009
98.4,-203.271,-10.803
98.43,-199.727,-10.608
98.46,-196.112,-10.39
98.5,-192.392,-10.195
98.53,-188.637,-9.966
98.56,-184.811,-9.737
98.59,-180.951,-9.52
98.63,-177.02,-9.29
98.66,-172.949,-9.073
98.69,-168.773,-8.855
98.72,-164.597,-8.649
98.76,-160.42,-8.431
98.79,-156.139,-8.248
98.82,-151.997,-7.962
98.85,-147.681,-7.721
98.89,-143.469,-7.492
98.92,-139.188,-7.228
98.95,-134.695,-7.011
98.98,-130.309,-6.747
99.02,-125.781,-6.564
99.05,-121.324,-6.358
99.08,-116.832,-6.06
99.12,-112.234,-5.854
99.15,-107.848,-5.602
99.18,-103.32,-5.35
99.21,-98.758,-5.098
99.25,-94.336,-4.823
99.28,-89.633,-4.605
99.31,-85.071,-4.422
99.34,-80.508,-4.216
99.38,-76.086,-3.987
99.41,-71.489,-3.746
99.44,-66.927,-3.505
99.47,-62.399,-3.288
99.51,-57.942,-3.024
99.54,-53.239,-2.772
99.57,-48.642,-2.566
99.6,-44.009,-2.303
99.64,-39.236,-2.108
99.67,-34.674,-1.89
99.7,-30.077,-1.695
99.73,-25.444,-1.489
99.77,-20.917,-1.272
99.8,-16.389,-1.042
99.83,-12.108,-0.859
99.86,-7.616,-0.619
99.9,-3.299,-0.435
99.93,1.263,-0.218
99.96,5.615,-0.103
99.99,10.458,0.126
100.03,13.757,0.126
100.06,19.057,0.997
100.09,24.216,0.916
100.12,26.813,1.489
100.16,31.656,2.28
100.19,36.394,2.623
100.22,40.71,3.036
100.25,45.027,3.345
100.29,49.59,3.551
100.32,53.661,3.7
100.35,57.837,3.895
100.38,61.873,4.032
100.42,65.839,4.17
100.45,69.629,4.387
100.48,73.314,4.582
100.52,76.894,4.846
100.55,80.684,5.098
100.58,84.509,5.327
100.61,88.264,5.567
100.65,92.02,5.785
100.68,95.81,5.98
100.71,99.53,6.209
100.74,103.25,6.427
100.78,106.97,6.621
100.81,110.48,6.816
100.84,113.919,7.034
100.87,117.534,7.263
100.91,121.254,7.458
100.94,125.009,7.675
100.97,128.694,7.939
101.0,132.449,8.122
101.04,135.783,8.363
101.07,138.696,8.523
101.1,141.609,8.832
101.13,145.47,9.176
101.17,149.927,9.451
101.2,154.314,9.691
101.23,158.736,9.955
101.26,162.561,10.115
101.3,165.965,10.367
101.33,169.299,10.516
101.36,172.704,10.722
101.39,175.932,10.825
101.43,179.372,11.112
101.46,182.109,11.112
101.49,184.811,11.536
101.52,189.233,11.742
101.56,191.62,11.696
101.59,194.954,12.223
101.62,198.393,12.235
101.65,201.341,12.567
101.69,204.816,12.807
101.72,207.904,12.979
101.75,210.922,13.197
101.79,212.888,13.117
101.82,214.046,13.323
101.85,218.994,14.022
101.88,224.188,13.861
101.92,226.996,14.136
101.95,229.768,14.205
101.98,231.383,14.285
102.01,233.208,14.423
102.05,235.278,14.56
102.08,237.209,14.606
102.11,239.384,14.949
102.14,242.017,14.995
102.18,244.754,15.431
102.21,247.176,15.19
102.24,246.86,15.557
102.27,253.352,16.507
102.31,256.02,15.625
102.34,257.072,16.553
102.37,260.161,16.381
102.4,261.6,16.691
102.44,264.127,16.737
102.47,265.179,16.725
102.5,267.039,17.0
102.53,269.531,17.115
102.57,272.093,17.298
102.6,274.76,17.504
102.63,276.936,17.561
102.66,278.656,17.722
102.7,280.446,17.848
102.73,282.025,17.974
102.76,283.569,18.088
102.79,285.254,18.214
102.83,286.868,18.283
102.86,288.483,18.375
102.89,290.097,18.455
102.92,291.747,18.535
102.96,293.291,18.627
102.99,294.975,18.741
103.02,296.449,18.856
103.05,298.064,18.89
103.09,298.344,18.867
103.12,300.485,19.291
103.15,301.819,18.982
103.19,302.486,19.314
103.22,304.03,19.257
103.25,304.732,19.348
103.28,306.065,19.44
103.32,306.943,19.486
103.35,307.89,19.623
103.38,308.733,19.692
103.41,309.505,19.784
103.45,310.207,19.852
103.48,310.909,19.841
103.51,311.54,19.887
103.54,312.207,19.933
103.58,312.769,20.013
103.61,313.4,20.093
103.64,314.032,20.116
103.67,314.664,20.219
103.71,315.26,20.265
103.74,315.927,20.253
103.77,316.454,20.276
103.8,316.98,20.345
103.84,317.436,20.414
103.87,317.998,20.471
103.9,318.524,20.471
103.93,319.051,20.528
103.97,319.507,20.54
104.0,319.998,20.563
104.03,320.595,20.517
104.06,321.086,20.448
104.1,321.542,20.391
104.13,321.964,20.345
104.16,321.928,20.276
104.19,322.42,20.425
104.23,322.981,20.334
104.26,323.122,20.402
104.29,323.543,20.368
104.32,323.753,20.379
104.36,324.104,20.357
104.39,324.28,20.311
104.42,324.525,20.322
104.46,324.701,20.276
104.49,324.911,20.357
104.52,324.911,20.322
104.55,324.876,20.357
104.59,325.262,20.345
104.62,325.403,20.276
104.65,325.648,20.242
104.68,325.719,20.173
104.72,325.859,20.093
104.75,325.964,19.978
104.78,326.035,19.91
104.81,326.035,19.864
104.85,326.105,19.818
104.88,326.105,19.726
104.91,326.07,19.704
104.94,326.07,19.681
104.98,326.14,19.635
105.01,326.105,19.555
105.04,326.07,19.452
105.07,325.964,19.406
105.11,325.964,19.314
105.14,325.929,19.142
105.17,325.754,19.016
105.2,325.578,18.879
105.24,325.262,18.799
105.27,325.052,18.661
105.3,324.701,18.489
105.33,324.28,18.317
105.37,323.543,18.168
105.4,322.665,18.088
105.43,321.472,17.939
105.46,320.103,17.733
105.5,318.384,17.527
105.53,315.997,17.309
105.56,313.33,17.172
105.59,310.768,17.0
105.63,308.206,16.828
105.66,305.75,16.725
105.69,303.539,16.633
105.72,301.187,16.507
105.76,298.766,16.37
105.79,296.098,16.198
105.82,293.256,16.003
105.86,290.273,15.866
105.89,287.149,15.717
105.92,284.026,15.534
105.95,280.902,15.396
105.99,277.779,15.213
106.02,274.55,14.995
106.05,271.426,14.846
106.08,268.338,14.686
106.12,265.32,14.56
106.15,262.337,14.411
106.18,259.389,14.216
106.21,256.371,13.999
106.25,253.212,13.77
106.28,250.018,13.563
106.31,246.79,13.357
106.34,243.596,13.151
106.38,240.297,13.014
106.41,237.103,12.819
106.44,233.839,12.624
106.47,230.611,12.429
106.51,227.382,12.212
106.54,223.978,12.028
106.57,220.679,11.845
106.6,217.345,11.662
106.64,213.87,11.49
106.67,210.536,11.295
106.7,206.992,11.078
106.73,203.447,10.883
106.77,199.867,10.665
106.8,196.217,10.447
106.83,192.567,10.23
106.86,188.847,10.024
106.9,184.987,9.783
106.93,181.126,9.531
106.96,177.126,9.302
106.99,173.09,9.073
107.03,168.983,8.821
107.06,164.737,8.603
107.09,160.561,8.374
107.13,156.244,8.145
107.16,151.927,7.962
107.19,147.681,7.755
107.22,143.399,7.538
107.26,139.012,7.32
107.29,134.695,7.068
107.32,130.309,6.793
107.35,125.816,6.541
107.39,121.465,6.243
107.42,116.762,6.026
107.45,112.27,5.854
107.48,107.812,5.602
107.52,103.215,5.384
107.55,98.723,5.166
107.58,94.16,4.926
107.61,89.703,4.685
107.65,85.141,4.422
107.68,80.614,4.227
107.71,76.157,4.009
107.74,71.594,3.792
107.78,66.997,3.54
107.81,62.434,3.311
107.84,57.767,3.059
107.87,53.239,2.852
107.91,48.502,2.589
107.94,43.974,2.406
107.97,39.166,2.085
108.0,34.639,1.959
108.04,29.796,1.638
108.07,26.076,1.684
108.1,21.373,1.02
108.13,15.337,1.02
108.17,12.424,1.031
108.2,7.896,0.424
108.23,2.562,0.401
108.26,-1.474,0.332
108.3,-5.756,0.023
108.33,-10.634,-0.149
108.36,-14.81,-0.344
108.39,-19.127,-0.756
108.43,-23.444,-1.157
108.46,-27.62,-1.673
108.49,-31.726,-2.222
108.53,-36.148,-2.704
108.56,-40.886,-3.024
108.59,-45.378,-3.276
108.62,-49.695,-3.505
108.66,-53.941,-3.654
108.69,-57.977,-3.803
108.72,-61.978,-3.975
108.75,-65.839,-4.135
108.79,-69.629,-4.342
108.82,-73.279,-4.582
108.85,-76.964,-4.811
108.88,-80.719,-5.029
108.92,-84.334,-5.258
108.95,-88.054,-5.51
108.98,-91.844,-5.739
109.01,-95.705,-5.98
109.05,-99.495,-6.197
109.08,-103.075,-6.461
109.11,-106.725,-6.679
109.14,-110.445,-6.85
109.18,-113.954,-7.011
109.21,-117.534,-7.274
109.24,-121.219,-7.423
109.27,-124.834,-7.687
109.31,-128.448,-7.893
109.34,-132.239,-8.156
109.37,-135.468,-8.34
109.4,-138.626,-8.592
109.44,-140.907,-8.66
109.47,-145.119,-9.336
109.5,-150.418,-9.348
109.53,-153.717,-9.611
109.57,-158.35,-10.127
109.6,-162.28,-10.127
109.63,-165.685,-10.39
109.66,-169.264,-10.493
109.7,-172.458,-10.642
109.73,-175.616,-10.803
109.76,-178.88,-10.986
109.8,-181.969,-11.169
109.83,-185.092,-11.398
109.86,-188.216,-11.593
109.89,-191.515,-11.834
109.93,-194.849,-11.994
109.96,-197.375,-12.154
109.99,-201.166,-12.613
110.02,-204.816,-12.544
110.06,-207.237,-12.876
110.09,-210.852,-13.128
110.12,-212.221,-12.887
110.15,-214.116,-13.46
110.19,-219.801,-13.884
110.22,-224.083,-13.77
110.25,-226.61,-14.113
110.28,-228.856,-14.319
110.32,-230.786,-14.468
110.35,-232.857,-14.491
110.38,-234.752,-14.537
110.41,-236.963,-14.491
110.45,-239.279,-14.64
110.48,-241.736,-14.778
110.51,-244.263,-15.224
110.54,-246.474,-15.087
110.58,-246.333,-15.476
110.61,-253.458,-16.576
110.64,-256.23,-15.499
110.67,-256.686,-16.496
110.71,-259.845,-16.416
110.74,-261.179,-16.668
110.77,-263.495,-16.748
110.8,-264.793,-16.714
110.84,-267.004,-16.943
110.87,-269.496,-17.011
110.9,-272.128,-17.218
110.93,-274.69,-17.39
110.97,-276.62,-17.516
111.0,-278.27,-17.745
111.03,-280.165,-17.848
111.06,-281.815,-17.905
111.1,-283.499,-17.951
111.13,-285.219,-18.02
111.16,-286.833,-18.077
111.2,-288.448,-18.18
111.23,-290.027,-18.283
111.26,-291.711,-18.421
111.29,-293.256,-18.535
111.33,-294.8,-18.684
111.36,-296.239,-18.764
111.39,-297.748,-18.936
111.42,-298.73,-18.867
111.46,-299.924,-19.154
111.49,-301.749,-19.154
111.52,-302.451,-19.165
111.55,-303.714,-19.291
111.59,-304.732,-19.268
111.62,-305.785,-19.394
111.65,-306.767,-19.452
111.68,-307.82,-19.543
111.72,-308.698,-19.555
111.75,-309.54,-19.635
111.78,-310.242,-19.704
111.81,-310.873,-19.784
111.85,-311.54,-19.887
111.88,-312.207,-19.933
111.91,-312.769,-20.013
111.94,-313.576,-20.059
111.98,-314.067,-20.059
112.01,-314.664,-20.196
112.04,-315.366,-20.162
112.07,-315.892,-20.23
112.11,-316.489,-20.242
112.14,-316.98,-20.276
112.17,-317.436,-20.311
112.2,-317.998,-20.368
112.24,-318.629,-20.311
112.27,-319.051,-20.345
112.3,-319.577,-20.368
112.33,-320.033,-20.379
112.37,-320.525,-20.402
112.4,-320.981,-20.448
112.43,-321.367,-20.471
112.46,-321.964,-20.483
112.5,-322.104,-20.334
112.53,-322.174,-20.357
112.56,-322.771,-20.334
112.6,-322.946,-20.334
112.63,-323.402,-20.391
112.66,-323.648,-20.345
112.69,-323.964,-20.402
112.73,-324.245,-20.322
112.76,-324.385,-20.368
112.79,-324.666,-20.242
112.82,-324.771,-20.23
112.86,-324.982,-20.219
112.89,-325.122,-20.162
112.92,-325.298,-20.173
112.95,-325.403,-20.162
112.99,-325.543,-20.15
113.02,-325.684,-20.093
113.05,-325.719,-20.059
113.08,-325.789,-20.001
113.12,-325.824,-19.956
113.15,-325.929,-19.921
113.18,-325.964,-19.864
113.21,-325.964,-19.807
113.25,-325.999,-19.749
113.28,-326.035,-19.635
113.31,-325.964,-19.578
113.34,-326.035,-19.474
113.38,-325.999,-19.314
113.41,-325.894,-19.268
113.44,-325.859,-19.165
113.47,-325.754,-19.085
113.51,-325.648,-18.97
113.54,-325.438,-18.867
113.57,-325.227,-18.753
113.6,-324.947,-18.592
113.64,-324.561,-18.512
113.67,-324.174,-18.386
113.7,-323.473,-18.226
113.73,-322.665,-18.111
113.77,-321.437,-17.916
113.8,-319.893,-17.79
113.83,-318.243,-17.573
113.87,-316.138,-17.241
113.9,-313.611,-16.92
113.93,-310.909,-16.679
113.96,-308.311,-16.553
114.0,-305.855,-16.542
114.03,-303.609,-16.473
114.06,-301.152,-16.359
114.09,-298.66,-16.244
114.13,-295.993,-16.049
114.16,-293.185,-15.877
114.19,-290.273,-15.74
114.22,-287.254,-15.568
114.26,-284.166,-15.419
114.29,-281.218,-15.224
114.32,-277.884,-15.064
114.35,-274.655,-14.927
114.39,-271.497,-14.789
114.42,-268.373,-14.64
114.45,-265.285,-14.514
114.48,-262.337,-14.331
114.52,-259.248,-14.125
114.55,-256.16,-13.964
114.58,-253.072,-13.792
114.61,-249.843,-13.621
114.65,-246.719,-13.46
114.68,-243.596,-13.243
114.71,-240.332,-13.048
114.74,-237.138,-12.853
114.78,-233.875,-12.624
114.81,-230.646,-12.418
114.84,-227.312,-12.212
114.87,-223.943,-12.028
114.91,-220.609,-11.834
114.94,-217.274,-11.639
114.97,-213.8,-11.421
115.0,-210.326,-11.192
115.04,-206.816,-10.997
115.07,-203.307,-10.791
115.1,-199.622,-10.631
115.13,-196.042,-10.436
115.17,-192.322,-10.23
115.2,-188.567,-10.058
115.23,-184.741,-9.852
115.27,-180.881,-9.623
115.3,-176.915,-9.371
115.33,-172.879,-9.107
115.36,-168.703,-8.867
115.4,-164.632,-8.672
115.43,-160.596,-8.42
115.46,-156.279,-8.248
115.49,-152.138,-8.03
115.53,-147.891,-7.755
115.56,-143.469,-7.538
115.59,-139.223,-7.263
115.62,-134.731,-6.999
115.66,-130.344,-6.713
115.69,-125.851,-6.438
115.72,-121.289,-6.22
115.75,-116.727,-6.026
115.79,-112.199,-5.831
115.82,-107.742,-5.613
115.85,-103.215,-5.384
115.88,-98.688,-5.144
115.92,-94.196,-4.926
115.95,-89.668,-4.651
115.98,-85.106,-4.41
116.01,-80.614,-4.193
116.05,-76.192,-3.929
116.08,-71.559,-3.735
116.11,-66.962,-3.505
116.14,-62.294,-3.288
116.18,-57.697,-3.059
116.21,-53.169,-2.841
116.24,-48.537,-2.566
116.27,-43.904,-2.36
116.31,-39.236,-2.096
116.34,-34.569,-1.936
116.37,-30.077,-1.718
116.4,-25.549,-1.489
116.44,-20.917,-1.283
116.47,-16.46,-1.1
116.5,-12.038,-0.871
116.54,-7.686,-0.687
116.57,-3.229,-0.401
116.6,1.158,-0.263
116.63,5.826,-0.046
116.67,10.178,0.034
