Trigger_Date,2023/07/31
Trigger_Time,T 22:19:44.846 PDT
Samples_Per_Cycle,512
Microseconds_Per_Sample,32.553
Time (ms),Voltage (V),Current (A)
-16.67,12.74,0.149
-16.63,17.091,0.458
-16.6,21.338,0.825
-16.57,25.479,1.283
-16.54,29.691,1.867
-16.5,33.867,2.36
-16.47,38.429,2.818
-16.44,42.921,3.127
-16.41,47.203,3.402
-16.37,51.59,3.631
-16.34,55.801,3.792
-16.31,59.872,3.941
-16.28,63.908,4.124
-16.24,67.909,4.227
-16.21,71.594,4.376
-16.18,75.174,4.582
-16.15,78.648,4.8
-16.11,82.228,5.086
-16.08,85.948,5.338
-16.05,89.598,5.567
-16.02,93.248,5.831
-15.98,97.073,6.083
-15.95,100.758,6.243
-15.92,104.338,6.472
-15.89,108.058,6.667
-15.85,111.638,6.896
-15.82,115.323,7.137
-15.79,118.973,7.4
-15.76,122.588,7.664
-15.72,126.308,7.927
-15.69,129.993,8.133
-15.66,133.818,8.374
-15.63,137.257,8.466
-15.59,139.96,8.626
-15.56,143.224,8.924
-15.53,147.716,9.268
-15.5,151.857,9.428
-15.46,156.525,9.852
-15.43,159.964,9.772
-15.4,163.333,10.367
-15.37,168.422,10.39
-15.33,170.738,10.344
-15.3,174.423,10.825
-15.27,178.038,10.722
-15.24,180.811,11.055
-15.2,184.285,11.226
-15.17,187.408,11.433
-15.14,190.497,11.673
-15.1,193.866,11.925
-15.07,197.13,12.131
-15.04,200.288,12.349
-15.01,203.342,12.521
-14.97,206.465,12.727
-14.94,209.729,12.945
-14.91,212.852,13.094
-14.88,214.046,12.979
-14.84,216.537,13.655
-14.81,222.469,13.93
-14.78,226.259,13.873
-14.75,228.821,14.193
-14.71,231.277,14.262
-14.68,233.243,14.365
-14.65,235.349,14.445
-14.62,237.314,14.514
-14.58,239.314,14.709
-14.55,241.771,14.949
-14.52,244.368,15.156
-14.49,247.176,15.442
-14.45,250.124,15.66
-14.42,252.826,15.82
-14.39,255.493,16.003
-14.36,258.055,16.129
-14.32,260.336,16.267
-14.29,262.723,16.416
-14.26,264.758,16.542
-14.23,266.689,16.714
-14.19,268.584,16.84
-14.16,270.409,17.0
-14.13,272.234,17.16
-14.1,274.234,17.275
-14.06,276.164,17.367
-14.03,278.235,17.481
-14.0,280.2,17.607
-13.97,282.166,17.779
-13.93,284.131,17.951
-13.9,286.026,18.065
-13.87,287.886,18.168
-13.84,289.571,18.26
-13.8,291.255,18.398
-13.77,292.94,18.432
-13.74,294.589,18.535
-13.7,295.958,18.581
-13.67,297.432,18.718
-13.64,298.45,18.799
-13.61,300.134,18.982
-13.57,300.38,18.833
-13.54,302.38,19.429
-13.51,304.276,19.154
-13.48,304.697,19.532
-13.44,306.802,19.463
-13.41,307.188,19.44
-13.38,308.662,19.681
-13.35,309.715,19.589
-13.31,310.593,19.715
-13.28,311.505,19.681
-13.25,312.102,19.784
-13.22,312.839,19.852
-13.18,313.47,19.898
-13.15,314.032,19.956
-13.12,314.769,20.013
-13.09,315.295,20.047
-13.05,315.927,20.082
-13.02,316.524,20.104
-12.99,317.12,20.15
-12.96,317.717,20.185
-12.92,318.243,20.23
-12.89,318.735,20.322
-12.86,319.261,20.357
-12.83,319.682,20.357
-12.79,320.279,20.322
-12.76,320.735,20.299
-12.73,321.191,20.299
-12.7,321.542,20.368
-12.66,321.999,20.46
-12.63,322.49,20.448
-12.6,322.876,20.483
-12.57,323.262,20.494
-12.53,323.648,20.505
-12.5,324.139,20.448
-12.47,324.49,20.322
-12.44,324.771,20.185
-12.4,324.841,20.299
-12.37,325.227,20.345
-12.34,325.508,20.357
-12.31,325.789,20.368
-12.27,325.964,20.322
-12.24,326.07,20.402
-12.21,326.35,20.391
-12.17,326.631,20.276
-12.14,326.772,20.162
-12.11,326.947,20.15
-12.08,327.087,20.07
-12.04,327.193,20.093
-12.01,327.368,20.036
-11.98,327.368,19.99
-11.95,327.473,20.001
-11.91,327.544,19.967
-11.88,327.649,19.887
-11.85,327.719,19.738
-11.82,327.719,19.635
-11.78,327.684,19.6
-11.75,327.684,19.566
-11.72,327.649,19.589
-11.69,327.719,19.509
-11.65,327.614,19.429
-11.62,327.579,19.406
-11.59,327.509,19.337
-11.56,327.438,19.28
-11.52,327.403,19.119
-11.49,327.263,18.947
-11.46,326.877,18.833
-11.43,326.526,18.776
-11.39,326.21,18.661
-11.36,325.719,18.558
-11.33,325.017,18.409
-11.3,324.21,18.226
-11.26,323.016,18.065
-11.23,321.613,17.882
-11.2,319.928,17.699
-11.17,317.682,17.481
-11.13,315.295,17.332
-11.1,312.979,17.183
-11.07,310.487,17.0
-11.04,307.82,16.817
-11.0,305.223,16.702
-10.97,302.802,16.576
-10.94,300.38,16.416
-10.91,297.888,16.21
-10.87,295.256,15.992
-10.84,292.308,15.797
-10.81,289.36,15.625
-10.78,286.166,15.465
-10.74,282.903,15.35
-10.71,279.814,15.19
-10.68,276.515,15.041
-10.64,273.286,14.915
-10.61,270.303,14.778
-10.58,267.426,14.629
-10.55,264.653,14.468
-10.51,261.74,14.319
-10.48,258.757,14.148
-10.45,255.634,13.953
-10.42,252.44,13.804
-10.38,249.281,13.609
-10.35,246.088,13.414
-10.32,242.894,13.22
-10.29,239.665,12.991
-10.25,236.331,12.796
-10.22,233.102,12.601
-10.19,229.839,12.406
-10.16,226.505,12.223
-10.12,223.17,12.051
-10.09,219.942,11.834
-10.06,216.573,11.627
-10.03,213.203,11.456
-9.99,209.799,11.272
-9.96,206.395,11.078
-9.93,202.78,10.837
-9.9,199.165,10.619
-9.86,195.551,10.344
-9.83,191.69,10.115
-9.8,188.005,9.898
-9.77,184.215,9.657
-9.73,180.179,9.439
-9.7,176.108,9.256
-9.67,172.072,9.027
-9.64,167.966,8.752
-9.6,163.86,8.489
-9.57,159.613,8.225
-9.54,155.296,7.962
-9.51,150.98,7.744
-9.47,146.628,7.526
-9.44,142.136,7.32
-9.41,137.643,7.137
-9.38,133.221,6.896
-9.34,128.694,6.644
-9.31,124.167,6.381
-9.28,119.64,6.129
-9.25,115.077,5.911
-9.21,110.515,5.682
-9.18,106.058,5.464
-9.15,101.39,5.258
-9.11,96.758,5.098
-9.08,92.23,4.88
-9.05,87.773,4.662
-9.02,83.351,4.387
-8.98,78.789,4.101
-8.95,74.226,3.872
-8.92,69.699,3.643
-8.89,65.137,3.437
-8.85,60.574,3.185
-8.82,55.942,2.967
-8.79,51.274,2.738
-8.76,46.677,2.509
-8.72,42.009,2.337
-8.69,37.411,2.085
-8.66,32.884,1.833
-8.63,28.357,1.546
-8.59,23.759,1.294
-8.56,19.092,1.1
-8.53,14.459,0.916
-8.5,9.897,0.722
-8.46,5.334,0.561
-8.43,0.702,0.389
-8.4,-3.825,0.195
-8.37,-8.423,0.011
-8.33,-12.915,-0.218
-8.3,-17.267,-0.527
-8.27,-21.548,-0.916
-8.24,-25.62,-1.386
-8.2,-29.866,-1.947
-8.17,-34.077,-2.451
-8.14,-38.64,-2.852
-8.11,-43.307,-3.104
-8.07,-47.624,-3.299
-8.04,-51.906,-3.528
-8.01,-56.152,-3.677
-7.98,-60.048,-3.849
-7.94,-64.014,-4.032
-7.91,-67.839,-4.181
-7.88,-71.559,-4.376
-7.85,-75.139,-4.582
-7.81,-78.789,-4.8
-7.78,-82.474,-5.04
-7.75,-86.124,-5.258
-7.72,-89.738,-5.556
-7.68,-93.423,-5.831
-7.65,-97.144,-6.094
-7.62,-100.864,-6.301
-7.58,-104.478,-6.507
-7.55,-108.023,-6.736
-7.52,-111.708,-6.954
-7.49,-115.253,-7.171
-7.45,-118.832,-7.4
-7.42,-122.517,-7.629
-7.39,-126.202,-7.87
-7.36,-129.922,-8.122
-7.32,-133.607,-8.317
-7.29,-136.836,-8.5
-7.26,-139.749,-8.603
-7.23,-143.048,-8.935
-7.19,-147.33,-9.187
-7.16,-151.611,-9.52
-7.13,-156.033,-9.703
-7.1,-159.016,-9.898
-7.06,-164.0,-10.47
-7.03,-167.439,-10.184
-7.0,-170.107,-10.677
-6.97,-174.213,-10.791
-6.93,-177.266,-10.871
-6.9,-180.46,-11.1
-6.87,-183.794,-11.295
-6.84,-186.952,-11.444
-6.8,-190.181,-11.696
-6.77,-193.34,-11.891
-6.74,-196.603,-12.189
-6.71,-199.271,-12.257
-6.67,-202.675,-12.75
-6.64,-206.606,-12.693
-6.61,-209.132,-12.945
-6.58,-212.396,-13.082
-6.54,-213.239,-12.968
-6.51,-216.853,-13.781
-6.48,-222.82,-13.77
-6.45,-225.873,-13.792
-6.41,-228.119,-14.205
-6.38,-230.365,-14.423
-6.35,-232.471,-14.549
-6.32,-234.682,-14.56
-6.28,-236.542,-14.537
-6.25,-238.788,-14.606
-6.22,-241.28,-14.789
-6.19,-243.771,-15.075
-6.15,-246.579,-15.373
-6.12,-249.352,-15.637
-6.09,-252.37,-15.889
-6.05,-255.353,-16.061
-6.02,-257.809,-16.198
-5.99,-260.126,-16.359
-5.96,-262.372,-16.439
-5.92,-264.407,-16.507
-5.89,-266.338,-16.588
-5.86,-268.268,-16.679
-5.83,-270.128,-16.794
-5.79,-271.953,-16.989
-5.76,-273.778,-17.149
-5.73,-275.743,-17.332
-5.7,-277.744,-17.504
-5.66,-279.814,-17.63
-5.63,-281.85,-17.768
-5.6,-283.885,-17.882
-5.57,-285.78,-18.008
-5.53,-287.605,-18.1
-5.5,-289.395,-18.226
-5.47,-291.115,-18.34
-5.44,-292.729,-18.466
-5.4,-294.379,-18.558
-5.37,-295.782,-18.673
-5.34,-297.292,-18.787
-5.31,-298.625,-18.833
-5.27,-299.889,-18.902
-5.24,-301.117,-19.005
-5.21,-302.451,-19.073
-5.18,-303.644,-19.165
-5.14,-304.872,-19.257
-5.11,-306.136,-19.303
-5.08,-307.259,-19.406
-5.05,-308.382,-19.474
-5.01,-309.435,-19.566
-4.98,-310.347,-19.646
-4.95,-311.295,-19.669
-4.92,-312.067,-19.669
-4.88,-312.804,-19.704
-4.85,-313.435,-19.749
-4.82,-313.997,-19.841
-4.79,-314.699,-19.898
-4.75,-315.366,-19.875
-4.72,-315.927,-19.875
-4.69,-316.524,-19.921
-4.66,-317.12,-19.978
-4.62,-317.717,-20.001
-4.59,-318.279,-20.024
-4.56,-318.735,-20.127
-4.52,-319.086,-20.162
-4.49,-319.542,-20.265
-4.46,-320.139,-20.322
-4.43,-320.63,-20.322
-4.39,-321.121,-20.345
-4.36,-321.507,-20.345
-4.33,-321.964,-20.402
-4.3,-322.455,-20.391
-4.26,-322.841,-20.368
-4.23,-323.122,-20.425
-4.2,-323.543,-20.46
-4.17,-323.788,-20.517
-4.13,-324.245,-20.517
-4.1,-324.525,-20.494
-4.07,-324.771,-20.505
-4.04,-325.017,-20.505
-4.0,-325.368,-20.448
-3.97,-325.648,-20.379
-3.94,-325.894,-20.322
-3.91,-326.07,-20.265
-3.87,-326.21,-20.265
-3.84,-326.35,-20.253
-3.81,-326.526,-20.265
-3.78,-326.701,-20.242
-3.74,-326.842,-20.185
-3.71,-326.982,-20.104
-3.68,-327.052,-20.07
-3.65,-327.193,-20.024
-3.61,-327.263,-19.978
-3.58,-327.333,-19.933
-3.55,-327.403,-19.887
-3.52,-327.473,-19.807
-3.48,-327.473,-19.692
-3.45,-327.509,-19.635
-3.42,-327.509,-19.566
-3.39,-327.649,-19.474
-3.35,-327.614,-19.348
-3.32,-327.438,-19.303
-3.29,-327.579,-19.257
-3.26,-327.403,-19.131
-3.22,-327.368,-19.154
-3.19,-327.228,-18.959
-3.16,-326.982,-18.97
-3.13,-326.877,-18.844
-3.09,-326.385,-18.776
-3.06,-326.21,-18.65
-3.03,-325.613,-18.432
-2.99,-325.052,-18.329
-2.96,-324.104,-18.123
-2.93,-322.946,-18.008
-2.9,-321.507,-17.802
-2.86,-319.717,-17.642
-2.83,-317.471,-17.424
-2.8,-315.085,-17.229
-2.77,-312.733,-17.034
-2.73,-310.207,-16.828
-2.7,-307.61,-16.691
-2.67,-305.013,-16.542
-2.64,-302.591,-16.439
-2.6,-300.134,-16.313
-2.57,-297.467,-16.221
-2.54,-294.835,-16.095
-2.51,-291.992,-15.912
-2.47,-288.939,-15.774
-2.44,-285.956,-15.58
-2.41,-282.903,-15.328
-2.38,-279.744,-15.121
-2.34,-276.55,-14.949
-2.31,-273.322,-14.823
-2.28,-270.233,-14.709
-2.25,-267.285,-14.571
-2.21,-264.407,-14.445
-2.18,-261.565,-14.274
-2.15,-258.582,-14.09
-2.12,-255.493,-13.907
-2.08,-252.405,-13.689
-2.05,-249.246,-13.472
-2.02,-246.017,-13.277
-1.99,-242.824,-13.082
-1.95,-239.525,-12.899
-1.92,-236.261,-12.75
-1.89,-232.997,-12.555
-1.86,-229.663,-12.372
-1.82,-226.434,-12.189
-1.79,-223.1,-11.983
-1.76,-219.872,-11.765
-1.73,-216.467,-11.559
-1.69,-213.063,-11.387
-1.66,-209.729,-11.158
-1.63,-206.114,-10.952
-1.6,-202.57,-10.768
-1.56,-198.955,-10.539
-1.53,-195.34,-10.333
-1.5,-191.55,-10.092
-1.46,-187.794,-9.863
-1.43,-183.934,-9.623
-1.4,-180.038,-9.371
-1.37,-175.967,-9.164
-1.33,-171.967,-8.947
-1.3,-167.825,-8.741
-1.27,-163.614,-8.557
-1.24,-159.402,-8.351
-1.2,-155.156,-8.122
-1.17,-150.909,-7.881
-1.14,-146.663,-7.606
-1.11,-142.276,-7.332
-1.07,-137.784,-7.102
-1.04,-133.257,-6.908
-1.01,-128.659,-6.724
-0.98,-124.132,-6.484
-0.94,-119.604,-6.255
-0.91,-115.007,-6.014
-0.88,-110.48,-5.751
-0.85,-105.988,-5.533
-0.81,-101.495,-5.247
-0.78,-96.933,-4.983
-0.75,-92.336,-4.777
-0.72,-87.843,-4.571
-0.68,-83.246,-4.387
-0.65,-78.683,-4.17
-0.62,-74.226,-3.918
-0.59,-69.629,-3.689
-0.55,-65.031,-3.494
-0.52,-60.574,-3.219
-0.49,-55.942,-3.013
-0.46,-51.379,-2.761
-0.42,-46.747,-2.532
-0.39,-42.079,-2.325
-0.36,-37.482,-2.085
-0.33,-32.919,-1.867
-0.29,-28.427,-1.581
-0.26,-23.759,-1.317
-0.23,-19.127,-1.134
-0.2,-14.635,-0.894
-0.16,-10.107,-0.676
-0.13,-5.685,-0.447
-0.1,-1.053,-0.252
-0.07,3.58,-0.149
-0.03,8.212,-0.034
0.0,12.634,0.172
0.03,17.056,0.493
0.07,21.408,0.859
0.1,25.479,1.329
0.13,29.726,1.879
0.16,33.797,2.417
0.2,38.324,2.887
0.23,42.992,3.185
0.26,47.379,3.345
0.29,51.765,3.517
0.33,55.907,3.654
0.36,59.908,3.838
0.39,63.768,4.032
0.42,67.628,4.204
0.46,71.384,4.41
0.49,74.963,4.662
0.52,78.648,4.88
0.55,82.228,5.098
0.59,85.983,5.327
0.62,89.738,5.544
0.65,93.423,5.762
0.68,97.073,6.003
0.72,100.723,6.243
0.75,104.408,6.484
0.78,108.128,6.679
0.81,111.708,6.908
0.85,115.288,7.194
0.88,119.078,7.389
0.91,122.728,7.549
0.94,126.413,7.801
0.98,130.098,8.03
1.01,133.853,8.317
1.04,137.222,8.466
1.07,139.995,8.637
1.11,143.118,8.924
1.14,147.4,9.302
1.17,151.752,9.531
1.2,156.525,9.932
1.24,160.069,9.84
1.27,163.333,10.379
1.3,168.317,10.482
1.33,170.598,10.402
1.37,174.037,10.974
1.4,178.003,10.86
1.43,180.846,11.135
1.46,184.215,11.318
1.5,187.303,11.467
1.53,190.356,11.719
1.56,193.761,11.902
1.6,196.954,12.097
1.63,200.218,12.338
1.66,203.342,12.498
1.69,206.465,12.739
1.73,209.729,12.968
1.76,212.817,13.117
1.79,213.835,13.048
1.82,216.327,13.689
1.86,222.328,13.987
1.89,226.469,13.861
1.92,229.066,14.125
1.95,231.313,14.193
1.99,233.067,14.342
2.02,235.103,14.514
2.05,237.244,14.606
2.08,239.244,14.812
2.12,241.736,15.03
2.15,244.543,15.167
2.18,247.456,15.362
2.21,250.194,15.58
2.25,252.791,15.797
2.28,255.458,16.015
2.31,258.055,16.152
2.34,260.301,16.301
2.38,262.547,16.485
2.41,264.653,16.588
2.44,266.583,16.714
2.47,268.584,16.794
2.51,270.444,16.908
2.54,272.339,17.057
2.57,274.304,17.218
2.6,276.164,17.378
2.64,278.165,17.561
2.67,280.165,17.71
2.7,282.13,17.871
2.73,284.096,18.02
2.77,286.026,18.1
2.8,287.781,18.168
2.83,289.536,18.295
2.86,291.185,18.375
2.9,292.764,18.558
2.93,294.414,18.615
2.96,295.958,18.741
2.99,297.327,18.776
3.03,298.625,18.993
3.06,300.029,18.913
3.09,300.415,18.993
3.13,303.223,19.268
3.16,303.995,18.936
3.19,305.048,19.44
3.22,306.522,19.314
3.26,307.364,19.6
3.29,308.768,19.543
3.32,309.47,19.635
3.35,310.522,19.692
3.39,311.259,19.715
3.42,312.102,19.772
3.45,312.839,19.772
3.48,313.47,19.818
3.52,314.137,19.864
3.55,314.734,19.887
3.58,315.295,19.978
3.61,315.822,20.07
3.65,316.489,20.139
3.68,317.05,20.185
3.71,317.647,20.23
3.74,318.279,20.253
3.78,318.84,20.276
3.81,319.261,20.219
3.84,319.612,20.334
3.87,320.209,20.391
3.91,320.63,20.402
3.94,321.121,20.448
3.97,321.507,20.483
4.0,322.069,20.517
4.04,322.595,20.448
4.07,322.981,20.379
4.1,323.332,20.345
4.13,323.648,20.357
4.17,323.964,20.46
4.2,324.35,20.471
4.23,324.666,20.46
4.26,324.947,20.448
4.3,325.262,20.448
4.33,325.613,20.402
4.36,325.824,20.334
4.39,326.035,20.311
4.43,326.245,20.276
4.46,326.385,20.276
4.49,326.561,20.322
4.52,326.772,20.23
4.56,326.912,20.23
4.59,327.052,20.23
4.62,327.193,20.208
4.66,327.368,20.15
4.69,327.509,19.99
4.72,327.544,19.921
4.75,327.649,19.818
4.79,327.614,19.749
4.82,327.684,19.784
4.85,327.684,19.726
4.88,327.649,19.772
4.92,327.684,19.749
4.95,327.754,19.669
4.98,327.789,19.543
5.01,327.719,19.429
5.05,327.649,19.383
5.08,327.649,19.291
5.11,327.509,19.188
5.14,327.403,19.085
5.18,327.263,18.959
5.21,326.877,18.879
5.24,326.666,18.764
5.27,326.28,18.65
5.31,325.859,18.489
5.34,325.192,18.317
5.37,324.21,18.168
5.4,323.016,18.065
5.44,321.683,17.905
5.47,320.033,17.722
5.5,317.857,17.481
5.53,315.401,17.309
5.57,313.014,17.149
5.6,310.452,16.966
5.63,307.925,16.782
5.66,305.363,16.611
5.7,302.977,16.427
5.73,300.52,16.244
5.76,297.888,16.141
5.79,295.186,16.003
5.83,292.308,15.832
5.86,289.185,15.683
5.89,286.131,15.568
5.92,282.973,15.373
5.96,279.814,15.202
5.99,276.585,15.007
6.02,273.427,14.881
6.05,270.409,14.766
6.09,267.496,14.629
6.12,264.758,14.468
6.15,261.775,14.297
6.19,258.652,14.182
6.22,255.634,14.022
6.25,252.475,13.815
6.28,249.457,13.563
6.32,246.228,13.311
6.35,242.964,13.105
6.38,239.806,12.887
6.41,236.401,12.739
6.45,233.173,12.567
6.48,229.768,12.372
6.51,226.399,12.246
6.54,223.17,12.051
6.58,219.872,11.868
6.61,216.643,11.627
6.64,213.274,11.364
6.67,209.834,11.169
6.71,206.43,10.929
6.74,202.85,10.688
6.77,199.2,10.493
6.8,195.445,10.321
6.84,191.655,10.138
6.87,187.865,9.921
6.9,184.039,9.657
6.93,180.038,9.439
6.97,176.108,9.199
7.0,172.072,8.912
7.03,167.931,8.718
7.06,163.824,8.511
7.1,159.648,8.282
7.13,155.472,8.042
7.16,151.155,7.79
7.19,146.803,7.561
7.23,142.451,7.297
7.26,137.994,7.045
7.29,133.467,6.805
7.32,128.87,6.575
7.36,124.272,6.392
7.39,119.745,6.175
7.42,115.147,5.934
7.45,110.55,5.728
7.49,105.988,5.522
7.52,101.46,5.304
7.55,96.863,5.075
7.58,92.371,4.811
7.62,87.949,4.536
7.65,83.421,4.296
7.68,78.859,4.067
7.72,74.297,3.826
7.75,69.699,3.62
7.78,64.996,3.448
7.81,60.399,3.242
7.85,55.942,2.99
7.88,51.309,2.726
7.91,46.712,2.463
7.94,42.114,2.211
7.98,37.376,1.982
8.01,32.744,1.764
8.04,28.181,1.546
8.07,23.549,1.329
8.11,18.846,1.146
8.14,14.178,0.974
8.17,9.721,0.779
8.2,5.299,0.55
8.24,0.842,0.344
8.27,-3.65,0.16
8.3,-8.212,0.0
8.33,-12.704,-0.229
8.37,-17.056,-0.55
8.4,-21.443,-0.928
8.43,-25.62,-1.386
8.46,-29.866,-1.947
8.5,-34.218,-2.463
8.53,-38.745,-2.875
8.56,-43.413,-3.162
8.59,-47.694,-3.379
8.63,-52.046,-3.563
8.66,-56.293,-3.677
8.69,-60.153,-3.872
8.72,-64.014,-4.044
8.76,-67.804,-4.25
8.79,-71.524,-4.456
8.82,-75.174,-4.685
8.85,-78.859,-4.88
8.89,-82.404,-5.109
8.92,-86.053,-5.35
8.95,-89.738,-5.579
8.98,-93.529,-5.831
9.02,-97.284,-6.014
9.05,-100.899,-6.243
9.08,-104.549,-6.472
9.11,-108.093,-6.747
9.15,-111.778,-6.965
9.18,-115.428,-7.171
9.21,-118.973,-7.4
9.25,-122.623,-7.629
9.28,-126.308,-7.881
9.31,-130.028,-8.168
9.34,-133.678,-8.363
9.38,-136.942,-8.523
9.41,-139.819,-8.637
9.44,-143.083,-9.016
9.47,-147.47,-9.256
9.51,-151.822,-9.542
9.54,-156.314,-9.737
9.57,-159.402,-9.886
9.6,-164.316,-10.425
9.64,-167.755,-10.092
9.67,-170.142,-10.585
9.7,-174.283,-10.791
9.73,-177.406,-10.871
9.77,-180.705,-11.158
9.8,-183.899,-11.318
9.83,-186.952,-11.49
9.86,-190.111,-11.708
9.9,-193.41,-11.948
9.93,-196.744,-12.086
9.96,-199.165,-12.269
9.99,-203.096,-12.716
10.03,-206.395,-12.613
10.06,-209.132,-13.059
10.09,-212.221,-13.071
10.12,-213.063,-13.071
10.16,-216.818,-13.827
10.19,-222.679,-13.792
10.22,-225.873,-13.838
10.25,-228.365,-14.216
10.29,-230.54,-14.308
10.32,-232.365,-14.468
10.35,-234.506,-14.549
10.38,-236.647,-14.526
10.42,-238.858,-14.617
10.45,-241.28,-14.858
10.48,-243.842,-15.133
10.51,-246.649,-15.408
10.55,-249.527,-15.602
10.58,-252.475,-15.797
10.61,-255.528,-15.958
10.64,-257.88,-16.072
10.68,-260.196,-16.267
10.71,-262.267,-16.439
10.74,-264.302,-16.553
10.78,-266.197,-16.668
10.81,-268.127,-16.782
10.84,-270.093,-16.92
10.87,-272.058,-17.011
10.91,-273.918,-17.115
10.94,-275.883,-17.286
10.97,-277.954,-17.412
11.0,-279.744,-17.642
11.04,-281.885,-17.79
11.07,-283.92,-17.905
11.1,-285.745,-18.054
11.13,-287.57,-18.146
11.17,-289.29,-18.295
11.2,-291.08,-18.34
11.23,-292.659,-18.421
11.26,-294.238,-18.581
11.3,-295.853,-18.638
11.33,-297.151,-18.741
11.36,-298.52,-18.833
11.39,-299.783,-18.925
11.43,-301.187,-18.993
11.46,-302.556,-19.039
11.49,-303.819,-19.108
11.52,-304.942,-19.199
11.56,-306.065,-19.303
11.59,-307.188,-19.429
11.62,-308.311,-19.52
11.65,-309.329,-19.566
11.69,-310.277,-19.635
11.72,-311.189,-19.681
11.75,-311.996,-19.715
11.78,-312.628,-19.761
11.82,-313.4,-19.784
11.85,-313.997,-19.784
11.88,-314.594,-19.807
11.91,-315.19,-19.852
11.95,-315.752,-19.91
11.98,-316.418,-19.978
12.01,-317.015,-20.024
12.04,-317.577,-20.082
12.08,-318.103,-20.104
12.11,-318.665,-20.162
12.14,-319.121,-20.185
12.17,-319.542,-20.219
12.21,-320.068,-20.288
12.24,-320.525,-20.357
12.27,-320.981,-20.414
12.31,-321.402,-20.437
12.34,-321.893,-20.483
12.37,-322.455,-20.46
12.4,-322.806,-20.46
12.44,-323.192,-20.483
12.47,-323.543,-20.505
12.5,-323.964,-20.505
12.53,-324.28,-20.494
12.57,-324.596,-20.494
12.6,-324.911,-20.46
12.63,-325.157,-20.437
12.66,-325.368,-20.437
12.7,-325.648,-20.46
12.73,-325.964,-20.391
12.76,-326.105,-20.288
12.79,-326.28,-20.253
12.83,-326.456,-20.219
12.86,-326.596,-20.242
12.89,-326.736,-20.23
12.92,-326.842,-20.242
12.96,-327.052,-20.185
12.99,-327.122,-20.104
13.02,-327.298,-20.024
13.05,-327.368,-19.898
13.09,-327.403,-19.83
13.12,-327.438,-19.795
13.15,-327.473,-19.715
13.18,-327.509,-19.646
13.22,-327.544,-19.623
13.25,-327.579,-19.555
13.28,-327.544,-19.497
13.31,-327.544,-19.429
13.35,-327.509,-19.36
13.38,-327.509,-19.234
13.41,-327.403,-19.177
13.44,-327.368,-19.051
13.48,-327.228,-18.936
13.51,-327.017,-18.867
13.54,-326.701,-18.787
13.57,-326.35,-18.73
13.61,-325.999,-18.661
13.64,-325.543,-18.524
13.67,-324.841,-18.363
13.7,-324.034,-18.214
13.74,-322.981,-17.997
13.77,-321.437,-17.802
13.8,-319.682,-17.538
13.84,-317.366,-17.309
13.87,-315.015,-17.16
13.9,-312.698,-16.977
13.93,-310.136,-16.828
13.97,-307.61,-16.668
14.0,-305.048,-16.496
14.03,-302.556,-16.37
14.06,-300.099,-16.221
14.1,-297.502,-16.061
14.13,-294.765,-15.958
14.16,-291.992,-15.797
14.19,-288.974,-15.637
14.23,-285.815,-15.488
14.26,-282.727,-15.339
14.29,-279.533,-15.167
14.32,-276.445,-14.995
14.36,-273.322,-14.835
14.39,-270.303,-14.675
14.42,-267.426,-14.491
14.45,-264.583,-14.354
14.49,-261.705,-14.182
14.52,-258.652,-14.01
14.55,-255.493,-13.861
14.58,-252.405,-13.689
14.62,-249.246,-13.472
14.65,-246.017,-13.266
14.68,-242.824,-13.082
14.71,-239.595,-12.876
14.75,-236.366,-12.67
14.78,-233.067,-12.509
14.81,-229.768,-12.349
14.84,-226.469,-12.2
14.88,-223.135,-12.028
14.91,-219.836,-11.811
14.94,-216.502,-11.593
14.97,-213.028,-11.433
15.01,-209.589,-11.238
15.04,-206.149,-10.986
15.07,-202.64,-10.734
15.1,-199.025,-10.505
15.14,-195.305,-10.321
15.17,-191.479,-10.127
15.2,-187.689,-9.909
15.24,-183.899,-9.703
15.27,-180.003,-9.439
15.3,-175.932,-9.21
15.33,-171.896,-8.981
15.37,-167.825,-8.695
15.4,-163.719,-8.431
15.43,-159.473,-8.202
15.46,-155.191,-7.996
15.5,-150.909,-7.79
15.53,-146.558,-7.572
15.56,-142.171,-7.343
15.59,-137.714,-7.137
15.63,-133.257,-6.885
15.66,-128.659,-6.656
15.69,-124.167,-6.438
15.72,-119.745,-6.175
15.76,-115.077,-5.945
15.79,-110.515,-5.774
15.82,-106.023,-5.567
15.85,-101.425,-5.327
15.89,-96.863,-5.086
15.92,-92.23,-4.857
15.95,-87.843,-4.582
15.98,-83.211,-4.342
16.02,-78.683,-4.113
16.05,-74.156,-3.849
16.08,-69.594,-3.643
16.11,-65.067,-3.414
16.15,-60.469,-3.208
16.18,-55.836,-3.013
16.21,-51.204,-2.784
16.24,-46.712,-2.543
16.28,-42.079,-2.28
16.31,-37.411,-2.028
16.34,-32.814,-1.799
16.37,-28.217,-1.546
16.41,-23.584,-1.34
16.44,-18.881,-1.168
16.47,-14.319,-0.951
16.5,-9.792,-0.756
16.54,-5.405,-0.573
16.57,-0.983,-0.332
16.6,3.545,-0.16
16.63,8.107,-0.034
16.67,12.494,0.195
16.7,16.881,0.493
16.73,21.198,0.859
16.77,25.374,1.329
16.8,29.585,1.89
16.83,33.762,2.417
16.86,38.359,2.852
16.9,43.027,3.139
16.93,47.379,3.391
16.96,51.765,3.608
16.99,55.942,3.769
17.03,60.013,3.906
17.06,63.979,4.021
17.09,67.734,4.204
17.12,71.489,4.376
17.16,74.963,4.605
17.19,78.508,4.869
17.22,82.193,5.109
17.25,85.808,5.35
17.29,89.528,5.613
17.32,93.283,5.865
17.35,97.073,6.071
17.38,100.758,6.255
17.42,104.373,6.507
17.45,108.023,6.747
17.48,111.638,6.988
17.51,115.288,7.217
17.55,119.008,7.435
17.58,122.658,7.618
17.61,126.378,7.87
17.64,130.203,8.053
17.68,133.958,8.294
17.71,137.292,8.42
17.74,139.995,8.603
17.77,143.013,8.924
17.81,147.365,9.279
17.84,151.787,9.416
17.87,156.314,9.84
17.9,159.648,9.806
17.94,163.228,10.436
17.97,168.211,10.447
18.0,170.598,10.447
18.03,174.248,10.917
18.07,177.722,10.871
18.1,180.811,11.169
18.13,184.215,11.307
18.16,187.303,11.513
18.2,190.532,11.753
18.23,193.901,11.994
18.26,197.095,12.166
18.3,200.218,12.361
18.33,203.201,12.521
18.36,206.395,12.739
18.39,209.659,12.933
18.43,212.642,13.059
18.46,213.695,13.002
18.49,216.502,13.712
18.52,222.328,13.987
18.56,226.118,13.941
18.59,228.716,14.205
18.62,231.102,14.251
18.65,233.173,14.331
18.69,235.173,14.457
18.72,237.209,14.594
18.75,239.209,14.801
18.78,241.56,15.03
18.82,244.298,15.305
18.85,247.246,15.58
18.88,250.124,15.751
18.91,252.826,15.935
18.95,255.563,16.061
18.98,258.125,16.118
19.01,260.406,16.21
19.04,262.617,16.381
19.08,264.688,16.507
19.11,266.583,16.668
19.14,268.408,16.805
19.17,270.303,16.954
19.21,272.128,17.115
19.24,274.094,17.252
19.27,276.024,17.401
19.3,278.059,17.584
19.34,280.095,17.71
19.37,282.025,17.905
19.4,284.131,17.997
19.43,285.956,18.123
19.47,287.675,18.237
19.5,289.5,18.375
19.53,291.08,18.466
19.56,292.87,18.547
19.6,294.414,18.558
19.63,295.888,18.741
19.66,297.221,18.741
19.69,298.66,18.993
19.73,299.327,18.833
19.76,300.52,19.303
19.79,303.223,19.188
19.83,303.398,19.211
19.86,305.328,19.612
19.89,306.487,19.28
19.92,307.504,19.578
19.96,308.768,19.429
19.99,309.47,19.566
20.02,310.487,19.646
20.05,311.33,19.658
20.09,311.996,19.818
20.12,312.804,19.898
20.15,313.47,19.864
20.18,314.137,19.875
20.22,314.699,19.875
20.25,315.331,19.944
20.28,315.962,19.933
20.31,316.418,20.07
20.35,317.05,20.196
20.38,317.612,20.219
20.41,318.208,20.299
20.44,318.875,20.276
20.48,319.191,20.276
20.51,319.717,20.322
20.54,320.279,20.311
20.57,320.665,20.345
20.61,321.156,20.368
20.64,321.577,20.414
20.67,322.209,20.345
20.7,322.525,20.299
20.74,322.841,20.448
20.77,323.297,20.402
20.8,323.648,20.448
20.83,324.104,20.402
20.87,324.35,20.391
20.9,324.596,20.437
20.93,324.876,20.505
20.96,325.227,20.46
21.0,325.543,20.402
21.03,325.719,20.414
21.06,325.929,20.425
21.09,326.175,20.391
21.13,326.421,20.265
21.16,326.526,20.265
21.19,326.772,20.23
21.22,326.842,20.173
21.26,327.087,20.196
21.29,327.263,20.013
21.32,327.228,20.013
21.36,327.403,20.013
21.39,327.438,19.99
21.42,327.544,19.921
21.45,327.649,19.841
21.49,327.719,19.692
21.52,327.719,19.612
21.55,327.719,19.589
21.58,327.719,19.555
21.62,327.719,19.474
21.65,327.649,19.463
21.68,327.649,19.383
21.71,327.614,19.291
21.75,327.579,19.211
21.78,327.473,19.096
21.81,327.333,19.062
21.84,327.158,18.947
21.88,326.772,18.913
21.91,326.526,18.867
21.94,326.21,18.661
21.97,325.613,18.569
22.01,325.052,18.386
22.04,324.104,18.157
22.07,322.981,17.997
22.1,321.683,17.768
22.14,319.893,17.55
22.17,317.647,17.424
22.2,315.331,17.286
22.23,313.12,17.08
22.27,310.558,16.874
22.3,307.82,16.737
22.33,305.258,16.622
22.36,302.802,16.473
22.4,300.345,16.324
22.43,297.748,16.187
22.46,295.01,16.049
22.49,292.133,15.935
22.53,289.185,15.774
22.56,286.131,15.602
22.59,282.973,15.408
22.62,279.814,15.236
22.66,276.585,15.075
22.69,273.497,14.915
22.72,270.584,14.732
22.75,267.636,14.583
22.79,264.793,14.423
22.82,261.775,14.297
22.85,258.722,14.113
22.89,255.598,13.907
22.92,252.44,13.735
22.95,249.211,13.563
22.98,246.017,13.392
23.02,242.964,13.162
23.05,239.735,12.945
23.08,236.507,12.75
23.11,233.243,12.555
23.15,229.909,12.395
23.18,226.68,12.223
23.21,223.381,12.005
23.24,219.907,11.822
23.28,216.537,11.662
23.31,213.168,11.421
23.34,209.659,11.181
23.37,206.255,10.952
23.41,202.78,10.722
23.44,199.13,10.493
23.47,195.445,10.31
23.5,191.655,10.092
23.54,187.9,9.875
23.57,184.074,9.657
23.6,180.179,9.428
23.63,176.213,9.199
23.67,172.212,8.947
23.7,168.036,8.706
23.73,163.93,8.466
23.76,159.683,8.214
23.8,155.367,7.996
23.83,151.12,7.778
23.86,146.733,7.584
23.89,142.311,7.4
23.93,137.959,7.148
23.96,133.537,6.896
23.99,129.115,6.61
24.02,124.518,6.358
24.06,119.955,6.152
24.09,115.393,5.923
24.12,110.796,5.716
24.15,106.303,5.487
24.19,101.671,5.258
24.22,97.003,5.063
24.25,92.441,4.834
24.28,87.949,4.594
24.32,83.421,4.353
24.35,78.894,4.113
24.38,74.332,3.883
24.42,69.734,3.677
24.45,65.207,3.46
24.48,60.574,3.23
24.51,56.047,2.99
24.55,51.379,2.749
24.58,46.817,2.52
24.61,42.22,2.257
24.64,37.552,1.993
24.68,32.954,1.753
24.71,28.357,1.512
24.74,23.689,1.294
24.77,19.022,1.1
24.81,14.354,0.894
24.84,9.721,0.71
24.87,5.264,0.515
24.9,0.737,0.321
24.94,-3.72,0.115
24.97,-8.247,-0.08
25.0,-12.669,-0.298
25.03,-17.021,-0.584
25.07,-21.268,-0.962
25.1,-25.409,-1.443
25.13,-29.655,-2.005
25.16,-34.042,-2.463
25.2,-38.57,-2.852
25.23,-43.272,-3.127
25.26,-47.554,-3.334
25.29,-51.836,-3.608
25.33,-56.117,-3.769
25.36,-60.048,-3.918
25.39,-63.943,-4.113
25.42,-67.804,-4.284
25.46,-71.559,-4.433
25.49,-75.104,-4.617
25.52,-78.683,-4.846
25.55,-82.404,-5.075
25.59,-86.053,-5.338
25.62,-89.703,-5.625
25.65,-93.529,-5.854
25.68,-97.179,-6.037
25.72,-100.758,-6.289
25.75,-104.373,-6.518
25.78,-107.988,-6.724
25.81,-111.673,-6.919
25.85,-115.288,-7.114
25.88,-118.832,-7.366
25.91,-122.482,-7.629
25.95,-126.167,-7.87
25.98,-129.852,-8.156
26.01,-133.607,-8.328
26.04,-136.871,-8.5
26.08,-139.749,-8.637
26.11,-143.013,-9.004
26.14,-147.4,-9.245
26.17,-151.717,-9.554
26.21,-156.068,-9.783
26.24,-159.087,-9.955
26.27,-164.035,-10.528
26.3,-167.615,-10.253
26.34,-170.247,-10.699
26.37,-174.458,-10.803
26.4,-177.406,-10.837
26.43,-180.6,-11.123
26.47,-183.864,-11.261
26.5,-186.987,-11.467
26.53,-190.076,-11.673
26.56,-193.41,-11.971
26.6,-196.323,-12.051
26.63,-199.236,-12.406
26.66,-203.342,-12.613
26.69,-206.114,-12.613
26.73,-209.343,-13.082
26.76,-212.256,-12.91
26.79,-213.028,-13.036
26.82,-217.134,-13.747
26.86,-222.784,-13.758
26.89,-225.803,-13.85
26.92,-228.084,-14.228
26.95,-230.295,-14.4
26.99,-232.401,-14.549
27.02,-234.541,-14.526
27.05,-236.577,-14.468
27.08,-238.823,-14.56
27.12,-241.174,-14.789
27.15,-243.771,-15.087
27.18,-246.544,-15.396
27.21,-249.422,-15.602
27.25,-252.335,-15.797
27.28,-255.353,-15.969
27.31,-257.809,-16.118
27.34,-260.231,-16.324
27.38,-262.512,-16.427
27.41,-264.618,-16.519
27.44,-266.513,-16.588
27.48,-268.443,-16.679
27.51,-270.303,-16.794
27.54,-272.093,-16.966
27.57,-273.848,-17.183
27.61,-275.848,-17.344
27.64,-277.849,-17.481
27.67,-279.849,-17.607
27.7,-281.85,-17.733
27.74,-283.85,-17.848
27.77,-285.71,-18.02
27.8,-287.57,-18.146
27.83,-289.36,-18.249
27.87,-291.045,-18.329
27.9,-292.694,-18.421
27.93,-294.203,-18.558
27.96,-295.782,-18.65
28.0,-297.151,-18.73
28.03,-298.45,-18.821
28.06,-299.818,-18.902
28.09,-301.117,-18.97
28.13,-302.486,-19.062
28.16,-303.749,-19.142
28.19,-304.942,-19.234
28.22,-306.1,-19.371
28.26,-307.259,-19.486
28.29,-308.347,-19.555
28.32,-309.47,-19.578
28.35,-310.382,-19.6
28.39,-311.224,-19.6
28.42,-311.891,-19.635
28.45,-312.523,-19.749
28.48,-313.295,-19.83
28.52,-313.892,-19.91
28.55,-314.558,-19.956
28.58,-315.19,-19.978
28.61,-315.787,-20.001
28.65,-316.489,-20.001
28.68,-317.05,-20.059
28.71,-317.577,-20.116
28.74,-318.173,-20.139
28.78,-318.735,-20.139
28.81,-319.121,-20.162
28.84,-319.612,-20.185
28.87,-320.174,-20.208
28.91,-320.56,-20.23
28.94,-321.086,-20.288
28.97,-321.472,-20.311
29.01,-321.893,-20.402
29.04,-322.42,-20.414
29.07,-322.771,-20.437
29.1,-323.157,-20.471
29.14,-323.473,-20.505
29.17,-323.929,-20.517
29.2,-324.21,-20.528
29.23,-324.631,-20.471
29.27,-324.876,-20.402
29.3,-325.122,-20.391
29.33,-325.473,-20.311
29.36,-325.684,-20.265
29.4,-325.894,-20.23
29.43,-326.035,-20.265
29.46,-326.245,-20.288
29.49,-326.456,-20.23
29.53,-326.596,-20.219
29.56,-326.772,-20.139
29.59,-326.877,-20.093
29.62,-327.052,-20.07
29.66,-327.158,-19.967
29.69,-327.193,-19.956
29.72,-327.298,-19.921
29.75,-327.368,-19.887
29.79,-327.438,-19.841
29.82,-327.509,-19.749
29.85,-327.579,-19.623
29.88,-327.579,-19.555
29.92,-327.614,-19.463
29.95,-327.579,-19.383
29.98,-327.544,-19.348
30.01,-327.509,-19.268
30.05,-327.438,-19.268
30.08,-327.544,-19.199
30.11,-327.368,-19.062
30.14,-327.333,-19.005
30.18,-327.052,-18.844
30.21,-326.701,-18.856
30.24,-326.596,-18.764
30.27,-326.07,-18.627
30.31,-325.754,-18.547
30.34,-325.017,-18.317
30.37,-324.034,-18.26
30.4,-323.016,-18.042
30.44,-321.577,-17.871
30.47,-319.788,-17.653
30.5,-317.542,-17.447
30.54,-315.12,-17.229
30.57,-312.663,-17.0
30.6,-310.207,-16.817
30.63,-307.504,-16.691
30.67,-305.048,-16.588
30.7,-302.556,-16.507
30.73,-300.169,-16.404
30.76,-297.572,-16.244
30.8,-294.87,-16.061
30.83,-292.203,-15.832
30.86,-289.149,-15.591
30.89,-285.991,-15.419
30.93,-282.832,-15.247
30.96,-279.639,-15.098
30.99,-276.34,-14.972
31.02,-273.216,-14.858
31.06,-270.163,-14.72
31.09,-267.25,-14.594
31.12,-264.478,-14.445
31.15,-261.6,-14.262
31.19,-258.617,-14.056
31.22,-255.493,-13.884
31.25,-252.44,-13.701
31.28,-249.246,-13.54
31.32,-245.982,-13.38
31.35,-242.859,-13.151
31.38,-239.56,-12.991
31.41,-236.366,-12.807
31.45,-233.173,-12.578
31.48,-229.944,-12.383
31.51,-226.75,-12.166
31.54,-223.416,-11.948
31.58,-220.117,-11.742
31.61,-216.678,-11.536
31.64,-213.239,-11.375
31.67,-209.729,-11.169
31.71,-206.184,-10.963
31.74,-202.57,-10.757
31.77,-198.99,-10.528
31.8,-195.235,-10.264
31.84,-191.409,-10.069
31.87,-187.689,-9.817
31.9,-183.864,-9.588
31.93,-179.898,-9.359
31.97,-175.897,-9.142
32.0,-171.826,-8.947
32.03,-167.755,-8.729
32.07,-163.579,-8.5
32.1,-159.402,-8.282
32.13,-155.226,-8.03
32.16,-150.945,-7.801
32.2,-146.663,-7.584
32.23,-142.171,-7.366
32.26,-137.819,-7.148
32.29,-133.397,-6.885
32.33,-128.799,-6.644
32.36,-124.342,-6.392
32.39,-119.71,-6.163
32.42,-115.147,-5.945
32.46,-110.62,-5.705
32.49,-106.093,-5.487
32.52,-101.53,-5.304
32.55,-96.968,-5.075
32.59,-92.371,-4.834
32.62,-87.878,-4.605
32.65,-83.386,-4.353
32.68,-78.824,-4.124
32.72,-74.261,-3.872
32.75,-69.734,-3.631
32.78,-65.137,-3.402
32.81,-60.504,-3.162
32.85,-55.836,-2.99
32.88,-51.204,-2.749
32.91,-46.677,-2.532
32.94,-42.009,-2.291
32.98,-37.411,-2.039
33.01,-32.849,-1.799
33.04,-28.357,-1.546
33.07,-23.759,-1.272
33.11,-19.092,-1.054
33.14,-14.459,-0.859
33.17,-9.932,-0.676
33.2,-5.37,-0.515
33.24,-0.772,-0.378
33.27,3.72,-0.206
33.3,8.282,-0.057
33.33,12.669,0.16
33.37,17.021,0.458
33.4,21.303,0.836
33.43,25.374,1.294
33.46,29.515,1.856
33.5,33.691,2.406
33.53,38.359,2.807
33.56,42.921,3.116
33.6,47.308,3.345
33.63,51.66,3.551
33.66,55.801,3.769
33.69,59.872,3.918
33.73,63.698,4.135
33.76,67.699,4.319
33.79,71.559,4.433
33.82,75.104,4.628
33.86,78.719,4.869
33.89,82.474,5.063
33.92,86.053,5.304
33.95,89.844,5.567
33.99,93.529,5.785
34.02,97.144,6.083
34.05,100.793,6.301
34.08,104.408,6.541
34.12,108.058,6.747
34.15,111.743,6.919
34.18,115.323,7.102
34.21,118.938,7.354
34.25,122.552,7.606
34.28,126.343,7.881
34.31,130.028,8.133
34.34,133.783,8.42
34.38,137.082,8.557
34.41,139.854,8.752
34.44,143.013,9.016
34.47,147.54,9.29
34.51,151.927,9.416
34.54,156.7,9.829
34.57,160.069,9.772
34.6,163.438,10.367
34.64,168.246,10.447
34.67,170.457,10.482
34.7,174.002,11.032
34.73,177.898,10.906
34.77,180.916,11.169
34.8,184.32,11.341
34.83,187.408,11.478
34.86,190.497,11.708
34.9,193.831,11.925
34.93,197.06,12.154
34.96,200.253,12.372
34.99,203.342,12.578
35.03,206.606,12.807
35.06,209.799,12.991
35.09,212.607,13.082
35.13,213.695,13.002
35.16,216.573,13.678
35.19,222.469,13.941
35.22,226.224,13.941
35.26,228.856,14.182
35.29,231.032,14.285
35.32,232.962,14.4
35.35,234.962,14.514
35.39,237.033,14.606
35.42,239.174,14.789
35.45,241.666,14.995
35.48,244.333,15.224
35.52,247.211,15.499
35.55,250.159,15.694
35.58,252.686,15.912
35.61,255.247,16.164
35.65,257.88,16.278
35.68,260.266,16.381
35.71,262.653,16.462
35.74,264.688,16.519
35.78,266.513,16.679
35.81,268.338,16.874
35.84,270.303,17.011
35.87,272.234,17.137
35.91,274.234,17.241
35.94,276.094,17.378
35.97,278.165,17.538
36.0,280.341,17.607
36.04,282.236,17.745
36.07,284.131,17.905
36.1,286.026,18.054
36.13,287.711,18.226
36.17,289.641,18.34
36.2,291.15,18.432
36.23,292.905,18.581
36.26,294.484,18.592
36.3,296.133,18.65
36.33,297.292,18.764
36.36,298.976,18.856
36.39,298.941,18.753
36.43,301.152,19.348
36.46,302.872,18.982
36.49,303.328,19.417
36.52,305.469,19.348
36.56,305.855,19.417
36.59,307.539,19.646
36.62,308.522,19.486
36.66,309.54,19.646
36.69,310.593,19.532
36.72,311.259,19.635
36.75,312.102,19.726
36.79,312.839,19.784
36.82,313.541,19.875
36.85,314.207,19.933
36.88,314.734,20.013
36.92,315.471,20.104
36.95,316.032,20.127
36.98,316.699,20.162
37.01,317.261,20.185
37.05,317.857,20.196
37.08,318.314,20.253
37.11,318.84,20.311
37.14,319.331,20.299
37.18,319.753,20.357
37.21,320.209,20.402
37.24,320.735,20.414
37.27,321.297,20.357
37.31,321.753,20.299
37.34,322.139,20.322
37.37,322.525,20.368
37.4,322.981,20.391
37.44,323.297,20.448
37.47,323.648,20.517
37.5,324.034,20.54
37.53,324.35,20.574
37.57,324.701,20.528
37.6,324.982,20.517
37.63,325.368,20.425
37.66,325.648,20.322
37.7,325.859,20.334
37.73,326.035,20.334
37.76,326.21,20.368
37.79,326.456,20.368
37.83,326.596,20.357
37.86,326.772,20.357
37.89,327.052,20.185
37.92,327.228,20.07
37.96,327.298,19.99
37.99,327.368,19.967
38.02,327.438,19.978
38.05,327.438,20.013
38.09,327.544,20.001
38.12,327.579,19.967
38.15,327.684,19.887
38.19,327.719,19.795
38.22,327.789,19.692
38.25,327.824,19.543
38.28,327.789,19.417
38.32,327.719,19.36
38.35,327.649,19.337
38.38,327.614,19.337
38.41,327.544,19.28
38.45,327.473,19.211
38.48,327.368,19.119
38.51,327.228,18.982
38.54,327.017,18.81
38.58,326.596,18.73
38.61,326.35,18.547
38.64,325.754,18.421
38.67,324.982,18.34
38.71,324.139,18.191
38.74,322.806,18.111
38.77,321.507,17.997
38.8,319.893,17.768
38.84,317.717,17.538
38.87,315.401,17.344
38.9,313.084,17.137
38.93,310.558,16.908
38.97,307.89,16.748
39.0,305.328,16.633
39.03,302.977,16.496
39.06,300.45,16.359
39.1,297.783,16.221
39.13,295.116,16.061
39.16,292.238,15.866
39.19,289.29,15.648
39.23,286.096,15.431
39.26,282.903,15.293
39.29,279.744,15.133
39.32,276.445,14.972
39.36,273.286,14.858
39.39,270.233,14.743
39.42,267.32,14.64
39.45,264.548,14.468
39.49,261.705,14.274
39.52,258.722,14.033
39.55,255.669,13.815
39.58,252.475,13.621
39.62,249.176,13.472
39.65,245.982,13.288
39.68,242.824,13.082
39.72,239.56,12.876
39.75,236.261,12.739
39.78,233.067,12.521
39.81,229.839,12.315
39.85,226.54,12.166
39.88,223.311,12.005
39.91,220.047,11.788
39.94,216.713,11.639
39.98,213.414,11.433
40.01,209.975,11.204
40.04,206.395,10.997
40.07,202.885,10.768
40.11,199.236,10.516
40.14,195.551,10.287
40.17,191.76,10.047
40.2,187.935,9.806
40.24,184.039,9.554
40.27,179.968,9.359
40.3,176.003,9.13
40.33,171.896,8.89
40.37,167.755,8.683
40.4,163.614,8.489
40.43,159.508,8.225
40.46,155.296,7.95
40.5,151.05,7.721
40.53,146.698,7.503
40.56,142.276,7.332
40.59,137.924,7.102
40.63,133.432,6.873
40.66,128.87,6.656
40.69,124.342,6.427
40.72,119.85,6.163
40.76,115.323,5.911
40.79,110.796,5.682
40.82,106.233,5.453
40.85,101.636,5.235
40.89,97.108,5.04
40.92,92.616,4.788
40.95,88.124,4.536
40.98,83.492,4.307
41.02,78.929,4.09
41.05,74.367,3.872
41.08,69.804,3.631
41.11,65.207,3.414
41.15,60.82,3.139
41.18,56.152,2.841
41.21,51.379,2.623
41.25,46.642,2.463
41.28,42.044,2.257
41.31,37.271,2.051
41.34,32.603,1.902
41.38,28.146,1.638
41.41,23.619,1.386
41.44,18.987,1.157
41.47,14.459,0.939
41.51,10.002,0.71
41.54,5.545,0.493
41.57,1.018,0.332
41.6,-3.545,0.137
41.64,-8.177,-0.057
41.67,-12.704,-0.252
41.7,-17.091,-0.573
41.73,-21.408,-0.951
41.77,-25.584,-1.42
41.8,-29.831,-1.982
41.83,-34.042,-2.486
41.86,-38.57,-2.921
41.9,-43.202,-3.185
41.93,-47.554,-3.379
41.96,-51.906,-3.574
41.99,-56.187,-3.677
42.03,-60.083,-3.815
42.06,-63.908,-4.021
42.09,-67.664,-4.25
42.12,-71.349,-4.445
42.16,-74.998,-4.662
42.19,-78.648,-4.903
42.22,-82.439,-5.144
42.25,-86.124,-5.361
42.29,-89.809,-5.613
42.32,-93.564,-5.854
42.35,-97.319,-6.083
42.38,-100.934,-6.312
42.42,-104.514,-6.564
42.45,-108.058,-6.828
42.48,-111.743,-7.022
42.51,-115.323,-7.228
42.55,-118.903,-7.446
42.58,-122.517,-7.664
42.61,-126.202,-7.859
42.64,-129.887,-8.111
42.68,-133.537,-8.328
42.71,-136.801,-8.534
42.74,-139.679,-8.672
42.78,-142.978,-9.016
42.81,-147.33,-9.245
42.84,-151.611,-9.542
42.87,-156.104,-9.737
42.91,-159.297,-9.886
42.94,-164.14,-10.413
42.97,-167.615,-10.138
43.0,-170.036,-10.665
43.04,-174.283,-10.86
43.07,-177.336,-10.917
43.1,-180.6,-11.135
43.13,-183.723,-11.307
43.17,-186.952,-11.501
43.2,-190.076,-11.708
43.23,-193.515,-11.948
43.26,-196.252,-12.028
43.3,-199.622,-12.464
43.33,-203.307,-12.509
43.36,-205.939,-12.739
43.39,-209.554,-13.082
43.43,-211.905,-12.945
43.46,-213.028,-13.174
43.49,-217.485,-13.827
43.52,-222.96,-13.701
43.56,-225.838,-13.838
43.59,-228.189,-14.171
43.62,-230.154,-14.354
43.65,-232.225,-14.526
43.69,-234.401,-14.583
43.72,-236.577,-14.549
43.75,-238.753,-14.64
43.78,-241.174,-14.904
43.82,-243.771,-15.19
43.85,-246.614,-15.408
43.88,-249.352,-15.648
43.91,-252.37,-15.877
43.95,-255.423,-15.992
43.98,-257.845,-16.129
44.01,-260.161,-16.313
44.04,-262.372,-16.393
44.08,-264.337,-16.485
44.11,-266.232,-16.588
44.14,-268.198,-16.702
44.17,-270.058,-16.851
44.21,-271.988,-17.023
44.24,-273.813,-17.172
44.27,-275.743,-17.321
44.31,-277.744,-17.47
44.34,-279.849,-17.596
44.37,-281.85,-17.722
44.4,-283.815,-17.882
44.44,-285.675,-18.077
44.47,-287.57,-18.214
44.5,-289.325,-18.306
44.53,-290.939,-18.443
44.57,-292.659,-18.558
44.6,-294.238,-18.661
44.63,-295.888,-18.753
44.66,-297.327,-18.799
44.7,-298.52,-18.879
44.73,-299.854,-18.959
44.76,-301.187,-19.039
44.79,-302.486,-19.096
44.83,-303.714,-19.154
44.86,-304.872,-19.234
44.89,-306.065,-19.337
44.92,-307.259,-19.406
44.96,-308.241,-19.486
44.99,-309.294,-19.566
45.02,-310.242,-19.6
45.05,-311.119,-19.635
45.09,-311.926,-19.669
45.12,-312.733,-19.704
45.15,-313.435,-19.738
45.18,-313.997,-19.818
45.22,-314.699,-19.864
45.25,-315.295,-19.91
45.28,-315.927,-19.944
45.31,-316.559,-19.99
45.35,-317.12,-20.059
45.38,-317.752,-20.093
45.41,-318.314,-20.127
45.44,-318.805,-20.162
45.48,-319.156,-20.23
45.51,-319.717,-20.288
45.54,-320.244,-20.276
45.57,-320.63,-20.334
45.61,-321.121,-20.391
45.64,-321.613,-20.379
45.67,-322.069,-20.379
45.71,-322.49,-20.402
45.74,-322.841,-20.425
45.77,-323.262,-20.425
45.8,-323.648,-20.425
45.84,-323.999,-20.46
45.87,-324.35,-20.46
45.9,-324.631,-20.402
45.93,-324.876,-20.425
45.97,-325.192,-20.391
46.0,-325.473,-20.379
46.03,-325.684,-20.368
46.06,-325.894,-20.345
46.1,-326.105,-20.345
46.13,-326.21,-20.345
46.16,-326.491,-20.311
46.19,-326.596,-20.253
46.23,-326.807,-20.219
46.26,-326.912,-20.127
46.29,-327.052,-20.07
46.32,-327.087,-20.001
46.36,-327.228,-19.967
46.39,-327.333,-19.875
46.42,-327.403,-19.807
46.45,-327.438,-19.784
46.49,-327.473,-19.715
46.52,-327.473,-19.669
46.55,-327.509,-19.612
46.58,-327.544,-19.497
46.62,-327.509,-19.474
46.65,-327.544,-19.383
46.68,-327.473,-19.348
46.71,-327.473,-19.257
46.75,-327.403,-19.108
46.78,-327.333,-19.005
46.81,-327.193,-18.902
46.84,-326.912,-18.821
46.88,-326.701,-18.776
46.91,-326.385,-18.695
46.94,-326.035,-18.581
46.97,-325.508,-18.443
47.01,-324.876,-18.272
47.04,-324.034,-18.1
47.07,-322.876,-17.951
47.1,-321.472,-17.745
47.14,-319.612,-17.538
47.17,-317.296,-17.332
47.2,-314.874,-17.206
47.24,-312.593,-17.023
47.27,-310.172,-16.817
47.3,-307.539,-16.656
47.33,-305.083,-16.496
47.37,-302.591,-16.37
47.4,-300.134,-16.255
47.43,-297.537,-16.141
47.46,-294.8,-16.026
47.5,-292.062,-15.889
47.53,-289.044,-15.671
47.56,-285.921,-15.488
47.59,-282.727,-15.339
47.63,-279.568,-15.167
47.66,-276.48,-14.949
47.69,-273.286,-14.789
47.72,-270.268,-14.652
47.76,-267.39,-14.457
47.79,-264.442,-14.342
47.82,-261.6,-14.159
47.85,-258.546,-13.953
47.89,-255.388,-13.827
47.92,-252.299,-13.644
47.95,-249.071,-13.472
47.98,-245.842,-13.311
48.02,-242.719,-13.105
48.05,-239.455,-12.933
48.08,-236.191,-12.773
48.11,-233.067,-12.555
48.15,-229.768,-12.406
48.18,-226.575,-12.235
48.21,-223.311,-12.017
48.24,-220.012,-11.811
48.28,-216.643,-11.593
48.31,-213.274,-11.398
48.34,-209.834,-11.192
48.37,-206.325,-10.963
48.41,-202.745,-10.757
48.44,-199.165,-10.516
48.47,-195.445,-10.31
48.5,-191.62,-10.069
48.54,-187.83,-9.829
48.57,-184.004,-9.6
48.6,-180.109,-9.325
48.63,-175.967,-9.084
48.67,-171.791,-8.89
48.7,-167.65,-8.683
48.73,-163.438,-8.489
48.77,-159.227,-8.282
48.8,-155.016,-8.042
48.83,-150.734,-7.79
48.86,-146.558,-7.526
48.9,-142.171,-7.286
48.93,-137.714,-7.068
48.96,-133.221,-6.839
48.99,-128.589,-6.667
49.03,-123.991,-6.484
49.06,-119.499,-6.266
49.09,-115.007,-6.037
49.12,-110.62,-5.751
49.16,-106.163,-5.464
49.19,-101.636,-5.201
49.22,-97.073,-4.949
49.25,-92.511,-4.708
49.29,-88.054,-4.468
49.32,-83.351,-4.273
49.35,-78.719,-4.113
49.38,-74.226,-3.906
49.42,-69.629,-3.666
49.45,-64.996,-3.494
49.48,-60.469,-3.242
49.51,-55.942,-3.013
49.55,-51.309,-2.761
49.58,-46.817,-2.509
49.61,-42.22,-2.234
49.64,-37.482,-2.016
49.68,-32.884,-1.799
49.71,-28.217,-1.569
49.74,-23.584,-1.352
49.77,-19.022,-1.123
49.81,-14.529,-0.848
49.84,-9.967,-0.642
49.87,-5.58,-0.447
49.9,-1.088,-0.241
49.94,3.51,-0.103
49.97,8.037,0.011
50.0,12.459,0.218
50.03,16.881,0.538
50.07,21.233,0.894
50.1,25.304,1.363
50.13,29.585,1.913
50.16,33.797,2.417
50.2,38.324,2.864
50.23,42.886,3.185
50.26,47.203,3.414
50.3,51.625,3.597
50.33,55.766,3.769
50.36,59.837,3.929
50.39,63.733,4.101
50.43,67.628,4.307
50.46,71.384,4.456
50.49,74.823,4.685
50.52,78.508,4.903
50.56,82.263,5.132
50.59,85.948,5.373
50.62,89.738,5.602
50.65,93.529,5.808
50.69,97.179,6.049
50.72,100.864,6.266
50.75,104.478,6.472
50.78,108.023,6.736
50.82,111.673,6.988
50.85,115.182,7.24
50.88,118.973,7.48
50.91,122.728,7.629
50.95,126.343,7.87
50.98,130.028,8.099
51.01,133.748,8.374
51.04,136.977,8.534
51.08,139.749,8.741
51.11,142.802,9.05
51.14,147.189,9.394
51.17,151.541,9.542
51.21,156.209,9.909
51.24,159.543,9.84
51.27,163.087,10.402
51.3,168.071,10.447
51.34,170.457,10.39
51.37,173.932,10.963
51.4,177.617,10.906
51.43,180.565,11.204
51.47,183.969,11.421
51.5,187.303,11.547
51.53,190.392,11.765
51.56,194.006,11.96
51.6,197.235,12.063
51.63,200.288,12.292
51.66,203.271,12.521
51.69,206.43,12.773
51.73,209.694,12.979
51.76,212.642,13.105
51.79,213.765,13.025
51.83,216.467,13.678
51.86,222.293,13.918
51.89,226.118,13.884
51.92,228.68,14.182
51.96,230.997,14.308
51.99,233.032,14.423
52.02,235.173,14.514
52.05,237.068,14.629
52.09,239.209,14.835
52.12,241.595,15.041
52.15,244.333,15.236
52.18,247.211,15.465
52.22,250.089,15.683
52.25,252.791,15.866
52.28,255.318,16.061
52.31,257.915,16.21
52.35,260.196,16.324
52.38,262.407,16.496
52.41,264.583,16.622
52.44,266.478,16.714
52.48,268.303,16.805
52.51,270.198,16.931
52.54,272.058,17.08
52.57,274.023,17.218
52.61,275.919,17.401
52.64,277.919,17.573
52.67,280.095,17.687
52.7,282.095,17.79
52.74,283.99,17.985
52.77,285.956,18.065
52.8,287.746,18.191
52.83,289.536,18.283
52.87,291.185,18.409
52.9,292.764,18.512
52.93,294.308,18.673
52.96,295.888,18.753
53.0,297.256,18.936
53.03,298.52,18.856
53.06,298.801,19.028
53.09,301.784,19.303
53.13,302.556,18.947
53.16,303.784,19.452
53.19,305.258,19.28
53.22,306.03,19.555
53.26,307.61,19.532
53.29,308.382,19.612
53.32,309.505,19.681
53.36,310.382,19.681
53.39,311.4,19.726
53.42,312.102,19.784
53.45,312.839,19.795
53.49,313.47,19.852
53.52,314.067,19.921
53.55,314.734,19.978
53.58,315.295,20.059
53.62,315.927,20.116
53.65,316.594,20.139
53.68,317.12,20.173
53.71,317.717,20.208
53.75,318.314,20.208
53.78,318.84,20.219
53.81,319.402,20.116
53.84,319.647,20.208
53.88,320.209,20.299
53.91,320.665,20.334
53.94,321.051,20.414
53.97,321.542,20.448
54.01,322.069,20.437
54.04,322.56,20.368
54.07,322.876,20.368
54.1,323.297,20.391
54.14,323.683,20.391
54.17,323.929,20.437
54.2,324.28,20.471
54.23,324.596,20.483
54.27,324.876,20.517
54.3,325.157,20.494
54.33,325.473,20.483
54.36,325.789,20.414
54.4,326.07,20.345
54.43,326.21,20.299
54.46,326.35,20.299
54.49,326.561,20.265
54.53,326.666,20.276
54.56,326.912,20.242
54.59,327.017,20.196
54.62,327.228,20.208
54.66,327.403,20.082
54.69,327.438,20.001
54.72,327.614,19.875
54.75,327.579,19.795
54.79,327.614,19.83
54.82,327.649,19.784
54.85,327.614,19.795
54.89,327.719,19.715
54.92,327.684,19.658
54.95,327.789,19.578
54.98,327.789,19.406
55.02,327.754,19.303
55.05,327.649,19.245
55.08,327.544,19.188
55.11,327.438,19.142
55.15,327.298,19.119
55.18,327.087,19.073
55.21,326.842,18.982
55.24,326.526,18.867
55.28,326.175,18.799
55.31,325.824,18.569
55.34,325.122,18.352
55.37,324.35,18.111
55.41,322.946,17.985
55.44,321.613,17.882
55.47,319.963,17.664
55.5,317.682,17.481
55.54,315.331,17.321
55.57,312.944,17.16
55.6,310.452,16.977
55.63,307.961,16.771
55.67,305.363,16.611
55.7,303.047,16.427
55.73,300.485,16.278
55.76,297.958,16.175
55.8,295.291,16.015
55.83,292.308,15.877
55.86,289.29,15.751
55.89,286.201,15.568
55.93,283.043,15.362
55.96,279.919,15.156
55.99,276.761,14.938
56.02,273.532,14.812
56.06,270.479,14.72
56.09,267.601,14.594
56.12,264.793,14.411
56.15,261.74,14.239
56.19,258.652,14.113
56.22,255.634,13.907
56.25,252.475,13.666
56.28,249.352,13.483
56.32,246.193,13.277
56.35,242.894,13.117
56.38,239.7,12.956
56.42,236.401,12.773
56.45,233.173,12.59
56.48,229.909,12.406
56.51,226.68,12.223
56.55,223.451,11.983
56.58,220.187,11.753
56.61,216.853,11.547
56.64,213.379,11.352
56.68,209.869,11.158
56.71,206.395,10.986
56.74,202.956,10.768
56.77,199.376,10.551
56.81,195.656,10.356
56.84,191.971,10.104
56.87,188.11,9.863
56.9,184.285,9.611
56.94,180.354,9.348
56.97,176.318,9.107
57.0,172.318,8.855
57.03,168.001,8.649
57.07,163.86,8.443
57.1,159.578,8.214
57.13,155.226,8.007
57.16,150.945,7.813
57.2,146.628,7.572
57.23,142.311,7.343
57.26,137.959,7.102
57.29,133.537,6.816
57.33,128.975,6.621
57.36,124.518,6.381
57.39,119.92,6.175
57.42,115.323,5.945
57.46,110.796,5.693
57.49,106.128,5.51
57.52,101.636,5.292
57.55,97.108,5.029
57.59,92.546,4.754
57.62,88.054,4.525
57.65,83.562,4.284
57.68,79.105,4.021
57.72,74.507,3.803
57.75,69.839,3.608
57.78,65.242,3.448
57.81,60.715,3.219
57.85,56.152,2.944
57.88,51.52,2.704
57.91,46.852,2.497
57.95,42.22,2.28
57.98,37.482,2.039
58.01,32.814,1.879
58.04,28.357,1.627
58.08,23.654,1.363
58.11,18.916,1.18
58.14,14.424,0.951
58.17,9.967,0.699
58.21,5.545,0.424
58.24,1.018,0.206
58.27,-3.65,0.08
58.3,-8.142,-0.069
58.34,-12.599,-0.298
58.37,-16.986,-0.596
58.4,-21.338,-0.962
58.43,-25.409,-1.443
58.47,-29.655,-1.993
58.5,-33.832,-2.486
58.53,-38.324,-2.967
58.56,-43.027,-3.288
58.6,-47.414,-3.494
58.63,-51.765,-3.654
58.66,-56.012,-3.78
58.69,-60.048,-3.883
58.73,-63.908,-4.044
58.76,-67.839,-4.181
58.79,-71.489,-4.33
58.82,-74.963,-4.605
58.86,-78.648,-4.869
58.89,-82.263,-5.155
58.92,-85.983,-5.396
58.95,-89.738,-5.625
58.99,-93.459,-5.877
59.02,-97.249,-6.083
59.05,-100.864,-6.289
59.08,-104.478,-6.541
59.12,-108.128,-6.782
59.15,-111.673,-7.011
59.18,-115.288,-7.251
59.21,-118.903,-7.446
59.25,-122.482,-7.687
59.28,-126.273,-7.881
59.31,-129.958,-8.122
59.34,-133.607,-8.351
59.38,-136.906,-8.477
59.41,-139.644,-8.626
59.44,-142.838,-9.038
59.48,-147.119,-9.313
59.51,-151.436,-9.611
59.54,-155.963,-9.772
59.57,-158.911,-9.955
59.61,-163.895,-10.528
59.64,-167.509,-10.184
59.67,-170.071,-10.654
59.7,-174.213,-10.768
59.74,-177.161,-10.848
59.77,-180.319,-11.123
59.8,-183.618,-11.352
59.83,-186.847,-11.536
59.87,-190.041,-11.799
59.9,-193.304,-11.902
59.93,-195.796,-12.143
59.96,-199.937,-12.487
60.0,-202.956,-12.418
60.03,-206.009,-12.853
60.06,-209.729,-13.025
60.09,-212.01,-13.036
60.13,-213.133,-13.14
60.16,-216.959,-13.815
60.19,-222.574,-13.85
60.22,-225.732,-13.884
60.26,-228.049,-14.228
60.29,-230.4,-14.377
60.32,-232.436,-14.48
60.35,-234.541,-14.526
60.39,-236.577,-14.537
60.42,-238.647,-14.652
60.45,-241.069,-14.938
60.48,-243.701,-15.224
60.52,-246.474,-15.499
60.55,-249.422,-15.706
60.58,-252.475,-15.877
60.61,-255.423,-16.003
60.65,-258.02,-16.129
60.68,-260.231,-16.301
60.71,-262.372,-16.439
60.74,-264.407,-16.542
60.78,-266.373,-16.656
60.81,-268.408,-16.737
60.84,-270.198,-16.84
60.87,-271.953,-17.011
60.91,-273.848,-17.115
60.94,-275.813,-17.241
60.97,-277.744,-17.435
61.01,-279.744,-17.619
61.04,-281.744,-17.79
61.07,-283.745,-17.939
61.1,-285.675,-18.065
61.14,-287.535,-18.168
61.17,-289.29,-18.249
61.2,-291.01,-18.352
61.23,-292.694,-18.432
61.27,-294.344,-18.512
61.3,-295.853,-18.592
61.33,-297.186,-18.73
61.36,-298.485,-18.833
61.4,-299.818,-18.947
61.43,-301.082,-19.085
61.46,-302.451,-19.154
61.49,-303.644,-19.222
61.53,-304.837,-19.303
61.56,-306.136,-19.326
61.59,-307.329,-19.348
61.62,-308.311,-19.417
61.66,-309.364,-19.486
61.69,-310.277,-19.578
61.72,-311.154,-19.646
61.75,-311.961,-19.704
61.79,-312.663,-19.749
61.82,-313.4,-19.807
61.85,-314.032,-19.83
61.88,-314.594,-19.887
61.92,-315.155,-19.933
61.95,-315.717,-19.978
61.98,-316.348,-20.07
62.01,-316.945,-20.116
62.05,-317.577,-20.162
62.08,-318.103,-20.196
62.11,-318.665,-20.219
62.14,-319.191,-20.219
62.18,-319.612,-20.219
62.21,-320.139,-20.265
62.24,-320.595,-20.265
62.27,-321.016,-20.334
62.31,-321.472,-20.368
62.34,-321.964,-20.402
62.37,-322.385,-20.448
62.4,-322.771,-20.471
62.44,-323.192,-20.483
62.47,-323.578,-20.471
62.5,-323.929,-20.437
62.54,-324.28,-20.437
62.57,-324.561,-20.425
62.6,-324.841,-20.425
62.63,-325.122,-20.425
62.67,-325.403,-20.448
62.7,-325.684,-20.414
62.73,-325.859,-20.448
62.76,-326.14,-20.402
62.8,-326.315,-20.311
62.83,-326.456,-20.276
62.86,-326.596,-20.265
62.89,-326.701,-20.276
62.93,-326.877,-20.242
62.96,-327.052,-20.196
62.99,-327.193,-20.093
63.02,-327.263,-20.024
63.06,-327.403,-19.933
63.09,-327.403,-19.864
63.12,-327.509,-19.784
63.15,-327.509,-19.704
63.19,-327.509,-19.658
63.22,-327.544,-19.612
63.25,-327.614,-19.497
63.28,-327.509,-19.452
63.32,-327.579,-19.44
63.35,-327.544,-19.348
63.38,-327.473,-19.303
63.41,-327.473,-19.154
63.45,-327.368,-19.062
63.48,-327.263,-18.97
63.51,-327.122,-18.936
63.54,-326.912,-18.821
63.58,-326.526,-18.695
63.61,-326.28,-18.615
63.64,-325.754,-18.409
63.67,-325.227,-18.352
63.71,-324.28,-18.088
63.74,-322.946,-18.02
63.77,-321.718,-17.802
63.8,-319.753,-17.55
63.84,-317.647,-17.344
63.87,-315.19,-17.115
63.9,-312.839,-16.977
63.93,-310.207,-16.805
63.97,-307.574,-16.725
64.0,-305.153,-16.553
64.03,-302.731,-16.439
64.07,-300.38,-16.244
64.1,-297.713,-16.106
64.13,-295.01,-15.98
64.16,-292.168,-15.797
64.2,-289.185,-15.637
64.23,-286.061,-15.431
64.26,-282.867,-15.305
64.29,-279.674,-15.133
64.33,-276.445,-14.972
64.36,-273.357,-14.812
64.39,-270.303,-14.652
64.42,-267.461,-14.468
64.46,-264.513,-14.342
64.49,-261.67,-14.216
64.52,-258.652,-14.045
64.55,-255.563,-13.896
64.59,-252.37,-13.747
64.62,-249.281,-13.563
64.65,-246.053,-13.357
64.68,-242.894,-13.162
64.72,-239.735,-12.933
64.75,-236.507,-12.727
64.78,-233.243,-12.521
64.81,-229.944,-12.338
64.85,-226.645,-12.166
64.88,-223.346,-11.983
64.91,-219.907,-11.811
64.94,-216.608,-11.616
64.98,-213.239,-11.387
65.01,-209.799,-11.169
65.04,-206.36,-10.917
65.07,-202.815,-10.688
65.11,-199.2,-10.47
65.14,-195.515,-10.253
65.17,-191.69,-10.069
65.2,-187.83,-9.886
65.24,-184.004,-9.68
65.27,-180.003,-9.474
65.3,-176.108,-9.256
65.33,-172.072,-8.981
65.37,-167.931,-8.752
65.4,-163.824,-8.489
65.43,-159.473,-8.271
65.46,-155.226,-8.053
65.5,-150.909,-7.813
65.53,-146.487,-7.618
65.56,-142.136,-7.366
65.6,-137.679,-7.137
65.63,-133.186,-6.896
65.66,-128.764,-6.61
65.69,-124.167,-6.346
65.73,-119.71,-6.106
65.76,-115.112,-5.877
65.79,-110.445,-5.693
65.82,-106.058,-5.499
65.86,-101.495,-5.27
65.89,-96.828,-5.075
65.92,-92.336,-4.834
65.95,-87.773,-4.617
65.99,-83.316,-4.387
66.02,-78.859,-4.135
66.05,-74.297,-3.895
66.08,-69.769,-3.643
66.12,-65.172,-3.448
66.15,-60.645,-3.219
66.18,-56.082,-2.967
66.21,-51.379,-2.726
66.25,-46.887,-2.486
66.28,-42.184,-2.268
66.31,-37.517,-2.062
66.34,-32.954,-1.81
66.38,-28.392,-1.558
66.41,-23.759,-1.34
66.44,-19.057,-1.111
66.47,-14.389,-0.916
66.51,-9.756,-0.756
66.54,-5.37,-0.561
66.57,-0.772,-0.378
66.6,3.65,-0.183
66.64,8.212,-0.023
66.67,12.599,0.183
66.7,16.986,0.481
66.73,21.233,0.859
66.77,25.339,1.329
66.8,29.55,1.867
66.83,33.762,2.383
66.86,38.219,2.852
66.9,42.851,3.173
66.93,47.133,3.437
66.96,51.52,3.654
66.99,55.766,3.792
67.03,59.767,3.941
67.06,63.733,4.101
67.09,67.628,4.25
67.13,71.313,4.422
67.16,74.963,4.639
67.19,78.613,4.857
67.22,82.298,5.098
67.26,85.948,5.35
67.29,89.633,5.613
67.32,93.459,5.831
67.35,97.179,6.003
67.39,100.829,6.209
67.42,104.443,6.438
67.45,108.058,6.69
67.48,111.708,6.942
67.52,115.288,7.183
67.55,118.903,7.469
67.58,122.623,7.71
67.61,126.378,7.973
67.65,130.238,8.133
67.68,133.958,8.34
67.71,137.328,8.466
67.74,140.1,8.626
67.78,143.118,8.924
67.81,147.365,9.29
67.84,151.717,9.508
67.87,156.384,9.943
67.91,159.894,9.863
67.94,163.193,10.402
67.97,168.282,10.436
68.0,170.563,10.344
68.04,174.002,10.894
68.07,177.898,10.837
68.1,180.775,11.112
68.13,184.074,11.341
68.17,187.128,11.524
68.2,190.251,11.765
68.23,193.585,12.005
68.26,196.884,12.189
68.3,200.183,12.395
68.33,203.342,12.544
68.36,206.606,12.75
68.39,209.834,12.933
68.43,212.782,13.059
68.46,213.976,12.945
68.49,216.467,13.632
68.52,222.293,13.941
68.56,226.224,13.918
68.59,228.821,14.193
68.62,231.137,14.239
68.66,232.927,14.365
68.69,235.033,14.457
68.72,237.068,14.583
68.75,239.174,14.778
68.79,241.736,14.949
68.82,244.333,15.247
68.85,247.316,15.499
68.88,250.124,15.671
68.92,252.756,15.889
68.95,255.423,16.026
68.98,258.02,16.129
69.01,260.336,16.244
69.05,262.512,16.404
69.08,264.618,16.542
69.11,266.548,16.679
69.14,268.408,16.828
69.18,270.233,16.989
69.21,272.163,17.149
69.24,274.164,17.264
69.27,276.164,17.378
69.31,278.094,17.516
69.34,280.13,17.687
69.37,282.025,17.836
69.4,284.096,17.997
69.44,285.956,18.1
69.47,287.746,18.283
69.5,289.5,18.363
69.53,291.29,18.489
69.57,292.764,18.524
69.6,294.484,18.684
69.63,295.818,18.673
69.66,297.432,18.947
69.7,298.099,18.718
69.73,299.292,19.199
69.76,301.994,19.096
69.79,302.24,19.096
69.83,304.1,19.406
69.86,305.153,19.199
69.89,306.381,19.452
69.92,307.645,19.383
69.96,308.487,19.555
69.99,309.575,19.6
70.02,310.452,19.681
70.05,311.365,19.749
70.09,312.137,19.83
70.12,312.804,19.864
70.15,313.576,19.898
70.19,314.172,19.864
70.22,314.839,19.852
70.25,315.366,19.875
70.28,315.892,19.967
70.32,316.489,20.082
70.35,317.015,20.196
70.38,317.682,20.242
70.41,318.173,20.311
70.45,318.805,20.334
70.48,319.261,20.276
70.51,319.788,20.242
70.54,320.314,20.208
70.58,320.63,20.276
70.61,321.191,20.345
70.64,321.542,20.391
70.67,322.069,20.425
70.71,322.49,20.402
70.74,322.876,20.471
70.77,323.262,20.494
70.8,323.683,20.471
70.84,323.999,20.448
70.87,324.315,20.517
70.9,324.666,20.46
70.93,324.876,20.483
70.97,325.298,20.425
71.0,325.473,20.414
71.03,325.754,20.425
71.06,326.035,20.379
71.1,326.21,20.368
71.13,326.421,20.345
71.16,326.491,20.345
71.19,326.807,20.299
71.23,327.017,20.127
71.26,327.052,20.162
71.29,327.263,20.093
71.32,327.298,20.07
71.36,327.403,20.082
71.39,327.438,20.059
71.42,327.544,20.001
71.45,327.684,19.864
71.49,327.719,19.738
71.52,327.684,19.669
71.55,327.719,19.612
71.58,327.719,19.6
71.62,327.754,19.52
71.65,327.649,19.509
71.68,327.684,19.463
71.72,327.684,19.337
71.75,327.649,19.165
71.78,327.579,19.028
71.81,327.403,18.936
71.85,327.158,18.879
71.88,326.912,18.833
71.91,326.526,18.753
71.94,326.14,18.684
71.98,325.613,18.615
72.01,325.052,18.466
72.04,324.174,18.272
72.07,323.016,18.1
72.11,321.718,17.882
72.14,319.998,17.687
72.17,317.682,17.504
72.2,315.331,17.355
72.24,312.979,17.149
72.27,310.347,17.0
72.3,307.855,16.817
72.33,305.293,16.668
72.37,302.977,16.496
72.4,300.661,16.244
72.43,297.888,16.118
72.46,295.256,16.003
72.5,292.308,15.854
72.53,289.185,15.717
72.56,286.131,15.557
72.59,282.973,15.362
72.63,279.779,15.19
72.66,276.515,15.041
72.69,273.462,14.881
72.72,270.549,14.663
72.76,267.636,14.503
72.79,264.758,14.377
72.82,261.775,14.262
72.85,258.722,14.102
72.89,255.669,13.93
72.92,252.51,13.735
72.95,249.316,13.563
72.98,246.158,13.357
73.02,242.999,13.117
73.05,239.771,12.922
73.08,236.612,12.67
73.11,233.243,12.475
73.15,229.944,12.326
73.18,226.645,12.166
73.21,223.346,11.994
73.25,220.012,11.799
73.28,216.608,11.627
73.31,213.239,11.421
73.34,209.799,11.192
73.38,206.43,10.94
73.41,202.885,10.711
73.44,199.271,10.482
73.47,195.621,10.287
73.51,191.866,10.081
73.54,188.005,9.863
73.57,184.145,9.668
73.6,180.214,9.439
73.64,176.213,9.187
73.67,172.353,8.912
73.7,168.282,8.637
73.73,164.035,8.408
73.77,159.824,8.179
73.8,155.437,7.985
73.83,151.12,7.801
73.86,146.768,7.584
73.9,142.346,7.343
73.93,137.889,7.102
73.96,133.432,6.839
73.99,128.835,6.598
74.03,124.413,6.335
74.06,119.885,6.049
74.09,115.182,5.877
74.12,110.69,5.705
74.16,106.198,5.51
74.19,101.601,5.315
74.22,96.968,5.098
74.25,92.441,4.892
74.29,88.089,4.617
74.32,83.632,4.33
74.35,79.14,4.078
74.38,74.577,3.838
74.42,69.945,3.62
74.45,65.312,3.448
74.48,60.715,3.23
74.51,56.047,3.013
74.55,51.344,2.807
74.58,46.852,2.555
74.61,42.255,2.28
74.64,37.587,2.039
74.68,32.99,1.81
74.71,28.497,1.558
74.74,23.9,1.306
74.78,19.127,1.123
74.81,14.529,0.916
74.84,9.932,0.733
74.87,5.334,0.55
74.91,0.877,0.332
74.94,-3.615,0.092
74.97,-8.318,-0.08
75.0,-12.704,-0.263
75.04,-17.091,-0.596
75.07,-21.408,-0.974
75.1,-25.444,-1.443
75.13,-29.691,-1.993
75.17,-33.972,-2.463
75.2,-38.57,-2.852
75.23,-43.167,-3.116
75.26,-47.449,-3.334
75.3,-51.73,-3.563
75.33,-55.872,-3.735
75.36,-59.837,-3.883
75.39,-63.698,-4.067
75.43,-67.488,-4.284
75.46,-71.243,-4.456
75.49,-74.893,-4.651
75.52,-78.613,-4.869
75.56,-82.333,-5.086
75.59,-85.913,-5.361
75.62,-89.598,-5.625
75.65,-93.388,-5.911
75.69,-97.214,-6.106
75.72,-100.899,-6.278
75.75,-104.443,-6.507
75.78,-108.058,-6.713
75.82,-111.708,-6.919
75.85,-115.218,-7.171
75.88,-118.903,-7.4
75.91,-122.517,-7.629
75.95,-126.202,-7.881
75.98,-129.993,-8.122
76.01,-133.572,-8.317
76.04,-136.906,-8.489
76.08,-139.784,-8.603
76.11,-142.978,-8.958
76.14,-147.435,-9.199
76.18,-151.717,-9.52
76.21,-156.244,-9.749
76.24,-159.297,-9.886
76.27,-164.07,-10.482
76.31,-167.615,-10.127
76.34,-169.966,-10.642
76.37,-174.178,-10.825
76.4,-177.336,-10.871
76.44,-180.565,-11.123
76.47,-183.794,-11.307
76.5,-186.812,-11.444
76.53,-190.005,-11.776
76.57,-193.094,-11.822
76.6,-196.077,-12.2
76.63,-200.113,-12.349
76.66,-202.71,-12.441
76.7,-206.184,-12.876
76.73,-209.729,-12.945
76.76,-212.115,-13.002
76.79,-213.309,-13.036
76.83,-216.924,-13.689
76.86,-222.504,-13.781
76.89,-225.838,-13.873
76.92,-228.224,-14.193
76.96,-230.295,-14.377
76.99,-232.26,-14.48
77.02,-234.471,-14.537
77.05,-236.647,-14.526
77.09,-238.928,-14.583
77.12,-241.315,-14.789
77.15,-243.842,-15.064
77.18,-246.579,-15.362
77.22,-249.422,-15.591
77.25,-252.37,-15.809
77.28,-255.212,-16.015
77.31,-257.669,-16.164
77.35,-260.02,-16.29
77.38,-262.196,-16.381
77.41,-264.232,-16.45
77.44,-266.162,-16.565
77.48,-268.092,-16.725
77.51,-270.128,-16.84
77.54,-271.988,-17.034
77.57,-273.918,-17.172
77.61,-275.883,-17.298
77.64,-277.919,-17.481
77.67,-279.884,-17.653
77.71,-282.06,-17.779
77.74,-284.061,-17.871
77.77,-285.886,-17.997
77.8,-287.64,-18.134
77.84,-289.465,-18.272
77.87,-291.15,-18.34
77.9,-292.764,-18.432
77.93,-294.414,-18.524
77.97,-295.888,-18.581
78.0,-297.292,-18.661
78.03,-298.555,-18.741
78.06,-299.818,-18.844
78.1,-301.117,-18.97
78.13,-302.38,-19.085
78.16,-303.714,-19.188
78.19,-304.872,-19.291
78.23,-305.995,-19.406
78.26,-307.224,-19.452
78.29,-308.206,-19.497
78.32,-309.294,-19.532
78.36,-310.242,-19.555
78.39,-311.049,-19.623
78.42,-311.926,-19.681
78.45,-312.628,-19.738
78.49,-313.365,-19.795
78.52,-313.997,-19.852
78.55,-314.629,-19.887
78.58,-315.331,-19.887
78.62,-315.892,-19.91
78.65,-316.559,-19.967
78.68,-317.05,-20.024
78.71,-317.682,-20.104
78.75,-318.279,-20.104
78.78,-318.805,-20.127
78.81,-319.261,-20.15
78.84,-319.682,-20.162
78.88,-320.209,-20.196
78.91,-320.63,-20.23
78.94,-321.156,-20.276
78.97,-321.507,-20.345
79.01,-321.964,-20.414
79.04,-322.42,-20.494
79.07,-322.806,-20.528
79.1,-323.192,-20.609
79.14,-323.648,-20.574
79.17,-324.034,-20.517
79.2,-324.42,-20.448
79.24,-324.666,-20.357
79.27,-324.947,-20.357
79.3,-325.227,-20.311
79.33,-325.403,-20.345
79.37,-325.754,-20.345
79.4,-325.929,-20.334
79.43,-326.105,-20.334
79.46,-326.28,-20.322
79.5,-326.456,-20.276
79.53,-326.631,-20.242
79.56,-326.772,-20.208
79.59,-326.947,-20.162
79.63,-327.122,-20.082
79.66,-327.087,-20.104
79.69,-327.298,-20.013
79.72,-327.298,-19.944
79.76,-327.368,-19.933
79.79,-327.403,-19.83
79.82,-327.473,-19.761
79.85,-327.544,-19.658
79.89,-327.579,-19.589
79.92,-327.579,-19.497
79.95,-327.579,-19.452
79.98,-327.544,-19.383
80.02,-327.473,-19.326
80.05,-327.438,-19.234
80.08,-327.403,-19.188
80.11,-327.298,-19.131
80.15,-327.193,-19.085
80.18,-327.017,-18.959
80.21,-326.666,-18.867
80.24,-326.421,-18.787
80.28,-326.175,-18.604
80.31,-325.684,-18.443
80.34,-324.947,-18.317
80.37,-324.069,-18.157
80.41,-322.841,-18.008
80.44,-321.437,-17.825
80.47,-319.612,-17.584
80.5,-317.401,-17.378
80.54,-315.085,-17.195
80.57,-312.769,-16.966
80.6,-310.312,-16.771
80.63,-307.539,-16.679
80.67,-305.083,-16.622
80.7,-302.661,-16.473
80.73,-300.204,-16.336
80.77,-297.643,-16.21
80.8,-295.045,-16.061
80.83,-292.343,-15.786
80.86,-289.255,-15.602
80.9,-286.131,-15.454
80.93,-282.973,-15.27
80.96,-279.779,-15.121
80.99,-276.515,-14.984
81.03,-273.427,-14.823
81.06,-270.303,-14.663
81.09,-267.39,-14.56
81.12,-264.653,-14.377
81.16,-261.705,-14.205
81.19,-258.722,-14.022
81.22,-255.634,-13.827
81.25,-252.44,-13.678
81.29,-249.246,-13.529
81.32,-245.982,-13.369
81.35,-242.754,-13.231
81.38,-239.63,-13.014
81.42,-236.331,-12.784
81.45,-233.067,-12.624
81.48,-229.979,-12.361
81.51,-226.68,-12.154
81.55,-223.486,-11.948
81.58,-220.117,-11.742
81.61,-216.713,-11.582
81.64,-213.344,-11.41
81.68,-209.799,-11.192
81.71,-206.255,-10.974
81.74,-202.745,-10.757
81.77,-199.095,-10.528
81.81,-195.34,-10.333
81.84,-191.62,-10.104
81.87,-187.83,-9.863
81.9,-183.969,-9.646
81.94,-179.968,-9.451
81.97,-176.038,-9.245
82.0,-172.037,-8.993
82.03,-167.931,-8.741
82.07,-163.895,-8.489
82.1,-159.613,-8.237
82.13,-155.331,-8.007
82.16,-151.085,-7.755
82.2,-146.698,-7.538
82.23,-142.346,-7.309
82.26,-137.889,-7.034
82.3,-133.257,-6.805
82.33,-128.659,-6.541
82.36,-123.991,-6.323
82.39,-119.464,-6.117
82.43,-114.902,-5.9
82.46,-110.374,-5.705
82.49,-105.847,-5.487
82.52,-101.32,-5.292
82.56,-96.758,-5.063
82.59,-92.195,-4.857
82.62,-87.773,-4.617
82.65,-83.281,-4.387
82.69,-78.824,-4.135
82.72,-74.297,-3.872
82.75,-69.769,-3.643
82.78,-65.242,-3.379
82.82,-60.609,-3.15
82.85,-56.012,-2.933
82.88,-51.274,-2.726
82.91,-46.677,-2.543
82.95,-42.114,-2.325
82.98,-37.411,-2.096
83.01,-32.919,-1.844
83.04,-28.462,-1.569
83.08,-23.759,-1.306
83.11,-19.127,-1.123
83.14,-14.635,-0.905
83.17,-10.037,-0.722
83.21,-5.475,-0.573
83.24,-1.018,-0.389
83.27,3.545,-0.183
83.3,8.212,-0.046
83.34,12.599,0.149
83.37,17.021,0.47
83.4,21.338,0.836
83.43,25.479,1.294
83.47,29.726,1.856
83.5,33.937,2.325
83.53,38.429,2.784
83.56,43.062,3.093
83.6,47.273,3.345
83.63,51.52,3.654
83.66,55.696,3.826
83.69,59.662,4.021
83.73,63.593,4.193
83.76,67.628,4.33
83.79,71.313,4.433
83.83,74.893,4.639
83.86,78.543,4.834
83.89,82.193,5.075
83.92,85.808,5.304
83.96,89.388,5.544
83.99,93.037,5.808
84.02,96.687,6.026
84.05,100.372,6.278
84.09,104.092,6.53
84.12,107.848,6.77
84.15,111.568,7.011
84.18,115.253,7.217
84.22,118.867,7.48
84.25,122.623,7.675
84.28,126.343,7.893
84.31,129.993,8.133
84.35,133.783,8.408
84.38,137.152,8.523
84.41,139.89,8.718
84.44,143.013,8.97
84.48,147.295,9.256
84.51,151.576,9.405
84.54,156.279,9.875
84.57,159.999,9.84
84.61,163.509,10.39
84.64,168.352,10.459
84.67,170.844,10.413
84.7,174.388,10.917
84.74,177.863,10.825
84.77,180.705,11.112
84.8,184.109,11.272
84.83,187.268,11.444
84.87,190.392,11.696
84.9,193.796,11.971
84.93,196.989,12.166
84.96,200.008,12.406
85.0,203.096,12.601
85.03,206.36,12.807
85.06,209.764,12.968
85.09,212.923,13.082
85.13,214.221,12.922
85.16,216.397,13.506
85.19,222.012,13.941
85.22,226.224,13.85
85.26,228.645,14.136
85.29,231.032,14.308
85.32,233.102,14.377
85.36,235.173,14.468
85.39,237.209,14.571
85.42,239.174,14.778
85.45,241.525,14.995
85.49,244.228,15.236
85.52,247.141,15.476
85.55,250.018,15.706
85.58,252.65,15.912
85.62,255.247,16.129
85.65,257.95,16.21
85.68,260.196,16.301
85.71,262.512,16.439
85.75,264.618,16.496
85.78,266.478,16.645
85.81,268.373,16.794
85.84,270.198,16.943
85.88,272.163,17.08
85.91,274.129,17.183
85.94,275.919,17.344
85.97,277.919,17.527
86.01,279.99,17.642
86.04,282.06,17.79
86.07,283.885,17.985
86.1,285.745,18.203
86.14,287.675,18.272
86.17,289.395,18.352
86.2,291.045,18.466
86.23,292.729,18.569
86.27,294.308,18.627
86.3,295.888,18.73
86.33,297.256,18.753
86.36,298.625,18.833
86.4,299.748,18.902
86.43,301.398,19.073
86.46,301.643,18.936
86.49,303.679,19.452
86.53,305.574,19.131
86.56,305.89,19.463
86.59,307.785,19.52
86.62,308.311,19.474
86.66,309.645,19.623
86.69,310.487,19.555
86.72,311.4,19.715
86.75,312.032,19.784
86.79,312.663,19.887
86.82,313.4,19.933
86.85,314.032,20.013
86.89,314.664,20.036
86.92,315.366,20.013
86.95,315.892,20.013
86.98,316.559,20.07
87.02,317.05,20.116
87.05,317.577,20.196
87.08,318.208,20.242
87.11,318.735,20.265
87.15,319.086,20.311
87.18,319.647,20.357
87.21,320.209,20.357
87.24,320.665,20.357
87.28,321.191,20.345
87.31,321.577,20.357
87.34,321.999,20.425
87.37,322.385,20.494
87.41,322.771,20.563
87.44,323.262,20.574
87.47,323.648,20.494
87.5,323.999,20.528
87.54,324.525,20.414
87.57,324.666,20.334
87.6,325.052,20.322
87.63,325.262,20.253
87.67,325.578,20.276
87.7,325.789,20.276
87.73,325.964,20.345
87.76,326.105,20.402
87.8,326.35,20.437
87.83,326.561,20.345
87.86,326.736,20.311
87.89,326.982,20.208
87.93,327.087,20.116
87.96,327.228,20.059
87.99,327.298,20.07
88.02,327.438,19.99
88.06,327.509,19.944
88.09,327.473,19.944
88.12,327.579,19.967
88.15,327.684,19.852
88.19,327.754,19.715
88.22,327.824,19.555
88.25,327.684,19.543
88.28,327.719,19.555
88.32,327.684,19.474
88.35,327.684,19.452
88.38,327.649,19.337
88.42,327.509,19.314
88.45,327.473,19.268
88.48,327.438,19.108
88.51,327.298,18.913
88.55,326.947,18.776
88.58,326.561,18.695
88.61,326.21,18.615
88.64,325.684,18.501
88.68,325.052,18.386
88.71,324.21,18.203
88.74,323.016,18.042
88.77,321.648,17.871
88.81,319.963,17.676
88.84,317.787,17.435
88.87,315.436,17.252
88.9,313.084,17.08
88.94,310.487,16.92
88.97,307.89,16.771
89.0,305.328,16.622
89.03,302.872,16.485
89.07,300.485,16.347
89.1,297.993,16.175
89.13,295.291,16.026
89.16,292.448,15.877
89.2,289.5,15.694
89.23,286.342,15.522
89.26,283.148,15.373
89.29,279.99,15.213
89.33,276.761,15.03
89.36,273.532,14.881
89.39,270.514,14.766
89.42,267.741,14.606
89.46,264.934,14.423
89.49,261.951,14.251
89.52,258.897,14.067
89.55,255.669,13.93
89.59,252.58,13.758
89.62,249.457,13.575
89.65,246.228,13.369
89.68,243.034,13.14
89.72,239.735,12.956
89.75,236.507,12.761
89.78,233.278,12.521
89.81,230.014,12.315
89.85,226.715,12.166
89.88,223.451,11.971
89.91,220.117,11.799
89.95,216.783,11.616
89.98,213.344,11.387
90.01,209.869,11.169
90.04,206.43,10.929
90.08,202.921,10.722
90.11,199.376,10.47
90.14,195.656,10.207
90.17,191.725,10.047
90.21,188.005,9.817
90.24,184.109,9.611
90.27,180.179,9.394
90.3,176.178,9.164
90.34,172.072,8.981
90.37,168.071,8.729
90.4,163.895,8.489
90.43,159.648,8.259
90.47,155.507,8.019
90.5,151.225,7.755
90.53,146.909,7.515
90.56,142.451,7.332
90.6,137.994,7.148
90.63,133.502,6.919
90.66,128.94,6.69
90.69,124.377,6.461
90.73,119.991,6.152
90.76,115.358,5.888
90.79,110.725,5.67
90.82,106.268,5.43
90.86,101.601,5.201
90.89,96.933,5.04
90.92,92.371,4.857
90.95,87.914,4.617
90.99,83.456,4.387
91.02,78.929,4.147
91.05,74.542,3.883
91.08,69.91,3.643
91.12,65.417,3.437
91.15,60.89,3.173
91.18,56.187,2.956
91.21,51.555,2.761
91.25,46.887,2.566
91.28,42.29,2.337
91.31,37.552,2.096
91.34,32.99,1.867
91.38,28.497,1.627
91.41,23.9,1.352
91.44,19.232,1.123
91.48,14.635,0.916
91.51,10.072,0.664
91.54,5.51,0.493
91.57,0.948,0.332
91.61,-3.615,0.172
91.64,-8.212,0.023
91.67,-12.669,-0.206
91.7,-17.021,-0.515
91.74,-21.408,-0.905
91.77,-25.479,-1.375
91.8,-29.761,-1.925
91.83,-34.007,-2.417
91.87,-38.535,-2.864
91.9,-43.202,-3.116
91.93,-47.554,-3.311
91.96,-51.906,-3.517
92.0,-56.117,-3.643
92.03,-59.943,-3.861
92.06,-63.873,-4.044
92.09,-67.699,-4.261
92.13,-71.384,-4.433
92.16,-74.963,-4.617
92.19,-78.508,-4.869
92.22,-82.228,-5.109
92.26,-85.913,-5.361
92.29,-89.668,-5.625
92.32,-93.388,-5.865
92.35,-97.038,-6.129
92.39,-100.688,-6.346
92.42,-104.303,-6.564
92.45,-107.848,-6.816
92.48,-111.568,-6.988
92.52,-115.182,-7.194
92.55,-118.832,-7.423
92.58,-122.552,-7.606
92.61,-126.167,-7.824
92.65,-129.817,-8.111
92.68,-133.502,-8.328
92.71,-136.731,-8.523
92.74,-139.679,-8.672
92.78,-142.908,-9.016
92.81,-147.365,-9.268
92.84,-151.646,-9.508
92.87,-156.068,-9.737
92.91,-159.087,-9.886
92.94,-163.895,-10.505
92.97,-167.65,-10.207
93.01,-170.107,-10.688
93.04,-174.213,-10.906
93.07,-177.371,-10.917
93.1,-180.424,-11.158
93.14,-183.864,-11.33
93.17,-187.022,-11.456
93.2,-190.251,-11.673
93.23,-192.883,-11.753
93.27,-196.428,-12.235
93.3,-199.973,-12.235
93.33,-202.605,-12.532
93.36,-206.43,-12.819
93.4,-209.483,-12.91
93.43,-212.115,-13.059
93.46,-213.239,-13.036
93.49,-216.713,-13.689
93.53,-222.469,-13.792
93.56,-225.768,-13.827
93.59,-228.084,-14.182
93.62,-230.295,-14.388
93.66,-232.295,-14.549
93.69,-234.576,-14.571
93.72,-236.647,-14.526
93.75,-238.823,-14.617
93.79,-241.315,-14.801
93.82,-243.806,-15.075
93.85,-246.649,-15.373
93.88,-249.492,-15.591
93.92,-252.335,-15.832
93.95,-255.318,-16.026
93.98,-257.739,-16.164
94.01,-260.126,-16.29
94.05,-262.302,-16.404
94.08,-264.372,-16.496
94.11,-266.302,-16.588
94.14,-268.198,-16.748
94.18,-270.163,-16.885
94.21,-271.988,-17.011
94.24,-273.848,-17.172
94.27,-275.813,-17.321
94.31,-277.744,-17.481
94.34,-279.779,-17.642
94.37,-281.815,-17.79
94.4,-283.78,-17.894
94.44,-285.71,-17.997
94.47,-287.57,-18.088
94.5,-289.325,-18.203
94.54,-291.01,-18.306
94.57,-292.659,-18.432
94.6,-294.238,-18.547
94.63,-295.747,-18.638
94.67,-297.116,-18.764
94.7,-298.52,-18.833
94.73,-299.783,-18.902
94.76,-301.152,-19.016
94.8,-302.486,-19.073
94.83,-303.609,-19.177
94.86,-304.837,-19.303
94.89,-306.065,-19.406
94.93,-307.224,-19.497
94.96,-308.417,-19.578
94.99,-309.435,-19.589
95.02,-310.382,-19.635
95.06,-311.295,-19.635
95.09,-311.961,-19.692
95.12,-312.698,-19.761
95.15,-313.4,-19.795
95.19,-313.962,-19.83
95.22,-314.629,-19.887
95.25,-315.225,-19.944
95.28,-315.857,-19.978
95.32,-316.489,-20.013
95.35,-317.12,-20.047
95.38,-317.682,-20.059
95.41,-318.243,-20.082
95.45,-318.77,-20.139
95.48,-319.121,-20.173
95.51,-319.577,-20.276
95.54,-320.174,-20.322
95.58,-320.63,-20.345
95.61,-321.086,-20.379
95.64,-321.542,-20.379
95.67,-322.034,-20.379
95.71,-322.455,-20.391
95.74,-322.841,-20.425
95.77,-323.192,-20.448
95.8,-323.613,-20.483
95.84,-323.929,-20.483
95.87,-324.28,-20.517
95.9,-324.561,-20.483
95.93,-324.806,-20.517
95.97,-325.192,-20.448
96.0,-325.543,-20.322
96.03,-325.719,-20.253
96.07,-325.929,-20.242
96.1,-326.105,-20.242
96.13,-326.315,-20.23
96.16,-326.456,-20.23
96.2,-326.631,-20.185
96.23,-326.701,-20.196
96.26,-326.912,-20.15
96.29,-327.017,-20.127
96.33,-327.122,-20.07
96.36,-327.228,-19.978
96.39,-327.333,-19.967
96.42,-327.403,-19.875
96.46,-327.403,-19.83
96.49,-327.473,-19.795
96.52,-327.509,-19.726
96.55,-327.544,-19.681
96.59,-327.579,-19.589
96.62,-327.614,-19.486
96.65,-327.614,-19.394
96.68,-327.579,-19.291
96.72,-327.509,-19.188
96.75,-327.438,-19.154
96.78,-327.298,-19.131
96.81,-327.263,-19.016
96.85,-327.122,-18.89
96.88,-326.947,-18.833
96.91,-326.456,-18.695
96.94,-326.245,-18.661
96.98,-325.789,-18.466
97.01,-325.192,-18.363
97.04,-324.49,-18.077
97.07,-322.981,-17.939
97.11,-321.718,-17.825
97.14,-319.788,-17.561
97.17,-317.647,-17.367
97.2,-315.225,-17.126
97.24,-312.769,-17.023
97.27,-310.312,-16.817
97.3,-307.61,-16.679
97.33,-305.188,-16.553
97.37,-302.661,-16.427
97.4,-300.275,-16.313
97.43,-297.678,-16.164
97.46,-295.081,-16.026
97.5,-292.238,-15.854
97.53,-289.29,-15.683
97.56,-286.166,-15.488
97.6,-282.973,-15.316
97.63,-279.884,-15.11
97.66,-276.55,-14.949
97.69,-273.427,-14.812
97.73,-270.374,-14.629
97.76,-267.426,-14.491
97.79,-264.548,-14.377
97.82,-261.635,-14.228
97.86,-258.687,-14.045
97.89,-255.563,-13.85
97.92,-252.44,-13.655
97.95,-249.281,-13.483
97.99,-246.123,-13.266
98.02,-242.859,-13.082
98.05,-239.595,-12.933
98.08,-236.331,-12.761
98.12,-233.067,-12.601
98.15,-229.803,-12.406
98.18,-226.61,-12.177
98.21,-223.311,-11.96
98.25,-220.047,-11.753
98.28,-216.713,-11.536
98.31,-213.274,-11.307
98.34,-209.799,-11.112
98.38,-206.29,-10.917
98.41,-202.71,-10.711
98.44,-199.095,-10.493
98.47,-195.41,-10.299
98.51,-191.62,-10.081
98.54,-187.83,-9.852
98.57,-183.934,-9.657
98.6,-179.968,-9.405
98.64,-176.038,-9.187
98.67,-171.967,-8.981
98.7,-167.86,-8.752
98.73,-163.684,-8.534
98.77,-159.508,-8.294
98.8,-155.296,-8.03
98.83,-151.085,-7.767
98.86,-146.768,-7.492
98.9,-142.381,-7.251
98.93,-137.994,-6.999
98.96,-133.362,-6.793
98.99,-128.835,-6.575
99.03,-124.377,-6.346
99.06,-119.675,-6.152
99.09,-115.112,-5.911
99.13,-110.55,-5.682
99.16,-105.988,-5.464
99.19,-101.425,-5.247
99.22,-96.793,-5.052
99.26,-92.195,-4.834
99.29,-87.668,-4.617
99.32,-83.141,-4.399
99.35,-78.648,-4.181
99.39,-74.191,-3.929
99.42,-69.629,-3.712
99.45,-65.102,-3.482
99.48,-60.574,-3.242
99.52,-56.012,-3.013
99.55,-51.45,-2.749
99.58,-46.852,-2.532
99.61,-42.325,-2.257
99.65,-37.587,-2.039
99.68,-32.954,-1.833
99.71,-28.357,-1.604
99.74,-23.759,-1.363
99.78,-19.162,-1.111
99.81,-14.635,-0.859
99.84,-10.072,-0.642
99.87,-5.58,-0.47
99.91,-1.088,-0.309
99.94,3.58,-0.183
99.97,8.142,-0.069
100.0,12.564,0.16
100.04,16.916,0.458
100.07,21.233,0.825
100.1,25.339,1.283
100.13,29.585,1.833
100.17,33.727,2.394
100.2,38.289,2.875
100.23,42.957,3.196
100.26,47.379,3.402
100.3,51.73,3.597
100.33,56.012,3.723
100.36,59.978,3.861
100.39,63.908,4.055
100.43,67.734,4.284
100.46,71.524,4.445
100.49,75.034,4.685
100.52,78.683,4.926
100.56,82.298,5.132
100.59,85.878,5.373
100.62,89.668,5.567
100.66,93.459,5.751
100.69,97.108,6.003
100.72,100.829,6.232
100.75,104.443,6.449
100.79,108.058,6.713
100.82,111.638,6.965
100.85,115.182,7.194
100.88,118.903,7.435
100.92,122.623,7.629
100.95,126.343,7.881
100.98,130.098,8.122
101.01,133.888,8.385
101.05,137.187,8.546
101.08,139.995,8.741
101.11,143.153,9.004
101.14,147.505,9.29
101.18,151.857,9.462
101.21,156.63,9.852
101.24,159.964,9.76
101.27,163.474,10.356
101.31,168.246,10.333
101.34,170.387,10.39
101.37,174.142,10.871
101.4,177.652,10.848
101.44,180.67,11.226
101.47,184.109,11.398
101.5,187.198,11.559
101.53,190.427,11.753
101.57,193.726,11.925
101.6,196.954,12.097
101.63,200.218,12.338
101.66,203.236,12.578
101.7,206.606,12.842
101.73,209.764,13.002
101.76,212.712,13.162
101.79,214.011,13.036
101.83,216.397,13.575
101.86,222.188,13.896
101.89,226.399,13.827
101.92,228.996,14.113
101.96,231.172,14.274
101.99,233.032,14.411
102.02,234.998,14.56
102.05,237.103,14.663
102.09,239.139,14.835
102.12,241.666,15.03
102.15,244.438,15.167
102.19,247.316,15.385
102.22,250.194,15.602
102.25,252.756,15.82
102.28,255.353,16.038
102.32,257.915,16.198
102.35,260.196,16.37
102.38,262.477,16.485
102.41,264.548,16.622
102.45,266.443,16.737
102.48,268.408,16.805
102.51,270.338,16.885
102.54,272.128,17.057
102.58,274.164,17.206
102.61,275.954,17.401
102.64,278.024,17.596
102.67,280.13,17.71
102.71,282.025,17.871
102.74,284.131,17.951
102.77,285.886,18.054
102.8,287.711,18.203
102.84,289.5,18.26
102.87,291.045,18.398
102.9,292.799,18.489
102.93,294.273,18.615
102.97,295.818,18.684
103.0,297.186,18.833
103.03,298.485,18.925
103.06,299.818,19.119
103.1,301.257,19.028
103.13,301.608,19.085
103.16,304.381,19.394
103.19,305.118,19.028
103.23,306.1,19.646
103.26,307.82,19.44
103.29,308.347,19.669
103.32,309.785,19.692
103.36,310.558,19.681
103.39,311.505,19.749
103.42,312.242,19.715
103.45,312.944,19.749
103.49,313.576,19.807
103.52,314.172,19.852
103.55,314.804,19.91
103.58,315.331,19.967
103.62,315.857,20.082
103.65,316.489,20.162
103.68,317.12,20.208
103.72,317.822,20.173
103.75,318.419,20.116
103.78,318.945,20.093
103.81,319.296,20.116
103.85,319.612,20.23
103.88,320.244,20.345
103.91,320.7,20.379
103.94,321.156,20.425
103.98,321.683,20.448
104.01,322.104,20.425
104.04,322.595,20.379
104.07,322.981,20.357
104.11,323.262,20.402
104.14,323.718,20.402
104.17,324.034,20.414
104.2,324.315,20.483
104.24,324.596,20.528
104.27,324.911,20.563
104.3,325.298,20.517
104.33,325.613,20.414
104.37,325.859,20.311
104.4,326.07,20.265
104.43,326.21,20.299
104.46,326.385,20.334
104.5,326.561,20.322
104.53,326.736,20.311
104.56,326.912,20.276
104.59,327.087,20.219
104.63,327.263,20.173
104.66,327.403,20.093
104.69,327.438,20.013
104.72,327.509,19.978
104.76,327.509,19.967
104.79,327.544,20.013
104.82,327.684,19.933
104.85,327.719,19.875
104.89,327.719,19.818
104.92,327.754,19.726
104.95,327.754,19.6
104.98,327.719,19.543
105.02,327.789,19.429
105.05,327.754,19.291
105.08,327.614,19.177
105.12,327.509,19.119
105.15,327.403,19.051
105.18,327.228,18.959
105.21,326.912,18.89
105.25,326.526,18.821
105.28,326.175,18.776
105.31,325.719,18.65
105.34,325.227,18.466
105.38,324.174,18.249
105.41,323.016,18.111
105.44,321.613,17.939
105.47,319.928,17.733
105.51,317.752,17.47
105.54,315.366,17.286
105.57,313.049,17.08
105.6,310.487,16.908
105.64,307.996,16.714
105.67,305.363,16.565
105.7,302.907,16.45
105.73,300.45,16.313
105.77,297.783,16.198
105.8,294.975,16.095
105.83,292.097,15.946
105.86,289.079,15.774
105.9,286.061,15.591
105.93,283.008,15.385
105.96,279.955,15.144
105.99,276.691,14.949
106.03,273.497,14.823
106.06,270.444,14.709
106.09,267.601,14.571
106.12,264.758,14.411
106.16,261.705,14.297
106.19,258.687,14.136
106.22,255.669,13.941
106.25,252.58,13.747
106.29,249.492,13.506
106.32,246.228,13.3
106.35,243.069,13.117
106.38,239.771,12.956
106.42,236.542,12.796
106.45,233.278,12.578
106.48,229.909,12.395
106.51,226.61,12.212
106.55,223.346,11.983
106.58,220.047,11.753
106.61,216.713,11.57
106.65,213.344,11.364
106.68,209.799,11.158
106.71,206.29,10.974
106.74,202.745,10.768
106.78,199.13,10.573
106.81,195.445,10.39
106.84,191.69,10.173
106.87,187.97,9.921
106.91,184.145,9.68
106.94,180.214,9.428
106.97,176.248,9.176
107.0,172.247,8.947
107.04,168.176,8.706
107.07,163.965,8.443
107.1,159.683,8.214
107.13,155.402,7.985
107.17,151.015,7.778
107.2,146.698,7.572
107.23,142.381,7.32
107.26,137.959,7.057
107.3,133.432,6.862
107.33,128.94,6.644
107.36,124.413,6.449
107.39,119.885,6.232
107.43,115.393,5.98
107.46,110.76,5.774
107.49,106.339,5.522
107.52,101.811,5.235
107.56,97.249,4.972
107.59,92.616,4.72
107.62,88.019,4.525
107.65,83.456,4.296
107.69,78.789,4.078
107.72,74.191,3.906
107.75,69.559,3.735
107.78,65.031,3.54
107.82,60.645,3.242
107.85,56.117,2.944
107.88,51.52,2.692
107.91,46.992,2.474
107.95,42.36,2.234
107.98,37.587,2.028
108.01,33.025,1.821
108.04,28.462,1.604
108.08,23.759,1.386
108.11,19.127,1.168
108.14,14.494,0.962
108.18,10.107,0.71
108.21,5.65,0.458
108.24,1.123,0.241
108.27,-3.404,0.069
108.31,-8.037,-0.08
108.34,-12.494,-0.298
108.37,-16.951,-0.596
108.4,-21.373,-0.974
108.44,-25.514,-1.443
108.47,-29.726,-1.993
108.5,-33.902,-2.497
108.53,-38.429,-2.978
108.57,-43.167,-3.253
108.6,-47.589,-3.391
108.63,-51.941,-3.574
108.66,-56.223,-3.666
108.7,-60.083,-3.803
108.73,-63.943,-4.009
108.76,-67.804,-4.193
108.79,-71.454,-4.399
108.83,-75.069,-4.628
108.86,-78.613,-4.914
108.89,-82.404,-5.155
108.92,-86.053,-5.361
108.96,-89.703,-5.602
108.99,-93.494,-5.819
109.02,-97.214,-6.014
109.05,-100.899,-6.243
109.09,-104.443,-6.507
109.12,-107.953,-6.782
109.15,-111.568,-7.011
109.18,-115.147,-7.274
109.22,-118.762,-7.492
109.25,-122.482,-7.675
109.28,-126.202,-7.836
109.31,-129.817,-8.076
109.35,-133.502,-8.294
109.38,-136.766,-8.477
109.41,-139.679,-8.637
109.44,-142.838,-9.016
109.48,-147.224,-9.302
109.51,-151.576,-9.588
109.54,-156.104,-9.806
109.57,-159.297,-9.909
109.61,-164.14,-10.425
109.64,-167.72,-10.104
109.67,-170.212,-10.562
109.71,-174.353,-10.757
109.74,-177.441,-10.825
109.77,-180.6,-11.123
109.8,-183.759,-11.33
109.84,-186.917,-11.456
109.87,-189.97,-11.708
109.9,-193.375,-11.914
109.93,-196.638,-12.154
109.97,-199.832,-12.235
110.0,-202.254,-12.441
110.03,-206.325,-12.876
110.06,-209.483,-12.784
110.1,-211.694,-13.048
110.13,-213.203,-13.059
110.16,-216.678,-13.747
110.19,-222.574,-13.896
110.23,-226.013,-13.896
110.26,-228.294,-14.193
110.29,-230.26,-14.388
110.32,-232.436,-14.514
110.36,-234.612,-14.526
110.39,-236.682,-14.514
110.42,-238.893,-14.583
110.45,-241.245,-14.846
110.49,-243.771,-15.144
110.52,-246.579,-15.408
110.55,-249.457,-15.614
110.58,-252.475,-15.832
110.62,-255.493,-15.969
110.65,-258.055,-16.072
110.68,-260.196,-16.278
110.71,-262.302,-16.45
110.75,-264.337,-16.553
110.78,-266.232,-16.679
110.81,-268.233,-16.794
110.84,-270.233,-16.863
110.88,-272.023,-16.989
110.91,-273.918,-17.16
110.94,-275.848,-17.275
110.97,-277.744,-17.458
111.01,-279.744,-17.642
111.04,-281.744,-17.779
111.07,-283.71,-17.974
111.1,-285.675,-18.088
111.14,-287.5,-18.226
111.17,-289.36,-18.283
111.2,-291.045,-18.329
111.24,-292.624,-18.478
111.27,-294.308,-18.558
111.3,-295.782,-18.661
111.33,-297.221,-18.799
111.37,-298.52,-18.902
111.4,-299.924,-18.97
111.43,-301.257,-19.028
111.46,-302.591,-19.062
111.5,-303.819,-19.119
111.53,-305.013,-19.177
111.56,-306.206,-19.222
111.59,-307.399,-19.303
111.63,-308.452,-19.371
111.66,-309.47,-19.486
111.69,-310.347,-19.612
111.72,-311.189,-19.715
111.76,-312.067,-19.749
111.79,-312.769,-19.784
111.82,-313.541,-19.807
111.85,-314.172,-19.818
111.89,-314.769,-19.83
111.92,-315.331,-19.887
111.95,-315.857,-19.944
111.98,-316.489,-20.013
112.02,-317.05,-20.104
112.05,-317.682,-20.15
112.08,-318.279,-20.15
112.11,-318.805,-20.162
112.15,-319.331,-20.139
112.18,-319.612,-20.185
112.21,-320.174,-20.265
112.24,-320.665,-20.288
112.28,-321.086,-20.357
112.31,-321.507,-20.414
112.34,-321.999,-20.46
112.37,-322.455,-20.471
112.41,-322.841,-20.471
112.44,-323.262,-20.46
112.47,-323.648,-20.471
112.5,-324.034,-20.448
112.54,-324.35,-20.414
112.57,-324.701,-20.357
112.6,-324.947,-20.345
112.63,-325.227,-20.311
112.67,-325.438,-20.345
112.7,-325.789,-20.334
112.73,-325.929,-20.322
112.77,-326.175,-20.311
112.8,-326.315,-20.242
112.83,-326.456,-20.265
112.86,-326.701,-20.173
112.9,-326.807,-20.127
112.93,-326.877,-20.116
112.96,-327.052,-20.127
112.99,-327.193,-20.082
113.03,-327.333,-20.001
113.06,-327.403,-19.921
113.09,-327.438,-19.852
113.12,-327.473,-19.761
113.16,-327.473,-19.692
113.19,-327.579,-19.6
113.22,-327.579,-19.532
113.25,-327.544,-19.52
113.29,-327.473,-19.486
113.32,-327.473,-19.463
113.35,-327.509,-19.383
113.38,-327.438,-19.326
113.42,-327.473,-19.211
113.45,-327.368,-19.085
113.48,-327.193,-19.016
113.51,-327.017,-18.936
113.55,-326.701,-18.856
113.58,-326.421,-18.764
113.61,-326.14,-18.627
113.64,-325.684,-18.443
113.68,-325.052,-18.306
113.71,-324.139,-18.146
113.74,-322.911,-17.974
113.77,-321.507,-17.779
113.81,-319.647,-17.55
113.84,-317.506,-17.344
113.87,-315.12,-17.149
113.9,-312.733,-16.989
113.94,-310.172,-16.851
113.97,-307.539,-16.679
114.0,-304.942,-16.576
114.03,-302.696,-16.404
114.07,-300.204,-16.244
114.1,-297.643,-16.106
114.13,-294.94,-15.935
114.16,-292.062,-15.774
114.2,-288.974,-15.671
114.23,-285.886,-15.488
114.26,-282.727,-15.316
114.3,-279.568,-15.167
114.33,-276.41,-14.984
114.36,-273.322,-14.846
114.39,-270.409,-14.663
114.43,-267.355,-14.537
114.46,-264.548,-14.411
114.49,-261.705,-14.216
114.52,-258.582,-14.056
114.56,-255.563,-13.896
114.59,-252.44,-13.689
114.62,-249.281,-13.529
114.65,-246.158,-13.334
114.69,-242.964,-13.094
114.72,-239.735,-12.899
114.75,-236.577,-12.693
114.78,-233.278,-12.509
114.82,-230.014,-12.338
114.85,-226.715,-12.166
114.88,-223.311,-12.005
114.91,-220.012,-11.811
114.95,-216.643,-11.616
114.98,-213.168,-11.387
115.01,-209.729,-11.158
115.04,-206.184,-10.929
115.08,-202.64,-10.734
115.11,-198.99,-10.539
115.14,-195.27,-10.321
115.17,-191.55,-10.104
115.21,-187.759,-9.863
115.24,-183.969,-9.634
115.27,-180.003,-9.394
115.3,-176.003,-9.164
115.34,-171.931,-8.981
115.37,-167.896,-8.729
115.4,-163.719,-8.477
115.43,-159.402,-8.294
115.47,-155.156,-8.088
115.5,-150.909,-7.859
115.53,-146.628,-7.584
115.56,-142.206,-7.343
115.6,-137.784,-7.102
115.63,-133.292,-6.85
115.66,-128.729,-6.61
115.69,-124.202,-6.346
115.73,-119.64,-6.163
115.76,-115.112,-5.945
115.79,-110.62,-5.705
115.83,-105.988,-5.499
115.86,-101.566,-5.247
115.89,-96.968,-5.006
115.92,-92.371,-4.8
115.96,-87.878,-4.594
115.99,-83.246,-4.376
116.02,-78.719,-4.158
116.05,-74.156,-3.906
116.09,-69.489,-3.689
116.12,-64.996,-3.494
116.15,-60.539,-3.23
116.18,-55.942,-2.99
116.22,-51.274,-2.749
116.25,-46.712,-2.52
116.28,-42.149,-2.245
116.31,-37.482,-1.982
116.35,-32.849,-1.753
116.38,-28.322,-1.524
116.41,-23.654,-1.306
116.44,-19.022,-1.134
116.48,-14.529,-0.905
116.51,-9.897,-0.71
116.54,-5.545,-0.515
116.57,-1.053,-0.309
116.61,3.51,-0.149
116.64,8.072,-0.034
