Trigger_Date,2023/07/31
Trigger_Time,T 22:48:36.496 PDT
Samples_Per_Cycle,512
Microseconds_Per_Sample,32.538
Time (ms),Voltage (V),Current (A)
-16.66,-11.511,-0.16
-16.63,-16.074,-0.493
-16.59,-20.425,-0.836
-16.56,-24.567,-1.26
-16.53,-28.708,-1.821
-16.5,-33.025,-2.337
-16.46,-37.447,-2.772
-16.43,-41.939,-3.093
-16.4,-46.326,-3.379
-16.37,-50.677,-3.608
-16.33,-54.854,-3.769
-16.3,-58.995,-3.918
-16.27,-62.996,-4.055
-16.24,-66.927,-4.204
-16.2,-70.682,-4.376
-16.17,-74.297,-4.582
-16.14,-77.876,-4.846
-16.11,-81.526,-5.109
-16.07,-85.281,-5.338
-16.04,-88.931,-5.556
-16.01,-92.581,-5.819
-15.98,-96.301,-6.06
-15.94,-100.056,-6.266
-15.91,-103.601,-6.484
-15.88,-106.97,-6.736
-15.85,-110.55,-6.988
-15.81,-114.235,-7.228
-15.78,-117.78,-7.412
-15.75,-121.5,-7.629
-15.72,-125.044,-7.859
-15.68,-128.87,-8.099
-15.65,-132.484,-8.271
-15.62,-136.099,-8.489
-15.59,-138.345,-8.5
-15.55,-141.995,-9.13
-15.52,-146.838,-9.13
-15.49,-150.383,-9.359
-15.46,-155.016,-9.84
-15.42,-159.473,-9.932
-15.39,-163.017,-10.115
-15.36,-166.281,-10.425
-15.33,-170.107,-10.619
-15.29,-173.37,-10.734
-15.26,-176.494,-10.94
-15.23,-179.828,-11.181
-15.2,-183.408,-11.33
-15.16,-186.531,-11.478
-15.13,-189.97,-11.73
-15.1,-192.813,-11.753
-15.07,-196.112,-12.2
-15.03,-199.902,-12.257
-15.0,-202.534,-12.475
-14.97,-206.009,-12.842
-14.94,-209.483,-12.968
-14.9,-212.186,-13.048
-14.87,-213.098,-13.002
-14.84,-216.292,-13.724
-14.8,-222.469,-13.884
-14.77,-225.838,-13.758
-14.74,-227.663,-14.159
-14.71,-230.225,-14.491
-14.67,-232.751,-14.537
-14.64,-234.682,-14.526
-14.61,-236.752,-14.514
-14.58,-238.928,-14.594
-14.54,-241.245,-14.846
-14.51,-243.842,-15.144
-14.48,-246.649,-15.431
-14.45,-249.492,-15.694
-14.41,-252.405,-15.866
-14.38,-255.212,-16.026
-14.35,-257.774,-16.164
-14.32,-260.196,-16.278
-14.28,-262.477,-16.404
-14.25,-264.583,-16.542
-14.22,-266.618,-16.599
-14.19,-268.513,-16.714
-14.15,-270.444,-16.851
-14.12,-272.479,-16.977
-14.09,-274.445,-17.092
-14.06,-276.375,-17.241
-14.02,-278.375,-17.47
-13.99,-280.551,-17.607
-13.96,-282.622,-17.733
-13.93,-284.517,-17.859
-13.89,-286.377,-18.031
-13.86,-288.167,-18.146
-13.83,-289.992,-18.26
-13.8,-291.711,-18.295
-13.76,-293.431,-18.409
-13.73,-294.975,-18.489
-13.7,-296.519,-18.695
-13.67,-297.853,-18.684
-13.63,-298.976,-18.856
-13.6,-300.906,-18.947
-13.57,-301.854,-18.947
-13.54,-303.152,-19.131
-13.5,-304.416,-19.108
-13.47,-305.539,-19.268
-13.44,-306.732,-19.36
-13.41,-308.031,-19.474
-13.37,-309.189,-19.497
-13.34,-310.312,-19.6
-13.31,-311.365,-19.646
-13.28,-312.312,-19.704
-13.24,-313.19,-19.704
-13.21,-313.857,-19.818
-13.18,-314.594,-19.875
-13.15,-315.295,-19.921
-13.11,-315.962,-19.967
-13.08,-316.629,-20.013
-13.05,-317.296,-19.99
-13.02,-317.963,-19.978
-12.98,-318.524,-20.001
-12.95,-319.191,-20.07
-12.92,-319.647,-20.082
-12.89,-320.139,-20.208
-12.85,-320.735,-20.196
-12.82,-321.051,-20.288
-12.79,-321.613,-20.368
-12.76,-322.244,-20.322
-12.72,-322.665,-20.311
-12.69,-323.016,-20.379
-12.66,-323.473,-20.414
-12.62,-323.929,-20.402
-12.59,-324.245,-20.46
-12.56,-324.631,-20.471
-12.53,-325.017,-20.414
-12.49,-325.438,-20.345
-12.46,-325.684,-20.357
-12.43,-325.929,-20.402
-12.4,-326.175,-20.437
-12.36,-326.456,-20.448
-12.33,-326.701,-20.448
-12.3,-326.982,-20.391
-12.27,-327.228,-20.345
-12.23,-327.403,-20.276
-12.2,-327.614,-20.253
-12.17,-327.789,-20.15
-12.14,-327.789,-20.162
-12.1,-327.965,-20.208
-12.07,-328.07,-20.173
-12.04,-328.21,-20.185
-12.01,-328.386,-20.104
-11.97,-328.561,-19.967
-11.94,-328.561,-19.887
-11.91,-328.596,-19.864
-11.88,-328.667,-19.749
-11.84,-328.667,-19.726
-11.81,-328.702,-19.658
-11.78,-328.667,-19.635
-11.75,-328.667,-19.623
-11.71,-328.667,-19.578
-11.68,-328.632,-19.578
-11.65,-328.702,-19.44
-11.62,-328.596,-19.348
-11.58,-328.596,-19.268
-11.55,-328.491,-19.108
-11.52,-328.316,-19.096
-11.49,-328.175,-18.959
-11.45,-327.93,-18.833
-11.42,-327.649,-18.695
-11.39,-327.193,-18.592
-11.36,-326.666,-18.432
-11.32,-325.859,-18.317
-11.29,-324.982,-18.203
-11.26,-323.578,-18.008
-11.23,-321.893,-17.859
-11.19,-320.174,-17.642
-11.16,-318.103,-17.424
-11.13,-316.032,-17.252
-11.1,-314.172,-17.092
-11.06,-312.032,-16.931
-11.03,-309.645,-16.828
-11.0,-307.294,-16.679
-10.97,-304.767,-16.496
-10.93,-302.065,-16.359
-10.9,-299.467,-16.175
-10.87,-296.555,-15.969
-10.84,-293.571,-15.774
-10.8,-290.343,-15.614
-10.77,-287.114,-15.442
-10.74,-283.92,-15.282
-10.71,-280.551,-15.156
-10.67,-277.287,-15.018
-10.64,-274.059,-14.892
-10.61,-271.04,-14.732
-10.57,-268.198,-14.56
-10.54,-265.25,-14.377
-10.51,-262.196,-14.251
-10.48,-259.283,-14.102
-10.44,-256.125,-13.907
-10.41,-252.966,-13.747
-10.38,-249.738,-13.563
-10.35,-246.544,-13.357
-10.31,-243.35,-13.117
-10.28,-240.051,-12.945
-10.25,-236.823,-12.773
-10.22,-233.629,-12.555
-10.18,-230.33,-12.372
-10.15,-226.996,-12.2
-10.12,-223.732,-11.994
-10.09,-220.398,-11.765
-10.05,-217.029,-11.559
-10.02,-213.625,-11.387
-9.99,-210.185,-11.192
-9.96,-206.641,-11.009
-9.92,-203.061,-10.803
-9.89,-199.516,-10.608
-9.86,-195.831,-10.367
-9.83,-192.181,-10.127
-9.79,-188.286,-9.898
-9.76,-184.496,-9.657
-9.73,-180.6,-9.382
-9.7,-176.459,-9.164
-9.66,-172.423,-8.935
-9.63,-168.176,-8.752
-9.6,-164.0,-8.523
-9.57,-159.789,-8.271
-9.53,-155.507,-8.019
-9.5,-151.12,-7.778
-9.47,-146.873,-7.526
-9.44,-142.451,-7.309
-9.4,-137.994,-7.114
-9.37,-133.502,-6.908
-9.34,-128.905,-6.701
-9.31,-124.448,-6.495
-9.27,-119.991,-6.255
-9.24,-115.498,-5.991
-9.21,-111.006,-5.739
-9.18,-106.444,-5.533
-9.14,-101.846,-5.327
-9.11,-97.284,-5.132
-9.08,-92.757,-4.926
-9.05,-88.264,-4.685
-9.01,-83.772,-4.433
-8.98,-79.28,-4.17
-8.95,-74.753,-3.941
-8.92,-70.261,-3.723
-8.88,-65.733,-3.46
-8.85,-61.136,-3.253
-8.82,-56.573,-2.99
-8.79,-51.976,-2.761
-8.75,-47.308,-2.543
-8.72,-42.676,-2.348
-8.69,-38.043,-2.085
-8.66,-33.376,-1.925
-8.62,-28.918,-1.684
-8.59,-24.356,-1.455
-8.56,-19.794,-1.203
-8.53,-15.407,-0.985
-8.49,-10.844,-0.745
-8.46,-6.458,-0.584
-8.43,-2.036,-0.298
-8.39,2.492,-0.16
-8.36,7.124,0.046
-8.33,11.581,0.137
-8.3,16.214,0.584
-8.26,20.18,0.63
-8.23,23.83,1.398
-8.2,30.042,1.982
-8.17,32.814,1.959
-8.13,36.71,3.059
-8.1,42.535,3.185
-8.07,46.606,3.265
-8.04,50.537,3.54
-8.0,55.135,3.723
-7.97,59.03,3.769
-7.94,62.891,4.021
-7.91,66.962,4.158
-7.87,70.576,4.342
-7.84,74.121,4.605
-7.81,77.946,4.834
-7.78,81.631,4.972
-7.74,85.281,5.212
-7.71,89.072,5.464
-7.68,92.722,5.739
-7.65,96.336,6.037
-7.61,100.056,6.278
-7.58,103.636,6.495
-7.55,107.181,6.736
-7.52,110.831,6.942
-7.48,114.375,7.137
-7.45,117.885,7.412
-7.42,121.605,7.664
-7.39,125.325,7.87
-7.35,128.975,8.111
-7.32,132.695,8.385
-7.29,136.38,8.534
-7.26,139.328,8.637
-7.22,142.381,8.89
-7.19,146.452,9.199
-7.16,150.945,9.439
-7.13,155.367,9.714
-7.09,159.578,9.955
-7.06,163.228,10.184
-7.03,166.808,10.39
-7.0,170.387,10.573
-6.96,173.862,10.699
-6.93,177.055,10.906
-6.9,180.354,11.1
-6.87,183.618,11.318
-6.83,187.022,11.513
-6.8,189.619,11.696
-6.77,193.796,12.154
-6.74,197.165,11.994
-6.7,199.762,12.361
-6.67,203.482,12.555
-6.64,206.711,12.693
-6.61,209.694,12.887
-6.57,212.747,13.071
-6.54,214.046,12.899
-6.51,216.011,13.552
-6.48,222.153,13.987
-6.44,226.259,13.77
-6.41,228.329,14.033
-6.38,230.997,14.274
-6.34,233.383,14.331
-6.31,235.103,14.457
-6.28,237.103,14.652
-6.25,239.279,14.801
-6.21,241.841,14.961
-6.18,244.403,15.156
-6.15,247.211,15.396
-6.12,250.299,15.614
-6.08,253.036,15.774
-6.05,255.493,15.992
-6.02,258.09,16.187
-5.99,260.406,16.278
-5.95,262.617,16.416
-5.92,264.723,16.542
-5.89,266.829,16.691
-5.86,268.864,16.828
-5.82,270.795,16.977
-5.79,272.76,17.103
-5.76,274.69,17.252
-5.73,276.62,17.458
-5.69,278.831,17.561
-5.66,280.902,17.664
-5.63,282.938,17.813
-5.6,284.903,17.928
-5.56,286.728,18.077
-5.53,288.553,18.191
-5.5,290.273,18.295
-5.47,291.887,18.409
-5.43,293.642,18.501
-5.4,295.186,18.581
-5.37,296.765,18.65
-5.34,298.134,18.787
-5.3,299.573,18.902
-5.27,300.801,19.062
-5.24,302.31,19.096
-5.21,302.451,19.085
-5.17,304.767,19.474
-5.14,306.1,19.096
-5.11,306.908,19.429
-5.08,308.627,19.303
-5.04,309.224,19.509
-5.01,310.698,19.555
-4.98,311.33,19.658
-4.95,312.453,19.83
-4.91,313.26,19.852
-4.88,314.032,19.956
-4.85,314.874,19.956
-4.82,315.506,19.978
-4.78,316.032,20.036
-4.75,316.805,20.059
-4.72,317.401,20.082
-4.69,317.998,20.127
-4.65,318.629,20.173
-4.62,319.261,20.15
-4.59,319.753,20.15
-4.56,320.209,20.219
-4.52,320.735,20.253
-4.49,321.156,20.322
-4.46,321.718,20.345
-4.43,322.209,20.379
-4.39,322.63,20.46
-4.36,323.087,20.46
-4.33,323.543,20.46
-4.3,324.069,20.437
-4.26,324.35,20.425
-4.23,324.666,20.46
-4.2,325.052,20.448
-4.16,325.368,20.471
-4.13,325.684,20.483
-4.1,326.035,20.483
-4.07,326.315,20.402
-4.03,326.631,20.402
-4.0,327.052,20.253
-3.97,326.947,20.322
-3.94,327.403,20.379
-3.9,327.193,20.322
-3.87,327.614,20.471
-3.84,327.859,20.322
-3.81,328.0,20.276
-3.77,328.21,20.15
-3.74,328.281,20.127
-3.71,328.456,20.082
-3.68,328.491,20.059
-3.64,328.632,20.07
-3.61,328.702,19.99
-3.58,328.737,19.956
-3.55,328.947,19.852
-3.51,329.018,19.623
-3.48,328.912,19.589
-3.45,328.912,19.543
-3.42,328.912,19.532
-3.38,328.912,19.474
-3.35,328.877,19.44
-3.32,328.912,19.383
-3.29,328.737,19.348
-3.25,328.842,19.211
-3.22,328.632,19.073
-3.19,328.491,19.051
-3.16,328.246,18.947
-3.12,327.965,18.959
-3.09,327.719,18.844
-3.06,327.368,18.695
-3.03,326.807,18.535
-2.99,326.035,18.386
-2.96,325.122,18.168
-2.93,323.648,17.974
-2.9,322.069,17.859
-2.86,320.314,17.664
-2.83,318.279,17.493
-2.8,316.208,17.367
-2.77,314.313,17.195
-2.73,312.172,16.989
-2.7,309.785,16.84
-2.67,307.504,16.656
-2.64,304.942,16.462
-2.6,302.17,16.359
-2.57,299.432,16.198
-2.54,296.484,15.992
-2.51,293.361,15.889
-2.47,290.308,15.706
-2.44,287.184,15.476
-2.41,283.955,15.27
-2.38,280.621,15.144
-2.34,277.287,15.041
-2.31,274.234,14.881
-2.28,271.04,14.766
-2.25,268.092,14.675
-2.21,265.179,14.537
-2.18,262.231,14.342
-2.15,259.283,14.148
-2.11,256.195,13.918
-2.08,253.036,13.724
-2.05,249.843,13.54
-2.02,246.579,13.38
-1.98,243.315,13.208
-1.95,240.016,13.071
-1.92,236.787,12.899
-1.89,233.629,12.681
-1.85,230.295,12.475
-1.82,227.031,12.303
-1.79,223.872,12.074
-1.76,220.573,11.845
-1.72,217.169,11.662
-1.69,213.765,11.467
-1.66,210.291,11.261
-1.63,206.816,11.032
-1.59,203.166,10.814
-1.56,199.551,10.585
-1.53,195.866,10.344
-1.5,192.111,10.115
-1.46,188.286,9.875
-1.43,184.425,9.657
-1.4,180.495,9.428
-1.37,176.494,9.187
-1.33,172.458,8.924
-1.3,168.282,8.683
-1.27,164.105,8.466
-1.24,159.859,8.248
-1.2,155.507,8.042
-1.17,151.19,7.801
-1.14,146.838,7.606
-1.11,142.592,7.343
-1.07,138.135,7.102
-1.04,133.537,6.908
-1.01,129.115,6.667
-0.98,124.553,6.438
-0.94,119.955,6.22
-0.91,115.393,5.991
-0.88,110.831,5.762
-0.85,106.233,5.556
-0.81,101.741,5.315
-0.78,97.179,5.029
-0.75,92.722,4.788
-0.72,88.159,4.571
-0.68,83.702,4.342
-0.65,79.175,4.158
-0.62,74.753,3.941
-0.59,70.261,3.712
-0.55,65.768,3.482
-0.52,61.241,3.265
-0.49,56.749,3.001
-0.46,52.081,2.784
-0.42,47.589,2.543
-0.39,42.781,2.314
-0.36,38.254,2.142
-0.33,33.411,1.879
-0.29,29.971,1.833
-0.26,24.146,0.997
-0.23,19.022,1.398
-0.2,16.179,0.985
-0.16,10.529,0.561
-0.13,5.826,0.63
-0.1,1.93,0.378
-0.07,-2.702,0.103
-0.03,-7.335,0.046
0.0,-11.546,-0.16
0.03,-16.039,-0.504
0.07,-20.39,-0.836
0.1,-24.532,-1.272
0.13,-28.708,-1.821
0.16,-33.13,-2.28
0.2,-37.376,-2.726
0.23,-41.974,-3.047
0.26,-46.326,-3.311
0.29,-50.607,-3.563
0.33,-54.889,-3.712
0.36,-58.925,-3.872
0.39,-62.856,-4.021
0.42,-66.786,-4.193
0.46,-70.506,-4.41
0.49,-74.191,-4.639
0.52,-77.806,-4.914
0.55,-81.561,-5.132
0.59,-85.106,-5.384
0.62,-88.756,-5.636
0.65,-92.511,-5.831
0.68,-96.196,-6.083
0.72,-99.951,-6.278
0.75,-103.426,-6.484
0.78,-107.005,-6.736
0.81,-110.655,-6.942
0.85,-114.2,-7.16
0.88,-117.744,-7.366
0.91,-121.465,-7.595
0.94,-125.079,-7.813
0.98,-128.87,-8.053
1.01,-132.449,-8.259
1.04,-135.994,-8.5
1.07,-138.38,-8.5
1.11,-142.03,-9.13
1.14,-146.733,-9.119
1.17,-150.278,-9.428
1.2,-155.051,-9.909
1.24,-159.613,-10.001
1.27,-163.123,-10.173
1.3,-166.422,-10.39
1.33,-170.142,-10.585
1.37,-173.511,-10.722
1.4,-176.775,-10.952
1.43,-179.968,-11.158
1.46,-183.267,-11.318
1.5,-186.531,-11.49
1.53,-189.935,-11.662
1.56,-192.567,-11.753
1.59,-196.182,-12.223
1.63,-199.867,-12.246
1.66,-202.57,-12.509
1.69,-206.114,-12.819
1.72,-209.518,-12.956
1.76,-212.186,-12.968
1.79,-213.028,-12.91
1.82,-216.327,-13.655
1.85,-222.398,-13.827
1.89,-225.732,-13.758
1.92,-227.628,-14.125
1.95,-230.084,-14.4
1.98,-232.365,-14.468
2.02,-234.366,-14.514
2.05,-236.507,-14.537
2.08,-238.823,-14.617
2.11,-241.174,-14.892
2.15,-243.947,-15.167
2.18,-246.79,-15.396
2.21,-249.702,-15.614
2.25,-252.545,-15.797
2.28,-255.353,-16.015
2.31,-258.02,-16.175
2.34,-260.371,-16.29
2.38,-262.582,-16.404
2.41,-264.688,-16.485
2.44,-266.618,-16.599
2.47,-268.584,-16.737
2.51,-270.549,-16.851
2.54,-272.479,-16.977
2.57,-274.409,-17.126
2.6,-276.375,-17.275
2.64,-278.41,-17.447
2.67,-280.516,-17.607
2.7,-282.516,-17.802
2.73,-284.587,-17.939
2.77,-286.552,-18.031
2.8,-288.342,-18.123
2.83,-290.097,-18.26
2.86,-291.887,-18.317
2.9,-293.571,-18.398
2.93,-295.081,-18.524
2.96,-296.73,-18.615
2.99,-297.713,-18.592
3.03,-299.362,-18.833
3.06,-300.941,-18.753
3.09,-301.784,-18.936
3.12,-303.188,-19.085
3.16,-304.381,-19.154
3.19,-305.609,-19.268
3.22,-306.837,-19.371
3.25,-308.031,-19.463
3.29,-309.189,-19.543
3.32,-310.382,-19.6
3.35,-311.435,-19.612
3.38,-312.312,-19.658
3.42,-313.19,-19.704
3.45,-313.892,-19.738
3.48,-314.664,-19.841
3.51,-315.401,-19.864
3.55,-316.032,-19.91
3.58,-316.805,-19.933
3.61,-317.436,-19.967
3.64,-318.033,-20.013
3.68,-318.594,-20.104
3.71,-319.191,-20.162
3.74,-319.753,-20.208
3.77,-320.279,-20.253
3.81,-320.805,-20.265
3.84,-321.191,-20.334
3.87,-321.718,-20.345
3.9,-322.279,-20.311
3.94,-322.736,-20.288
3.97,-323.087,-20.288
4.0,-323.508,-20.345
4.03,-323.859,-20.402
4.07,-324.28,-20.437
4.1,-324.666,-20.471
4.13,-324.947,-20.517
4.16,-325.333,-20.517
4.2,-325.719,-20.471
4.23,-325.894,-20.46
4.26,-326.245,-20.46
4.3,-326.456,-20.414
4.33,-326.631,-20.46
4.36,-327.017,-20.368
4.39,-327.228,-20.334
4.43,-327.473,-20.23
4.46,-327.579,-20.173
4.49,-327.684,-20.196
4.52,-327.859,-20.185
4.56,-327.93,-20.196
4.59,-328.105,-20.173
4.62,-328.21,-20.127
4.65,-328.351,-20.082
4.69,-328.421,-20.047
4.72,-328.491,-20.001
4.75,-328.596,-19.91
4.78,-328.596,-19.852
4.82,-328.596,-19.818
4.85,-328.596,-19.807
4.88,-328.667,-19.738
4.91,-328.667,-19.681
4.95,-328.702,-19.589
4.98,-328.702,-19.486
5.01,-328.596,-19.429
5.04,-328.596,-19.337
5.08,-328.526,-19.257
5.11,-328.421,-19.177
5.14,-328.246,-19.119
5.17,-328.105,-19.028
5.21,-327.93,-18.89
5.24,-327.614,-18.787
5.27,-327.193,-18.638
5.3,-326.701,-18.432
5.34,-325.929,-18.306
5.37,-324.911,-18.134
5.4,-323.438,-17.985
5.43,-321.858,-17.825
5.47,-320.068,-17.596
5.5,-317.892,-17.424
5.53,-315.927,-17.286
5.56,-314.032,-17.149
5.6,-311.926,-16.966
5.63,-309.54,-16.828
5.66,-307.153,-16.668
5.69,-304.591,-16.485
5.73,-301.959,-16.336
5.76,-299.257,-16.175
5.79,-296.344,-16.003
5.82,-293.291,-15.809
5.86,-290.167,-15.637
5.89,-287.044,-15.454
5.92,-283.78,-15.282
5.95,-280.586,-15.11
5.99,-277.393,-14.949
6.02,-274.164,-14.835
6.05,-271.146,-14.686
6.08,-268.233,-14.537
6.12,-265.285,-14.365
6.15,-262.302,-14.193
6.18,-259.213,-14.056
6.21,-256.09,-13.861
6.25,-252.826,-13.724
6.28,-249.702,-13.529
6.31,-246.544,-13.311
6.34,-243.245,-13.117
6.38,-240.016,-12.933
6.41,-236.823,-12.727
6.44,-233.488,-12.578
6.48,-230.225,-12.429
6.51,-226.961,-12.235
6.54,-223.697,-12.04
6.57,-220.433,-11.845
6.61,-217.134,-11.639
6.64,-213.765,-11.387
6.67,-210.291,-11.169
6.7,-206.711,-10.963
6.74,-203.166,-10.745
6.77,-199.481,-10.573
6.8,-195.831,-10.367
6.83,-192.111,-10.104
6.87,-188.181,-9.886
6.9,-184.355,-9.657
6.93,-180.389,-9.439
6.96,-176.353,-9.222
7.0,-172.353,-8.993
7.03,-168.141,-8.786
7.06,-164.0,-8.557
7.09,-159.718,-8.317
7.13,-155.402,-8.133
7.16,-151.12,-7.939
7.19,-146.838,-7.687
7.22,-142.487,-7.458
7.26,-138.1,-7.228
7.29,-133.643,-6.976
7.32,-129.115,-6.724
7.35,-124.693,-6.461
7.39,-120.131,-6.197
7.42,-115.569,-5.957
7.45,-110.971,-5.739
7.48,-106.444,-5.556
7.52,-101.881,-5.304
7.55,-97.214,-5.098
7.58,-92.686,-4.869
7.61,-88.194,-4.639
7.65,-83.667,-4.387
7.68,-79.245,-4.135
7.71,-74.753,-3.895
7.74,-70.155,-3.757
7.78,-65.733,-3.551
7.81,-61.206,-3.299
7.84,-56.573,-3.093
7.87,-52.081,-2.921
7.91,-47.519,-2.658
7.94,-42.886,-2.429
7.97,-38.429,-2.154
8.0,-33.832,-1.89
8.04,-29.269,-1.638
8.07,-24.496,-1.432
8.1,-19.934,-1.249
8.13,-15.407,-1.008
8.17,-10.915,-0.768
8.2,-6.387,-0.527
8.23,-1.93,-0.344
8.26,2.702,-0.16
8.3,7.195,-0.034
8.33,11.827,0.172
8.36,16.074,0.447
8.39,20.636,0.825
8.43,23.654,1.031
8.46,28.989,2.177
8.49,33.797,2.062
8.53,36.359,2.726
8.56,42.079,3.276
8.59,46.852,3.196
8.62,50.537,3.448
8.66,54.819,3.723
8.69,59.065,3.792
8.72,62.68,4.009
8.75,66.716,4.273
8.79,70.506,4.456
8.82,74.226,4.697
8.85,77.982,4.903
8.88,81.702,5.109
8.92,85.352,5.304
8.95,89.037,5.51
8.98,92.651,5.739
9.01,96.336,6.003
9.05,99.951,6.255
9.08,103.531,6.472
9.11,107.251,6.701
9.14,110.831,6.862
9.18,114.305,7.091
9.21,117.92,7.354
9.24,121.675,7.606
9.27,125.395,7.836
9.31,129.08,8.111
9.34,132.87,8.34
9.37,136.555,8.477
9.4,139.433,8.569
9.44,142.346,8.855
9.47,146.487,9.176
9.5,150.909,9.462
9.53,155.296,9.806
9.57,159.613,10.069
9.6,163.298,10.241
9.63,166.737,10.47
9.66,170.387,10.596
9.7,173.862,10.745
9.73,177.09,10.917
9.76,180.495,11.204
9.79,183.794,11.284
9.83,187.057,11.559
9.86,190.146,11.616
9.89,193.129,11.983
9.92,197.446,12.212
9.96,199.937,12.166
9.99,202.991,12.601
10.02,206.746,12.704
10.05,209.869,12.876
10.09,212.642,13.014
10.12,213.905,12.945
10.15,216.011,13.563
10.18,222.153,14.033
10.22,226.329,13.815
10.25,228.435,14.09
10.28,230.927,14.285
10.31,233.102,14.388
10.35,234.962,14.468
10.38,236.928,14.652
10.41,239.209,14.835
10.44,241.701,15.03
10.48,244.473,15.167
10.51,247.281,15.408
10.54,250.229,15.625
10.57,252.966,15.82
10.61,255.458,16.026
10.64,258.125,16.221
10.67,260.442,16.313
10.71,262.653,16.45
10.74,264.934,16.553
10.77,267.004,16.656
10.8,268.97,16.805
10.84,270.9,16.977
10.87,272.83,17.115
10.9,274.831,17.241
10.93,276.691,17.378
10.97,278.796,17.538
11.0,280.972,17.642
11.03,282.973,17.768
11.06,284.903,17.928
11.1,286.728,18.065
11.13,288.518,18.26
11.16,290.308,18.352
11.19,291.922,18.466
11.23,293.642,18.535
11.26,295.221,18.627
11.29,296.835,18.684
11.32,298.204,18.799
11.36,299.573,18.902
11.39,300.836,19.085
11.42,302.275,19.073
11.45,302.556,19.142
11.49,304.907,19.474
11.52,306.1,19.119
11.55,306.978,19.474
11.58,308.452,19.383
11.62,309.224,19.578
11.65,310.522,19.6
11.68,311.4,19.658
11.71,312.383,19.681
11.75,313.084,19.772
11.78,313.927,19.841
11.81,314.734,19.852
11.84,315.366,19.921
11.88,316.103,19.967
11.91,316.805,20.036
11.94,317.436,20.082
11.97,318.103,20.162
12.01,318.665,20.242
12.04,319.331,20.253
12.07,319.928,20.208
12.1,320.419,20.208
12.14,320.84,20.219
12.17,321.227,20.265
12.2,321.823,20.299
12.23,322.244,20.311
12.27,322.665,20.368
12.3,323.087,20.391
12.33,323.613,20.357
12.36,324.069,20.253
12.4,324.385,20.242
12.43,324.736,20.265
12.46,324.947,20.334
12.49,325.298,20.414
12.53,325.613,20.437
12.56,325.894,20.517
12.59,326.245,20.46
12.62,326.456,20.391
12.66,326.736,20.379
12.69,326.912,20.311
12.72,326.807,20.357
12.76,327.263,20.379
12.79,327.544,20.299
12.82,327.649,20.345
12.85,327.895,20.265
12.89,328.07,20.15
12.92,328.175,20.082
12.95,328.281,20.047
12.98,328.386,20.047
13.02,328.456,20.059
13.05,328.561,20.001
13.08,328.561,20.047
13.11,328.702,19.967
13.15,328.667,19.91
13.18,328.772,19.887
13.21,328.807,19.749
13.24,328.772,19.749
13.28,328.807,19.646
13.31,328.772,19.555
13.34,328.807,19.452
13.37,328.702,19.348
13.41,328.737,19.177
13.44,328.561,19.051
13.47,328.456,18.959
13.5,328.175,18.89
13.54,327.824,18.925
13.57,327.649,18.844
13.6,327.158,18.776
13.63,326.772,18.627
13.67,326.105,18.409
13.7,325.087,18.214
13.73,323.613,18.031
13.76,322.069,17.871
13.8,320.244,17.71
13.83,318.208,17.538
13.86,316.138,17.344
13.89,314.067,17.206
13.93,311.926,17.069
13.96,309.61,16.92
13.99,307.259,16.748
14.02,304.767,16.576
14.06,302.065,16.473
14.09,299.362,16.301
14.12,296.484,16.141
14.15,293.536,15.935
14.19,290.378,15.683
14.22,287.149,15.488
14.25,283.955,15.316
14.28,280.727,15.133
14.32,277.463,14.984
14.35,274.304,14.835
14.38,271.321,14.629
14.41,268.127,14.56
14.45,265.32,14.434
14.48,262.302,14.308
14.51,259.283,14.171
14.54,256.3,13.976
14.58,253.107,13.747
14.61,249.913,13.586
14.64,246.719,13.392
14.67,243.456,13.22
14.71,240.157,13.048
14.74,236.963,12.842
14.77,233.734,12.624
14.8,230.365,12.441
14.84,227.101,12.269
14.87,223.837,12.051
14.9,220.468,11.868
14.94,217.169,11.685
14.97,213.765,11.478
15.0,210.326,11.272
15.03,206.921,11.02
15.07,203.377,10.757
15.1,199.692,10.505
15.13,195.937,10.321
15.16,192.216,10.115
15.2,188.391,9.886
15.23,184.46,9.691
15.26,180.67,9.439
15.29,176.634,9.164
15.33,172.633,8.89
15.36,168.492,8.626
15.39,164.14,8.477
15.42,159.859,8.294
15.46,155.577,8.053
15.49,151.26,7.847
15.52,146.838,7.652
15.55,142.557,7.366
15.59,138.065,7.125
15.62,133.572,6.896
15.65,129.045,6.679
15.68,124.518,6.472
15.72,120.131,6.255
15.75,115.709,6.014
15.78,111.147,5.762
15.81,106.549,5.556
15.85,102.057,5.315
15.88,97.565,5.029
15.91,92.897,4.834
15.94,88.335,4.617
15.98,83.772,4.376
16.01,79.175,4.17
16.04,74.823,3.906
16.07,70.226,3.666
16.11,65.839,3.391
16.14,61.276,3.139
16.17,56.714,2.921
16.2,52.011,2.761
16.24,47.449,2.543
16.27,42.641,2.36
16.3,38.184,2.142
16.33,33.516,1.936
16.37,30.112,1.799
16.4,24.075,1.008
16.43,19.337,1.489
16.46,16.53,0.882
16.5,10.669,0.493
16.53,5.966,0.607
16.56,2.141,0.355
16.59,-2.702,0.08
16.63,-7.37,0.046
16.66,-11.652,-0.183
16.69,-16.249,-0.515
16.72,-20.566,-0.848
16.76,-24.707,-1.283
16.79,-28.778,-1.867
16.82,-33.095,-2.371
16.85,-37.517,-2.795
16.89,-42.009,-3.059
16.92,-46.361,-3.311
16.95,-50.713,-3.517
16.99,-54.889,-3.689
17.02,-58.89,-3.906
17.05,-62.961,-4.055
17.08,-66.821,-4.25
17.12,-70.612,-4.41
17.15,-74.261,-4.617
17.18,-77.841,-4.846
17.21,-81.526,-5.109
17.25,-85.211,-5.338
17.28,-88.896,-5.579
17.31,-92.476,-5.842
17.34,-96.161,-6.094
17.38,-99.811,-6.255
17.41,-103.426,-6.472
17.44,-107.111,-6.644
17.47,-110.48,-6.908
17.51,-114.235,-7.16
17.54,-117.78,-7.354
17.57,-121.324,-7.595
17.6,-125.044,-7.859
17.64,-128.764,-8.042
17.67,-132.309,-8.34
17.7,-135.854,-8.477
17.73,-138.275,-8.626
17.77,-142.451,-9.176
17.8,-146.487,-9.096
17.83,-150.208,-9.577
17.86,-155.156,-9.863
17.9,-159.438,-9.978
17.93,-162.982,-10.115
17.96,-166.527,-10.413
17.99,-170.282,-10.539
18.03,-173.581,-10.711
18.06,-176.775,-10.906
18.09,-179.968,-11.135
18.12,-183.302,-11.284
18.16,-186.496,-11.513
18.19,-189.935,-11.685
18.22,-192.673,-11.845
18.25,-196.603,-12.257
18.29,-200.113,-12.189
18.32,-202.605,-12.532
18.35,-206.184,-12.796
18.38,-209.483,-12.91
18.42,-212.08,-12.945
18.45,-212.923,-12.979
18.48,-216.713,-13.735
18.51,-222.679,-13.804
18.55,-225.557,-13.781
18.58,-227.592,-14.193
18.61,-230.295,-14.423
18.64,-232.576,-14.468
18.68,-234.541,-14.537
18.71,-236.612,-14.537
18.74,-238.753,-14.663
18.77,-241.209,-14.927
18.81,-243.877,-15.144
18.84,-246.579,-15.396
18.87,-249.492,-15.637
18.9,-252.37,-15.832
18.94,-255.212,-16.026
18.97,-257.95,-16.164
19.0,-260.336,-16.255
19.03,-262.582,-16.393
19.07,-264.723,-16.473
19.1,-266.794,-16.576
19.13,-268.759,-16.725
19.17,-270.724,-16.885
19.2,-272.725,-16.977
19.23,-274.515,-17.092
19.26,-276.55,-17.264
19.3,-278.656,-17.378
19.33,-280.692,-17.504
19.36,-282.692,-17.676
19.39,-284.727,-17.825
19.43,-286.588,-17.951
19.46,-288.412,-18.111
19.49,-290.132,-18.237
19.52,-291.887,-18.352
19.56,-293.501,-18.409
19.59,-295.045,-18.569
19.62,-296.625,-18.604
19.65,-297.713,-18.707
19.69,-299.713,-18.867
19.72,-300.906,-18.764
19.75,-302.029,-18.959
19.78,-303.433,-18.993
19.82,-304.626,-19.096
19.85,-305.855,-19.131
19.88,-306.978,-19.234
19.91,-308.136,-19.303
19.95,-309.048,-19.44
19.98,-310.207,-19.566
20.01,-311.33,-19.623
20.04,-312.207,-19.715
20.08,-313.014,-19.818
20.11,-313.786,-19.875
20.14,-314.523,-19.921
20.17,-315.225,-19.967
20.21,-315.857,-20.013
20.24,-316.594,-20.024
20.27,-317.296,-20.001
20.3,-317.857,-20.024
20.34,-318.489,-20.059
20.37,-319.121,-20.059
20.4,-319.682,-20.093
20.43,-320.139,-20.173
20.47,-320.63,-20.242
20.5,-321.051,-20.322
20.53,-321.648,-20.357
20.56,-322.174,-20.334
20.6,-322.665,-20.322
20.63,-323.051,-20.345
20.66,-323.473,-20.391
20.69,-323.894,-20.379
20.73,-324.245,-20.414
20.76,-324.596,-20.448
20.79,-324.947,-20.437
20.82,-325.403,-20.379
20.86,-325.684,-20.357
20.89,-325.929,-20.357
20.92,-326.14,-20.402
20.95,-326.456,-20.402
20.99,-326.631,-20.414
21.02,-326.912,-20.437
21.05,-327.193,-20.402
21.08,-327.403,-20.334
21.12,-327.544,-20.288
21.15,-327.719,-20.242
21.18,-327.824,-20.208
21.22,-327.965,-20.208
21.25,-328.14,-20.15
21.28,-328.246,-20.104
21.31,-328.316,-20.059
21.35,-328.386,-20.001
21.38,-328.421,-19.956
21.41,-328.561,-19.921
21.44,-328.596,-19.864
21.48,-328.632,-19.818
21.51,-328.737,-19.726
21.54,-328.702,-19.623
21.57,-328.667,-19.589
21.61,-328.596,-19.6
21.64,-328.632,-19.543
21.67,-328.632,-19.417
21.7,-328.596,-19.314
21.74,-328.526,-19.211
21.77,-328.386,-19.165
21.8,-328.351,-19.062
21.83,-328.07,-18.959
21.87,-327.895,-18.867
21.9,-327.614,-18.695
21.93,-327.122,-18.581
21.96,-326.631,-18.421
22.0,-325.859,-18.272
22.03,-324.982,-18.111
22.06,-323.543,-17.916
22.09,-321.753,-17.79
22.13,-320.068,-17.573
22.16,-317.928,-17.332
22.19,-315.927,-17.195
22.22,-314.137,-17.023
22.26,-311.961,-16.828
22.29,-309.435,-16.737
22.32,-306.943,-16.668
22.35,-304.346,-16.53
22.39,-301.819,-16.404
22.42,-299.117,-16.21
22.45,-296.204,-16.026
22.48,-293.256,-15.854
22.52,-290.202,-15.637
22.55,-287.009,-15.442
22.58,-283.745,-15.316
22.61,-280.586,-15.11
22.65,-277.322,-14.927
22.68,-274.129,-14.789
22.71,-271.075,-14.64
22.74,-268.057,-14.526
22.78,-265.215,-14.377
22.81,-262.231,-14.228
22.84,-259.248,-14.09
22.87,-256.125,-13.907
22.91,-252.896,-13.735
22.94,-249.702,-13.54
22.97,-246.509,-13.311
23.0,-243.28,-13.105
23.04,-240.016,-12.933
23.07,-236.823,-12.727
23.1,-233.488,-12.555
23.13,-230.084,-12.406
23.17,-226.68,-12.257
23.2,-223.451,-12.097
23.23,-220.152,-11.891
23.26,-216.748,-11.673
23.3,-213.519,-11.444
23.33,-210.15,-11.226
23.36,-206.711,-11.02
23.4,-203.201,-10.803
23.43,-199.481,-10.619
23.46,-195.761,-10.39
23.49,-191.866,-10.161
23.53,-188.11,-9.943
23.56,-184.25,-9.691
23.59,-180.249,-9.462
23.62,-176.389,-9.222
23.66,-172.318,-8.958
23.69,-168.211,-8.752
23.72,-164.035,-8.523
23.75,-159.753,-8.271
23.79,-155.472,-8.088
23.82,-151.541,-7.893
23.85,-147.189,-7.572
23.88,-142.732,-7.343
23.92,-138.24,-7.137
23.95,-133.643,-6.908
23.98,-129.115,-6.667
24.01,-124.448,-6.427
24.05,-119.885,-6.209
24.08,-115.288,-5.957
24.11,-110.76,-5.751
24.14,-106.409,-5.522
24.18,-101.741,-5.304
24.21,-97.073,-5.121
24.24,-92.546,-4.903
24.27,-88.124,-4.674
24.31,-83.597,-4.433
24.34,-79.105,-4.204
24.37,-74.577,-3.987
24.4,-70.085,-3.735
24.44,-65.453,-3.505
24.47,-60.96,-3.276
24.5,-56.398,-3.036
24.53,-51.836,-2.795
24.57,-47.273,-2.532
24.6,-42.641,-2.291
24.63,-38.043,-2.073
24.66,-33.551,-1.833
24.7,-28.954,-1.615
24.73,-24.181,-1.455
24.76,-19.724,-1.26
24.79,-15.196,-1.054
24.83,-10.88,-0.848
24.86,-6.387,-0.584
24.89,-2.036,-0.378
24.92,2.527,-0.137
24.96,7.054,-0.034
24.99,11.722,0.183
25.02,15.968,0.435
25.05,20.636,0.848
25.09,23.759,1.031
25.12,29.059,2.177
25.15,34.042,2.085
25.18,36.394,2.761
25.22,42.009,3.402
25.25,46.922,3.276
25.28,50.502,3.517
25.31,54.889,3.735
25.35,59.1,3.78
25.38,62.75,3.964
25.41,66.786,4.239
25.44,70.576,4.399
25.48,74.086,4.628
25.51,77.771,4.88
25.54,81.526,5.075
25.58,85.246,5.281
25.61,88.931,5.544
25.64,92.651,5.774
25.67,96.196,6.037
25.71,99.881,6.301
25.74,103.601,6.53
25.77,107.111,6.724
25.8,110.76,6.919
25.84,114.34,7.137
25.87,117.85,7.366
25.9,121.465,7.664
25.93,125.185,7.927
25.97,128.799,8.145
26.0,132.59,8.397
26.03,136.24,8.557
26.06,139.223,8.637
26.1,142.171,8.924
26.13,146.277,9.245
26.16,150.839,9.462
26.19,155.226,9.726
26.23,159.402,9.966
26.26,163.087,10.15
26.29,166.597,10.379
26.32,170.247,10.493
26.36,173.651,10.688
26.39,176.915,10.848
26.42,180.214,11.112
26.45,183.513,11.261
26.49,186.882,11.547
26.52,189.865,11.662
26.55,192.953,12.005
26.58,197.305,12.2
26.62,199.797,12.177
26.65,202.921,12.658
26.68,206.746,12.704
26.71,209.659,12.899
26.75,212.537,13.071
26.78,213.73,13.014
26.81,216.081,13.644
26.84,222.293,13.999
26.88,226.259,13.804
26.91,228.365,14.113
26.94,230.997,14.342
26.97,233.418,14.4
27.01,235.208,14.445
27.04,237.068,14.663
27.07,239.349,14.835
27.1,241.876,14.984
27.14,244.403,15.179
27.17,247.246,15.408
27.2,250.159,15.625
27.23,252.721,15.866
27.27,255.318,16.084
27.3,257.915,16.198
27.33,260.266,16.278
27.36,262.477,16.404
27.4,264.618,16.576
27.43,266.899,16.691
27.46,268.864,16.794
27.49,270.76,16.977
27.53,272.795,17.08
27.56,274.725,17.206
27.59,276.691,17.344
27.63,278.726,17.516
27.66,280.832,17.664
27.69,282.973,17.756
27.72,284.868,17.859
27.76,286.588,18.054
27.79,288.412,18.214
27.82,290.167,18.317
27.85,291.817,18.501
27.89,293.501,18.569
27.92,295.186,18.615
27.95,296.695,18.65
27.98,298.239,18.787
28.02,299.608,18.81
28.05,300.871,19.073
28.08,302.17,19.005
28.11,302.521,19.165
28.15,305.048,19.429
28.18,305.89,19.154
28.21,306.978,19.555
28.24,308.487,19.36
28.28,309.259,19.555
28.31,310.417,19.6
28.34,311.33,19.726
28.37,312.418,19.784
28.41,313.225,19.864
28.44,314.032,19.91
28.47,314.839,19.921
28.5,315.611,19.852
28.54,316.068,19.875
28.57,316.699,19.99
28.6,317.296,20.093
28.63,317.998,20.127
28.67,318.524,20.173
28.7,319.121,20.242
28.73,319.717,20.23
28.76,320.209,20.242
28.8,320.77,20.253
28.83,321.191,20.299
28.86,321.577,20.322
28.89,322.174,20.414
28.93,322.595,20.379
28.96,322.736,20.425
28.99,323.578,20.437
29.02,323.964,20.322
29.06,324.245,20.425
29.09,324.631,20.448
29.12,324.947,20.494
29.15,325.403,20.46
29.19,325.684,20.437
29.22,325.999,20.402
29.25,326.28,20.334
29.28,326.526,20.357
29.32,326.807,20.299
29.35,326.982,20.311
29.38,327.228,20.357
29.41,327.438,20.276
29.45,327.579,20.345
29.48,327.824,20.311
29.51,327.965,20.253
29.54,328.14,20.173
29.58,328.281,20.127
29.61,328.386,20.059
29.64,328.421,20.093
29.67,328.561,20.07
29.71,328.596,20.047
29.74,328.667,20.013
29.77,328.772,19.921
29.81,328.842,19.818
29.84,328.842,19.715
29.87,328.842,19.669
29.9,328.842,19.623
29.94,328.842,19.532
29.97,328.842,19.44
30.0,328.947,19.383
30.03,328.807,19.28
30.07,328.772,19.199
30.1,328.702,19.062
30.13,328.386,19.051
30.16,328.316,18.982
30.2,327.895,18.879
30.23,327.754,18.867
30.26,327.263,18.718
30.29,326.772,18.65
30.33,326.245,18.386
30.36,325.017,18.191
30.39,323.648,18.02
30.42,322.034,17.848
30.46,320.174,17.687
30.49,318.068,17.516
30.52,316.138,17.367
30.55,314.102,17.172
30.59,311.891,17.034
30.62,309.645,16.851
30.65,307.259,16.645
30.68,304.732,16.462
30.72,301.959,16.37
30.75,299.327,16.21
30.78,296.344,16.026
30.81,293.256,15.923
30.85,290.202,15.728
30.88,287.044,15.522
30.91,283.78,15.339
30.94,280.481,15.202
30.98,277.252,15.064
31.01,274.094,14.892
31.04,271.075,14.72
31.07,268.092,14.594
31.11,265.179,14.48
31.14,262.337,14.251
31.17,259.143,14.079
31.2,256.09,13.918
31.24,252.931,13.747
31.27,249.632,13.598
31.3,246.439,13.449
31.33,243.315,13.243
31.37,240.051,13.059
31.4,236.858,12.876
31.43,233.699,12.635
31.46,230.435,12.418
31.5,227.101,12.223
31.53,223.872,12.017
31.56,220.573,11.776
31.59,217.134,11.604
31.63,213.695,11.421
31.66,210.255,11.215
31.69,206.711,10.986
31.72,203.131,10.768
31.76,199.551,10.551
31.79,195.831,10.356
31.82,192.076,10.15
31.86,188.216,9.932
31.89,184.32,9.76
31.92,180.46,9.508
31.95,176.424,9.233
31.99,172.388,8.935
32.02,168.176,8.706
32.05,164.0,8.5
32.08,159.789,8.259
32.12,155.507,8.042
32.15,151.225,7.801
32.18,146.873,7.561
32.21,142.557,7.32
32.25,138.17,7.08
32.28,133.643,6.839
32.31,129.045,6.656
32.34,124.588,6.427
32.38,119.991,6.197
32.41,115.323,6.003
32.44,110.831,5.762
32.47,106.268,5.556
32.51,101.741,5.315
32.54,97.144,5.052
32.57,92.616,4.834
32.6,88.089,4.605
32.64,83.527,4.422
32.67,79.034,4.193
32.7,74.648,4.009
32.73,70.19,3.757
32.77,65.768,3.505
32.8,61.206,3.208
32.83,56.714,2.99
32.86,52.116,2.692
32.9,47.484,2.555
32.93,42.851,2.177
32.96,38.148,2.199
32.99,34.428,1.913
33.03,28.006,1.409
33.06,24.11,1.799
33.09,20.461,1.077
33.12,14.67,0.928
33.16,10.634,0.848
33.19,6.598,0.538
33.22,1.79,0.321
33.25,-2.667,0.286
33.29,-6.984,0.034
33.32,-11.722,-0.172
33.35,-16.144,-0.435
33.38,-20.39,-0.825
33.42,-24.742,-1.283
33.45,-28.918,-1.776
33.48,-33.2,-2.291
33.51,-37.517,-2.726
33.55,-42.009,-3.059
33.58,-46.396,-3.322
33.61,-50.642,-3.586
33.64,-54.959,-3.757
33.68,-59.065,-3.872
33.71,-62.926,-4.032
33.74,-66.856,-4.204
33.77,-70.717,-4.353
33.81,-74.332,-4.571
33.84,-77.982,-4.8
33.87,-81.596,-5.04
33.9,-85.176,-5.304
33.94,-88.756,-5.556
33.97,-92.336,-5.831
34.0,-96.091,-6.026
34.04,-99.635,-6.243
34.07,-103.355,-6.495
34.1,-106.9,-6.701
34.13,-110.269,-6.988
34.17,-113.989,-7.228
34.2,-117.639,-7.4
34.23,-121.219,-7.664
34.26,-124.904,-7.847
34.3,-128.624,-8.122
34.33,-132.309,-8.225
34.36,-135.187,-8.454
34.39,-139.223,-8.821
34.43,-141.925,-8.741
34.46,-145.435,-9.371
34.49,-150.629,-9.577
34.52,-155.051,-9.783
34.56,-159.122,-10.035
34.59,-162.807,-10.253
34.62,-166.316,-10.413
34.65,-169.791,-10.585
34.69,-173.3,-10.722
34.72,-176.564,-10.906
34.75,-179.793,-11.066
34.78,-183.092,-11.272
34.82,-186.426,-11.467
34.85,-189.725,-11.685
34.88,-193.059,-11.902
34.91,-196.288,-12.166
34.95,-199.551,-12.349
34.98,-202.113,-12.521
35.01,-205.974,-12.945
35.04,-209.378,-12.865
35.08,-211.519,-13.014
35.11,-212.923,-13.036
35.14,-216.432,-13.655
35.17,-222.328,-13.827
35.21,-225.627,-13.804
35.24,-227.733,-14.171
35.27,-230.26,-14.423
35.3,-232.471,-14.48
35.34,-234.436,-14.48
35.37,-236.612,-14.434
35.4,-238.753,-14.571
35.43,-241.245,-14.823
35.47,-243.771,-15.075
35.5,-246.544,-15.408
35.53,-249.492,-15.648
35.56,-252.37,-15.854
35.6,-255.247,-16.026
35.63,-257.88,-16.164
35.66,-260.266,-16.278
35.69,-262.547,-16.359
35.73,-264.618,-16.473
35.76,-266.583,-16.588
35.79,-268.619,-16.702
35.82,-270.514,-16.84
35.86,-272.479,-17.011
35.89,-274.445,-17.103
35.92,-276.305,-17.275
35.95,-278.375,-17.424
35.99,-280.481,-17.584
36.02,-282.481,-17.756
36.05,-284.482,-17.951
36.09,-286.447,-18.054
36.12,-288.412,-18.146
36.15,-290.097,-18.214
36.18,-291.887,-18.375
36.22,-293.431,-18.317
36.25,-294.765,-18.558
36.28,-297.186,-18.638
36.31,-298.134,-18.604
36.35,-299.432,-18.856
36.38,-300.836,-18.844
36.41,-302.1,-18.959
36.44,-303.398,-19.005
36.48,-304.556,-19.096
36.51,-305.75,-19.154
36.54,-306.873,-19.28
36.57,-308.031,-19.371
36.61,-309.048,-19.452
36.64,-310.172,-19.52
36.67,-311.189,-19.589
36.7,-312.137,-19.646
36.74,-312.979,-19.726
36.77,-313.716,-19.807
36.8,-314.523,-19.887
36.83,-315.295,-19.921
36.87,-315.962,-19.956
36.9,-316.699,-19.99
36.93,-317.296,-20.07
36.96,-318.033,-20.07
37.0,-318.594,-20.093
37.03,-319.121,-20.162
37.06,-319.717,-20.208
37.09,-320.174,-20.242
37.13,-320.7,-20.311
37.16,-321.156,-20.322
37.19,-321.648,-20.357
37.22,-322.139,-20.368
37.26,-322.63,-20.379
37.29,-323.051,-20.402
37.32,-323.402,-20.471
37.35,-323.894,-20.505
37.39,-324.35,-20.483
37.42,-324.631,-20.437
37.45,-325.017,-20.414
37.48,-325.508,-20.288
37.52,-325.684,-20.253
37.55,-325.929,-20.322
37.58,-326.14,-20.391
37.61,-326.421,-20.437
37.65,-326.631,-20.494
37.68,-326.947,-20.471
37.71,-327.122,-20.414
37.74,-327.403,-20.357
37.78,-327.544,-20.242
37.81,-327.684,-20.253
37.84,-327.859,-20.23
37.87,-327.895,-20.265
37.91,-328.14,-20.242
37.94,-328.246,-20.139
37.97,-328.316,-20.116
38.0,-328.386,-20.047
38.04,-328.491,-19.967
38.07,-328.561,-19.864
38.1,-328.667,-19.795
38.13,-328.702,-19.681
38.17,-328.596,-19.681
38.2,-328.737,-19.612
38.23,-328.667,-19.566
38.27,-328.702,-19.543
38.3,-328.702,-19.44
38.33,-328.667,-19.383
38.36,-328.561,-19.314
38.4,-328.456,-19.28
38.43,-328.421,-19.177
38.46,-328.281,-19.073
38.49,-328.175,-18.936
38.53,-327.859,-18.856
38.56,-327.579,-18.753
38.59,-327.193,-18.604
38.62,-326.596,-18.443
38.66,-325.824,-18.352
38.69,-324.876,-18.214
38.72,-323.402,-18.042
38.75,-321.858,-17.871
38.79,-320.139,-17.607
38.82,-318.033,-17.367
38.85,-315.962,-17.218
38.88,-314.032,-17.057
38.92,-311.856,-16.908
38.95,-309.399,-16.828
38.98,-307.048,-16.702
39.01,-304.556,-16.519
39.05,-301.994,-16.324
39.08,-299.327,-16.141
39.11,-296.484,-15.923
39.14,-293.361,-15.74
39.18,-290.273,-15.534
39.21,-287.009,-15.373
39.24,-283.815,-15.224
39.27,-280.551,-15.064
39.31,-277.182,-14.949
39.34,-274.023,-14.846
39.37,-271.005,-14.709
39.4,-268.022,-14.583
39.44,-265.179,-14.434
39.47,-262.231,-14.297
39.5,-259.248,-14.102
39.53,-256.09,-13.93
39.57,-253.001,-13.747
39.6,-249.843,-13.518
39.63,-246.614,-13.311
39.66,-243.385,-13.105
39.7,-240.086,-12.91
39.73,-236.823,-12.75
39.76,-233.524,-12.567
39.79,-230.225,-12.429
39.83,-227.031,-12.223
39.86,-223.627,-12.028
39.89,-220.433,-11.799
39.92,-217.204,-11.559
39.96,-213.695,-11.364
39.99,-210.291,-11.169
40.02,-206.816,-10.94
40.05,-203.131,-10.745
40.09,-199.551,-10.573
40.12,-195.866,-10.321
40.15,-192.006,-10.127
40.18,-188.286,-9.886
40.22,-184.39,-9.657
40.25,-180.46,-9.439
40.28,-176.424,-9.21
40.32,-172.423,-8.993
40.35,-168.282,-8.763
40.38,-164.14,-8.523
40.41,-159.789,-8.282
40.45,-155.507,-8.053
40.48,-151.26,-7.813
40.51,-146.838,-7.572
40.54,-142.451,-7.4
40.58,-138.1,-7.194
40.61,-133.607,-6.965
40.64,-129.01,-6.747
40.67,-124.588,-6.518
40.71,-120.096,-6.243
40.74,-115.533,-5.98
40.77,-111.006,-5.728
40.8,-106.479,-5.499
40.84,-101.776,-5.304
40.87,-97.214,-5.098
40.9,-92.616,-4.869
40.93,-88.019,-4.662
40.97,-83.492,-4.468
41.0,-78.999,-4.239
41.03,-74.648,-3.975
41.06,-70.085,-3.723
41.1,-65.523,-3.494
41.13,-61.136,-3.242
41.16,-56.538,-3.013
41.19,-52.046,-2.818
41.23,-47.414,-2.566
41.26,-42.781,-2.314
41.29,-38.289,-2.016
41.32,-33.621,-1.787
41.36,-28.918,-1.615
41.39,-24.356,-1.432
41.42,-19.759,-1.226
41.45,-15.302,-1.02
41.49,-10.844,-0.79
41.52,-6.422,-0.607
41.55,-2.0,-0.367
41.58,2.422,-0.206
41.62,7.054,-0.069
41.65,11.441,0.092
41.68,15.968,0.424
41.71,20.11,0.71
41.75,24.707,1.249
41.78,27.76,1.466
41.81,32.674,2.681
41.84,38.324,2.623
41.88,40.71,3.013
41.91,46.185,3.654
41.94,51.239,3.517
41.97,54.678,3.723
42.01,58.82,4.009
42.04,63.066,4.078
42.07,66.681,4.239
42.1,70.647,4.456
42.14,74.402,4.559
42.17,77.946,4.788
42.2,81.631,5.029
42.23,85.281,5.258
42.27,88.931,5.51
42.3,92.722,5.739
42.33,96.301,5.968
42.36,99.951,6.209
42.4,103.531,6.449
42.43,107.146,6.667
42.46,110.725,6.908
42.5,114.305,7.16
42.53,117.85,7.412
42.56,121.535,7.687
42.59,125.325,7.893
42.63,128.975,8.133
42.66,132.73,8.408
42.69,136.38,8.592
42.72,139.398,8.649
42.76,142.276,8.912
42.79,146.382,9.268
42.82,150.909,9.497
42.85,155.367,9.794
42.89,159.648,10.024
42.92,163.263,10.218
42.95,166.772,10.402
42.98,170.422,10.573
43.02,173.862,10.665
43.05,177.055,10.883
43.08,180.424,11.1
43.11,183.653,11.295
43.15,186.952,11.456
43.18,190.181,11.719
43.21,193.55,11.811
43.24,196.112,12.04
43.28,200.464,12.452
43.31,203.307,12.338
43.34,205.869,12.876
43.37,209.694,13.025
43.41,212.747,13.162
43.44,214.116,13.014
43.47,215.976,13.506
43.5,221.907,13.953
43.54,226.434,13.781
43.57,228.54,14.01
43.6,231.067,14.319
43.63,233.488,14.331
43.67,235.033,14.445
43.7,236.998,14.697
43.73,239.42,14.835
43.76,241.876,14.984
43.8,244.543,15.19
43.83,247.351,15.431
43.86,250.299,15.683
43.89,253.107,15.866
43.93,255.563,16.049
43.96,258.266,16.21
43.99,260.512,16.313
44.02,262.688,16.45
44.06,264.934,16.553
44.09,266.934,16.691
44.12,268.935,16.828
44.15,270.97,16.931
44.19,272.725,17.069
44.22,274.62,17.286
44.25,276.726,17.424
44.28,278.726,17.55
44.32,280.902,17.63
44.35,282.938,17.71
44.38,284.833,17.871
44.41,286.693,18.02
44.45,288.448,18.134
44.48,290.097,18.26
44.51,291.711,18.432
44.55,293.466,18.501
44.58,295.081,18.581
44.61,296.59,18.684
44.64,298.099,18.844
44.68,299.432,18.89
44.71,300.941,19.085
44.74,302.029,18.925
44.77,302.556,19.28
44.81,305.223,19.36
44.84,305.785,19.177
44.87,307.224,19.486
44.9,308.417,19.28
44.94,309.259,19.589
44.97,310.558,19.566
45.0,311.435,19.726
45.03,312.453,19.772
45.07,313.26,19.841
45.1,314.032,19.83
45.13,314.839,19.864
45.16,315.506,19.83
45.2,316.032,19.921
45.23,316.734,20.013
45.26,317.366,20.093
45.29,317.998,20.15
45.33,318.665,20.219
45.36,319.331,20.196
45.39,319.893,20.173
45.42,320.314,20.208
45.46,320.665,20.311
45.49,321.121,20.379
45.52,321.683,20.448
45.55,322.139,20.448
45.59,322.665,20.505
45.62,322.946,20.437
45.65,323.262,20.505
45.68,324.069,20.425
45.72,324.21,20.425
45.75,324.631,20.517
45.78,324.911,20.494
45.81,325.262,20.586
45.85,325.578,20.597
45.88,325.929,20.586
45.91,326.28,20.448
45.94,326.526,20.379
45.98,326.701,20.334
46.01,326.912,20.402
46.04,327.228,20.357
46.07,327.438,20.322
46.11,327.579,20.299
46.14,327.754,20.253
46.17,327.895,20.23
46.2,328.035,20.219
46.24,328.316,20.116
46.27,328.351,20.013
46.3,328.386,20.036
46.33,328.526,19.978
46.37,328.526,19.978
46.4,328.807,19.864
46.43,328.702,19.784
46.46,328.772,19.772
46.5,328.842,19.658
46.53,328.702,19.646
46.56,328.772,19.589
46.59,328.807,19.543
46.63,328.772,19.486
46.66,328.772,19.417
46.69,328.772,19.257
46.73,328.632,19.142
46.76,328.526,19.073
46.79,328.316,19.039
46.82,328.21,18.959
46.86,327.895,18.879
46.89,327.614,18.81
46.92,327.263,18.661
46.95,326.772,18.466
46.99,326.07,18.26
47.02,325.017,18.111
47.05,323.543,17.985
47.08,322.104,17.848
47.12,320.384,17.596
47.15,318.279,17.424
47.18,316.208,17.264
47.21,314.207,17.149
47.25,312.172,16.943
47.28,309.68,16.737
47.31,307.083,16.633
47.34,304.697,16.496
47.38,302.065,16.301
47.41,299.257,16.175
47.44,296.309,16.061
47.47,293.431,15.889
47.51,290.308,15.637
47.54,287.079,15.465
47.57,283.885,15.316
47.6,280.656,15.156
47.64,277.357,15.007
47.67,274.234,14.869
47.7,271.111,14.743
47.73,268.198,14.64
47.77,265.355,14.468
47.8,262.407,14.274
47.83,259.424,14.079
47.86,256.335,13.884
47.9,253.177,13.724
47.93,250.018,13.518
47.96,246.86,13.288
47.99,243.456,13.117
48.03,240.227,12.945
48.06,236.928,12.761
48.09,233.699,12.578
48.12,230.435,12.372
48.16,227.066,12.2
48.19,223.802,12.017
48.22,220.468,11.799
48.25,217.099,11.65
48.29,213.695,11.456
48.32,210.326,11.226
48.35,206.816,10.997
48.38,203.236,10.768
48.42,199.551,10.573
48.45,195.866,10.379
48.48,192.146,10.161
48.51,188.251,9.966
48.55,184.39,9.76
48.58,180.565,9.497
48.61,176.564,9.233
48.64,172.493,8.947
48.68,168.352,8.729
48.71,164.14,8.489
48.74,159.789,8.282
48.77,155.577,8.042
48.81,151.26,7.79
48.84,146.838,7.561
48.87,142.592,7.309
48.91,138.17,7.045
48.94,133.678,6.805
48.97,129.256,6.541
49.0,124.658,6.301
49.04,120.026,6.129
49.07,115.498,5.934
49.1,110.971,5.728
49.13,106.444,5.522
49.17,101.917,5.304
49.2,97.249,5.086
49.23,92.792,4.869
49.26,88.264,4.605
49.3,83.737,4.365
49.33,79.245,4.135
49.36,74.823,3.918
49.39,70.296,3.631
49.43,65.768,3.402
49.46,61.241,3.15
49.49,56.609,2.956
49.52,52.011,2.726
49.56,47.414,2.543
49.59,42.851,2.211
49.62,38.113,2.142
49.65,34.709,1.902
49.69,28.357,1.249
49.72,24.04,1.718
49.75,20.741,1.065
49.78,14.88,0.825
49.82,10.423,0.894
49.85,6.528,0.584
49.88,1.72,0.321
49.91,-2.773,0.252
49.95,-6.949,0.011
49.98,-11.652,-0.206
50.01,-16.074,-0.458
50.04,-20.25,-0.848
50.08,-24.602,-1.306
50.11,-28.708,-1.81
50.14,-32.919,-2.406
50.17,-37.447,-2.841
50.21,-41.904,-3.15
50.24,-46.22,-3.414
50.27,-50.642,-3.677
50.3,-54.959,-3.803
50.34,-58.925,-3.987
50.37,-62.961,-4.135
50.4,-66.997,-4.216
50.43,-70.682,-4.376
50.47,-74.261,-4.617
50.5,-77.876,-4.834
50.53,-81.456,-5.086
50.56,-85.211,-5.315
50.6,-88.861,-5.567
50.63,-92.511,-5.831
50.66,-96.196,-6.014
50.69,-99.741,-6.232
50.73,-103.461,-6.472
50.76,-107.005,-6.724
50.79,-110.55,-6.976
50.82,-114.165,-7.206
50.86,-117.78,-7.4
50.89,-121.394,-7.595
50.92,-125.009,-7.824
50.96,-128.589,-8.088
50.99,-132.414,-8.294
51.02,-135.081,-8.454
51.05,-138.942,-8.924
51.09,-142.206,-8.821
51.12,-145.47,-9.371
51.15,-150.664,-9.623
51.18,-155.156,-9.749
51.22,-159.122,-9.978
51.25,-162.807,-10.23
51.28,-166.527,-10.413
51.31,-170.001,-10.585
51.35,-173.441,-10.734
51.38,-176.529,-10.917
51.41,-179.828,-11.112
51.44,-183.162,-11.272
51.48,-186.461,-11.456
51.51,-189.69,-11.73
51.54,-193.094,-11.96
51.57,-196.428,-12.212
51.61,-199.481,-12.349
51.64,-202.043,-12.544
51.67,-206.009,-12.899
51.7,-209.273,-12.819
51.74,-211.729,-13.071
51.77,-213.309,-13.002
51.8,-216.292,-13.644
51.83,-222.328,-13.861
51.87,-225.697,-13.77
51.9,-227.592,-14.193
51.93,-230.26,-14.48
51.96,-232.681,-14.526
52.0,-234.541,-14.537
52.03,-236.507,-14.56
52.06,-238.718,-14.652
52.09,-241.139,-14.869
52.13,-243.701,-15.133
52.16,-246.509,-15.408
52.19,-249.352,-15.671
52.22,-252.335,-15.877
52.26,-255.212,-16.038
52.29,-257.809,-16.187
52.32,-260.266,-16.313
52.35,-262.512,-16.45
52.39,-264.618,-16.565
52.42,-266.618,-16.679
52.45,-268.619,-16.794
52.48,-270.584,-16.908
52.52,-272.514,-17.0
52.55,-274.409,-17.172
52.58,-276.34,-17.309
52.61,-278.34,-17.493
52.65,-280.411,-17.687
52.68,-282.552,-17.813
52.71,-284.587,-17.905
52.74,-286.482,-18.042
52.78,-288.237,-18.111
52.81,-290.132,-18.237
52.84,-291.747,-18.295
52.87,-293.501,-18.466
52.91,-294.94,-18.421
52.94,-296.344,-18.65
52.97,-298.415,-18.73
53.0,-299.327,-18.753
53.04,-300.591,-18.947
53.07,-301.924,-18.97
53.1,-303.223,-19.062
53.14,-304.416,-19.096
53.17,-305.574,-19.199
53.2,-306.697,-19.337
53.23,-307.925,-19.452
53.27,-309.048,-19.486
53.3,-310.207,-19.589
53.33,-311.295,-19.589
53.36,-312.067,-19.646
53.4,-312.944,-19.704
53.43,-313.786,-19.784
53.46,-314.629,-19.83
53.49,-315.295,-19.864
53.53,-315.962,-19.898
53.56,-316.629,-19.967
53.59,-317.296,-19.978
53.62,-317.892,-19.967
53.66,-318.559,-19.99
53.69,-319.121,-20.024
53.72,-319.577,-20.116
53.75,-320.068,-20.196
53.79,-320.56,-20.276
53.82,-321.016,-20.334
53.85,-321.683,-20.322
53.88,-322.139,-20.322
53.92,-322.63,-20.311
53.95,-323.016,-20.288
53.98,-323.367,-20.368
54.01,-323.859,-20.391
54.05,-324.28,-20.437
54.08,-324.666,-20.414
54.11,-324.947,-20.391
54.14,-325.298,-20.414
54.18,-325.613,-20.391
54.21,-325.894,-20.391
54.24,-326.175,-20.391
54.27,-326.315,-20.425
54.31,-326.666,-20.448
54.34,-326.912,-20.357
54.37,-327.193,-20.322
54.4,-327.368,-20.242
54.44,-327.509,-20.219
54.47,-327.684,-20.219
54.5,-327.789,-20.208
54.53,-327.895,-20.242
54.57,-328.035,-20.253
54.6,-328.21,-20.173
54.63,-328.281,-20.104
54.66,-328.386,-20.07
54.7,-328.421,-20.001
54.73,-328.561,-19.921
54.76,-328.596,-19.852
54.79,-328.596,-19.807
54.83,-328.632,-19.738
54.86,-328.667,-19.681
54.89,-328.667,-19.612
54.92,-328.702,-19.555
54.96,-328.632,-19.486
54.99,-328.596,-19.452
55.02,-328.632,-19.348
55.05,-328.491,-19.28
55.09,-328.421,-19.154
55.12,-328.316,-19.062
55.15,-328.14,-18.925
55.19,-327.895,-18.821
55.22,-327.649,-18.65
55.25,-327.193,-18.535
55.28,-326.666,-18.398
55.32,-325.859,-18.283
55.35,-325.017,-18.168
55.38,-323.613,-17.974
55.41,-321.893,-17.813
55.45,-320.174,-17.561
55.48,-318.068,-17.321
55.51,-315.997,-17.16
55.54,-314.067,-17.046
55.58,-311.961,-16.943
55.61,-309.54,-16.828
55.64,-307.083,-16.691
55.67,-304.521,-16.53
55.71,-302.029,-16.324
55.74,-299.327,-16.129
55.77,-296.414,-15.958
55.8,-293.431,-15.797
55.84,-290.273,-15.637
55.87,-287.079,-15.465
55.9,-283.815,-15.305
55.93,-280.621,-15.121
55.97,-277.393,-14.938
56.0,-274.234,-14.823
56.03,-271.216,-14.675
56.06,-268.233,-14.549
56.1,-265.215,-14.388
56.13,-262.231,-14.228
56.16,-259.213,-14.079
56.19,-256.16,-13.884
56.23,-253.001,-13.689
56.26,-249.738,-13.529
56.29,-246.544,-13.334
56.32,-243.42,-13.14
56.36,-240.086,-12.968
56.39,-236.893,-12.773
56.42,-233.594,-12.601
56.45,-230.295,-12.418
56.49,-226.996,-12.246
56.52,-223.732,-12.063
56.55,-220.468,-11.834
56.58,-217.064,-11.616
56.62,-213.66,-11.41
56.65,-210.22,-11.192
56.68,-206.711,-10.963
56.71,-203.026,-10.757
56.75,-199.411,-10.539
56.78,-195.866,-10.276
56.81,-192.111,-10.047
56.84,-188.216,-9.829
56.88,-184.285,-9.611
56.91,-180.389,-9.394
56.94,-176.248,-9.222
56.97,-172.247,-9.027
57.01,-168.246,-8.729
57.04,-163.895,-8.523
57.07,-159.859,-8.271
57.1,-155.507,-8.007
57.14,-151.12,-7.801
57.17,-146.803,-7.606
57.2,-142.381,-7.412
57.23,-138.029,-7.183
57.27,-133.572,-6.942
57.3,-128.94,-6.724
57.33,-124.518,-6.518
57.37,-120.026,-6.255
57.4,-115.533,-6.003
57.43,-111.006,-5.774
57.46,-106.479,-5.567
57.5,-101.917,-5.373
57.53,-97.424,-5.132
57.56,-92.757,-4.903
57.59,-88.264,-4.639
57.63,-83.737,-4.41
57.66,-79.21,-4.158
57.69,-74.718,-3.895
57.72,-70.015,-3.757
57.76,-65.558,-3.551
57.79,-61.136,-3.288
57.82,-56.538,-3.001
57.85,-52.011,-2.772
57.89,-47.379,-2.532
57.92,-42.816,-2.291
57.95,-38.184,-2.085
57.98,-33.551,-1.936
58.02,-29.059,-1.753
58.05,-24.461,-1.443
58.08,-19.864,-1.226
58.11,-15.477,-0.962
58.15,-10.985,-0.722
58.18,-6.458,-0.504
58.21,-2.0,-0.344
58.24,2.702,-0.149
58.28,7.265,-0.092
58.31,11.687,0.16
58.34,16.179,0.367
58.37,20.496,0.848
58.41,24.637,1.077
58.44,27.69,1.741
58.47,33.902,2.589
58.5,37.411,2.383
58.54,40.781,3.334
58.57,46.747,3.46
58.6,50.748,3.482
58.63,54.573,3.78
58.67,58.995,3.998
58.7,62.926,3.987
58.73,66.716,4.25
58.76,70.752,4.387
58.8,74.261,4.548
58.83,77.806,4.766
58.86,81.491,4.995
58.89,85.106,5.258
58.93,88.826,5.567
58.96,92.546,5.785
58.99,96.196,6.026
59.02,99.776,6.243
59.06,103.461,6.472
59.09,107.216,6.644
59.12,110.725,6.862
59.15,114.27,7.102
59.19,117.885,7.354
59.22,121.5,7.652
59.25,125.185,7.927
59.28,128.94,8.179
59.32,132.765,8.363
59.35,136.415,8.511
59.38,139.293,8.637
59.42,142.276,8.935
59.45,146.417,9.29
59.48,150.874,9.52
59.51,155.296,9.794
59.55,159.508,9.989
59.58,163.263,10.184
59.61,166.772,10.39
59.64,170.422,10.585
59.68,173.686,10.722
59.71,177.02,10.94
59.74,180.319,11.135
59.77,183.688,11.318
59.81,186.812,11.524
59.84,190.286,11.765
59.87,193.059,11.753
59.9,196.638,12.28
59.94,200.394,12.246
59.97,202.64,12.567
60.0,206.395,12.899
60.03,209.694,12.991
60.07,212.572,13.162
60.1,213.905,13.002
60.13,216.116,13.54
60.16,222.083,13.941
60.2,226.224,13.827
60.23,228.365,14.079
60.26,230.997,14.308
60.29,233.278,14.377
60.33,235.033,14.526
60.36,236.963,14.697
60.39,239.244,14.835
60.42,241.701,14.972
60.46,244.368,15.133
60.49,247.141,15.408
60.52,250.229,15.614
60.55,252.861,15.774
60.59,255.353,16.003
60.62,257.985,16.198
60.65,260.336,16.301
60.68,262.653,16.416
60.72,264.828,16.53
60.75,266.899,16.679
60.78,268.9,16.84
60.81,270.935,16.989
60.85,272.865,17.092
60.88,274.831,17.218
60.91,276.796,17.344
60.94,278.831,17.481
60.98,280.972,17.584
61.01,282.938,17.733
61.04,284.903,17.882
61.07,286.693,18.008
61.11,288.448,18.191
61.14,290.132,18.295
61.17,291.922,18.398
61.2,293.536,18.466
61.24,295.151,18.627
61.27,296.59,18.684
61.3,298.099,18.844
61.33,299.327,18.856
61.37,300.836,19.073
61.4,301.678,18.959
61.43,302.556,19.36
61.46,305.118,19.371
61.5,305.609,19.257
61.53,307.118,19.566
61.56,308.171,19.474
61.6,309.329,19.704
61.63,310.417,19.635
61.66,311.365,19.818
61.69,312.383,19.795
61.73,313.26,19.83
61.76,314.067,19.749
61.79,314.769,19.749
61.82,315.366,19.784
61.86,315.927,19.898
61.89,316.629,19.944
61.92,317.155,20.082
61.95,317.857,20.162
61.99,318.594,20.116
62.02,319.226,20.047
62.05,319.717,20.036
62.08,320.244,20.093
62.12,320.7,20.139
62.15,321.016,20.23
62.18,321.577,20.368
62.21,322.174,20.402
62.25,322.595,20.46
62.28,323.087,20.471
62.31,323.508,20.483
62.34,323.929,20.483
62.38,324.315,20.505
62.41,324.666,20.494
62.44,325.052,20.46
62.47,325.368,20.437
62.51,325.719,20.471
62.54,326.035,20.414
62.57,326.315,20.379
62.6,326.561,20.322
62.64,326.772,20.334
62.67,326.982,20.299
62.7,326.877,20.334
62.73,327.368,20.425
62.77,327.544,20.391
62.8,327.824,20.368
62.83,328.0,20.196
62.86,328.07,20.185
62.9,328.246,20.093
62.93,328.281,20.104
62.96,328.526,20.013
62.99,328.491,20.001
63.03,328.596,20.047
63.06,328.702,19.933
63.09,328.702,19.887
63.12,328.807,19.807
63.16,328.737,19.738
63.19,328.842,19.669
63.22,328.772,19.635
63.25,328.807,19.589
63.29,328.737,19.543
63.32,328.737,19.463
63.35,328.737,19.348
63.38,328.737,19.177
63.42,328.632,19.028
63.45,328.526,18.902
63.48,328.351,18.787
63.51,328.0,18.73
63.55,327.614,18.684
63.58,327.298,18.569
63.61,326.666,18.432
63.65,326.105,18.283
63.68,324.982,18.088
63.71,323.402,18.008
63.74,321.999,17.871
63.78,320.665,17.745
63.81,318.665,17.47
63.84,316.208,17.344
63.87,314.243,17.206
63.91,311.996,16.966
63.94,309.821,16.805
63.97,307.188,16.611
64.0,304.697,16.565
64.04,301.924,16.37
64.07,299.046,16.324
64.1,296.414,16.129
64.13,293.396,15.877
64.17,290.308,15.648
64.2,287.079,15.442
64.23,283.99,15.27
64.26,280.656,15.133
64.3,277.393,15.03
64.33,274.094,14.869
64.36,270.97,14.812
64.39,268.198,14.652
64.43,265.285,14.468
64.46,262.407,14.285
64.49,259.354,14.079
64.52,256.23,13.918
64.56,253.036,13.735
64.59,249.913,13.529
64.62,246.614,13.334
64.65,243.35,13.185
64.69,240.157,12.968
64.72,236.787,12.796
64.75,233.559,12.635
64.78,230.295,12.464
64.82,227.066,12.269
64.85,223.802,12.04
64.88,220.503,11.879
64.91,217.204,11.662
64.95,213.87,11.444
64.98,210.431,11.204
65.01,206.886,10.986
65.04,203.201,10.791
65.08,199.586,10.573
65.11,195.901,10.333
65.14,192.041,10.115
65.17,188.145,9.932
65.21,184.425,9.668
65.24,180.389,9.416
65.27,176.459,9.176
65.3,172.353,8.947
65.34,168.211,8.729
65.37,164.035,8.489
65.4,159.718,8.305
65.43,155.472,8.076
65.47,151.225,7.824
65.5,146.838,7.538
65.53,142.416,7.309
65.56,138.029,7.057
65.6,133.537,6.816
65.63,129.01,6.598
65.66,124.483,6.369
65.69,119.92,6.14
65.73,115.323,5.934
65.76,110.866,5.67
65.79,106.339,5.418
65.83,101.741,5.212
65.86,97.179,5.029
65.89,92.722,4.823
65.92,88.054,4.639
65.96,83.562,4.456
65.99,79.21,4.261
66.02,74.788,3.987
66.05,70.226,3.735
66.09,65.804,3.482
66.12,61.276,3.253
66.15,56.784,2.978
66.18,52.081,2.738
66.22,47.484,2.52
66.25,42.746,2.337
66.28,38.254,2.039
66.31,33.481,1.879
66.35,30.112,1.718
66.38,23.9,0.974
66.41,19.337,1.489
66.44,16.425,0.836
66.48,10.493,0.55
66.51,5.896,0.676
66.54,2.071,0.424
66.57,-2.597,0.137
66.61,-7.3,0.08
66.64,-11.546,-0.149
66.67,-16.074,-0.47
66.7,-20.461,-0.825
66.74,-24.602,-1.249
66.77,-28.708,-1.821
66.8,-33.06,-2.325
66.83,-37.341,-2.795
66.87,-41.833,-3.127
66.9,-46.255,-3.391
66.93,-50.572,-3.597
66.96,-54.784,-3.757
67.0,-58.89,-3.895
67.03,-62.856,-4.055
67.06,-66.786,-4.216
67.09,-70.576,-4.399
67.13,-74.156,-4.662
67.16,-77.841,-4.926
67.19,-81.631,-5.132
67.22,-85.246,-5.304
67.26,-88.791,-5.533
67.29,-92.511,-5.785
67.32,-96.126,-5.98
67.35,-99.67,-6.232
67.39,-103.32,-6.495
67.42,-106.97,-6.69
67.45,-110.374,-6.954
67.48,-113.989,-7.217
67.52,-117.709,-7.446
67.55,-121.324,-7.641
67.58,-124.869,-7.939
67.61,-128.729,-8.122
67.65,-132.239,-8.42
67.68,-135.889,-8.546
67.71,-138.205,-8.637
67.74,-142.311,-9.187
67.78,-146.452,-9.096
67.81,-150.137,-9.577
67.84,-155.156,-9.863
67.87,-159.508,-9.989
67.91,-162.947,-10.218
67.94,-166.211,-10.516
67.97,-170.001,-10.665
68.01,-173.405,-10.78
68.04,-176.704,-10.952
68.07,-179.898,-11.112
68.1,-183.197,-11.261
68.14,-186.496,-11.421
68.17,-189.83,-11.65
68.2,-193.059,-11.856
68.23,-196.323,-12.166
68.27,-199.446,-12.303
68.3,-202.148,-12.544
68.33,-206.114,-12.876
68.36,-209.203,-12.807
68.4,-211.659,-13.059
68.43,-213.028,-13.025
68.46,-216.292,-13.747
68.49,-222.293,-13.93
68.53,-225.592,-13.896
68.56,-227.698,-14.274
68.59,-230.154,-14.537
68.62,-232.506,-14.56
68.66,-234.506,-14.526
68.69,-236.507,-14.514
68.72,-238.753,-14.652
68.75,-241.174,-14.927
68.79,-243.771,-15.179
68.82,-246.579,-15.396
68.85,-249.492,-15.625
68.88,-252.37,-15.797
68.92,-255.318,-15.969
68.95,-257.95,-16.072
68.98,-260.196,-16.267
69.01,-262.372,-16.45
69.05,-264.478,-16.588
69.08,-266.513,-16.668
69.11,-268.549,-16.759
69.14,-270.479,-16.885
69.18,-272.444,-17.046
69.21,-274.445,-17.16
69.24,-276.305,-17.309
69.27,-278.375,-17.504
69.31,-280.516,-17.642
69.34,-282.552,-17.802
69.37,-284.552,-17.962
69.4,-286.517,-18.077
69.44,-288.342,-18.18
69.47,-290.097,-18.272
69.5,-291.852,-18.409
69.53,-293.536,-18.443
69.57,-295.221,-18.604
69.6,-296.73,-18.569
69.63,-297.748,-18.684
69.66,-299.748,-18.879
69.7,-300.906,-18.787
69.73,-301.959,-19.005
69.76,-303.293,-19.028
69.79,-304.451,-19.154
69.83,-305.644,-19.199
69.86,-306.767,-19.337
69.89,-307.961,-19.394
69.92,-309.084,-19.463
69.96,-310.207,-19.532
69.99,-311.189,-19.612
70.02,-312.102,-19.692
70.06,-312.944,-19.795
70.09,-313.821,-19.841
70.12,-314.558,-19.887
70.15,-315.331,-19.921
70.19,-316.068,-19.933
70.22,-316.769,-19.944
70.25,-317.401,-19.944
70.28,-317.998,-19.99
70.32,-318.594,-20.082
70.35,-319.121,-20.15
70.38,-319.682,-20.208
70.41,-320.314,-20.23
70.45,-320.805,-20.185
70.48,-321.121,-20.185
70.51,-321.648,-20.242
70.54,-322.174,-20.265
70.58,-322.63,-20.288
70.61,-323.016,-20.322
70.64,-323.473,-20.345
70.67,-323.859,-20.345
70.71,-324.28,-20.391
70.74,-324.631,-20.368
70.77,-324.841,-20.437
70.8,-325.298,-20.414
70.84,-325.543,-20.425
70.87,-325.824,-20.46
70.9,-326.14,-20.494
70.93,-326.385,-20.46
70.97,-326.596,-20.437
71.0,-326.877,-20.414
71.03,-327.052,-20.402
71.06,-327.263,-20.379
71.1,-327.438,-20.379
71.13,-327.684,-20.276
71.16,-327.754,-20.253
71.19,-327.965,-20.23
71.23,-328.105,-20.116
71.26,-328.14,-20.104
71.29,-328.281,-20.047
71.32,-328.351,-20.001
71.36,-328.456,-19.944
71.39,-328.526,-19.91
71.42,-328.561,-19.852
71.45,-328.596,-19.807
71.49,-328.596,-19.761
71.52,-328.561,-19.726
71.55,-328.667,-19.646
71.58,-328.737,-19.486
71.62,-328.632,-19.429
71.65,-328.596,-19.383
71.68,-328.526,-19.348
71.71,-328.421,-19.291
71.75,-328.386,-19.165
71.78,-328.281,-19.073
71.81,-328.14,-18.947
71.84,-327.895,-18.833
71.88,-327.614,-18.673
71.91,-327.228,-18.524
71.94,-326.701,-18.375
71.97,-325.859,-18.26
72.01,-324.911,-18.123
72.04,-323.473,-17.974
72.07,-321.858,-17.848
72.1,-320.139,-17.619
72.14,-318.138,-17.355
72.17,-315.997,-17.195
72.2,-314.032,-17.08
72.24,-311.961,-16.966
72.27,-309.505,-16.84
72.3,-307.013,-16.714
72.33,-304.626,-16.519
72.37,-302.029,-16.336
72.4,-299.327,-16.164
72.43,-296.484,-15.958
72.46,-293.431,-15.763
72.5,-290.308,-15.602
72.53,-287.044,-15.442
72.56,-283.78,-15.316
72.59,-280.621,-15.133
72.63,-277.357,-14.961
72.66,-274.234,-14.789
72.69,-271.181,-14.594
72.72,-268.198,-14.48
72.76,-265.285,-14.354
72.79,-262.337,-14.216
72.82,-259.248,-14.056
72.85,-256.125,-13.884
72.89,-252.931,-13.701
72.92,-249.738,-13.529
72.95,-246.649,-13.288
72.98,-243.385,-13.094
73.02,-240.086,-12.899
73.05,-236.823,-12.727
73.08,-233.524,-12.567
73.11,-230.225,-12.429
73.15,-226.996,-12.235
73.18,-223.732,-12.04
73.21,-220.433,-11.834
73.24,-217.099,-11.639
73.28,-213.87,-11.41
73.31,-210.255,-11.226
73.34,-206.851,-11.02
73.37,-203.342,-10.757
73.41,-199.657,-10.516
73.44,-196.007,-10.264
73.47,-192.181,-10.058
73.5,-188.321,-9.806
73.54,-184.46,-9.577
73.57,-180.354,-9.371
73.6,-176.353,-9.187
73.63,-172.388,-8.981
73.67,-168.176,-8.741
73.7,-164.035,-8.5
73.73,-159.859,-8.225
73.76,-155.472,-7.996
73.8,-151.225,-7.778
73.83,-146.873,-7.584
73.86,-142.522,-7.4
73.89,-138.17,-7.16
73.93,-133.678,-6.908
73.96,-129.15,-6.656
73.99,-124.693,-6.392
74.02,-120.131,-6.129
74.06,-115.533,-5.9
74.09,-110.971,-5.67
74.12,-106.409,-5.476
74.15,-101.846,-5.27
74.19,-97.249,-5.075
74.22,-92.686,-4.834
74.25,-88.194,-4.617
74.29,-83.737,-4.365
74.32,-79.245,-4.124
74.35,-74.753,-3.906
74.38,-70.19,-3.689
74.42,-65.663,-3.482
74.45,-61.136,-3.276
74.48,-56.644,-3.024
74.51,-52.187,-2.749
74.55,-47.554,-2.474
74.58,-42.886,-2.257
74.61,-38.289,-2.039
74.64,-33.691,-1.81
74.68,-29.094,-1.558
74.71,-24.426,-1.34
74.74,-19.899,-1.146
74.77,-15.372,-0.939
74.81,-10.985,-0.699
74.84,-6.422,-0.493
74.87,-1.965,-0.332
74.9,2.597,-0.16
74.94,7.089,-0.046
74.97,11.722,0.149
75.0,15.968,0.424
75.03,20.601,0.813
75.07,23.689,1.02
75.1,29.059,2.154
75.13,33.902,2.028
75.16,36.324,2.772
75.2,42.114,3.356
75.23,46.887,3.23
75.26,50.397,3.528
75.29,54.854,3.803
75.33,59.065,3.872
75.36,62.645,4.113
75.39,66.786,4.353
75.42,70.682,4.445
75.46,74.191,4.639
75.49,77.946,4.869
75.52,81.702,5.052
75.55,85.246,5.315
75.59,88.966,5.59
75.62,92.686,5.819
75.65,96.301,6.049
75.68,99.881,6.301
75.72,103.636,6.507
75.75,107.146,6.679
75.78,110.655,6.965
75.81,114.34,7.148
75.85,117.815,7.4
75.88,121.535,7.675
75.91,125.255,7.893
75.94,128.975,8.156
75.98,132.765,8.363
76.01,136.38,8.557
76.04,139.258,8.672
76.07,142.241,8.993
76.11,146.312,9.348
76.14,150.945,9.577
76.17,155.296,9.852
76.2,159.648,10.081
76.24,163.368,10.184
76.27,166.772,10.402
76.3,170.247,10.585
76.33,173.721,10.791
76.37,177.055,10.94
76.4,180.46,11.192
76.43,183.618,11.318
76.47,186.952,11.616
76.5,190.111,11.604
76.53,193.094,11.96
76.56,197.411,12.154
76.6,199.832,12.166
76.63,202.956,12.658
76.66,206.676,12.739
76.69,209.589,12.991
76.73,212.712,13.162
76.76,214.221,13.014
76.79,215.871,13.46
76.82,221.661,14.022
76.86,226.329,13.85
76.89,228.54,14.079
76.92,230.962,14.319
76.95,233.208,14.411
76.99,234.998,14.503
77.02,236.963,14.675
77.05,239.209,14.858
77.08,241.631,15.11
77.12,244.298,15.328
77.15,247.211,15.534
77.18,250.264,15.694
77.21,252.896,15.912
77.25,255.528,16.106
77.28,258.195,16.21
77.31,260.512,16.29
77.34,262.688,16.45
77.38,264.793,16.622
77.41,266.899,16.725
77.44,268.864,16.851
77.47,270.689,17.034
77.51,272.62,17.206
77.54,274.62,17.332
77.57,276.585,17.458
77.6,278.656,17.607
77.64,280.762,17.779
77.67,282.832,17.894
77.7,284.868,18.008
77.73,286.658,18.111
77.77,288.483,18.237
77.8,290.167,18.352
77.83,292.027,18.466
77.86,293.677,18.466
77.9,295.291,18.592
77.93,296.835,18.627
77.96,298.309,18.753
77.99,299.467,18.787
78.03,300.977,19.062
78.06,301.784,18.867
78.09,302.837,19.268
78.12,305.223,19.165
78.16,305.504,19.188
78.19,307.153,19.486
78.22,308.241,19.337
78.25,309.329,19.6
78.29,310.452,19.555
78.32,311.47,19.669
78.35,312.383,19.658
78.38,313.19,19.738
78.42,313.857,19.818
78.45,314.629,19.921
78.48,315.366,19.944
78.52,316.032,20.001
78.55,316.769,20.07
78.58,317.471,20.093
78.61,318.208,20.059
78.65,318.735,20.104
78.68,319.331,20.139
78.71,319.858,20.162
78.74,320.314,20.265
78.78,320.84,20.322
78.81,321.191,20.379
78.84,321.753,20.379
78.87,322.385,20.276
78.91,322.736,20.23
78.94,323.122,20.334
78.97,323.543,20.368
79.0,323.999,20.391
79.04,324.28,20.425
79.07,324.631,20.483
79.1,325.052,20.471
79.13,325.368,20.448
79.17,325.719,20.414
79.2,325.999,20.414
79.23,326.21,20.402
79.26,326.456,20.46
79.3,326.666,20.494
79.33,327.052,20.505
79.36,327.122,20.379
79.39,327.193,20.345
79.43,327.684,20.219
79.46,327.719,20.127
79.49,327.895,20.139
79.52,328.07,20.093
79.56,328.14,20.127
79.59,328.246,20.139
79.62,328.386,20.116
79.65,328.561,19.99
79.69,328.632,19.921
79.72,328.702,19.887
79.75,328.667,19.864
79.78,328.737,19.841
79.82,328.807,19.772
79.85,328.807,19.681
79.88,328.842,19.623
79.91,328.842,19.52
79.95,328.877,19.371
79.98,328.842,19.245
80.01,328.737,19.165
80.04,328.596,19.131
80.08,328.456,19.108
80.11,328.351,19.073
80.14,328.14,19.016
80.17,327.965,18.913
80.21,327.719,18.764
80.24,327.333,18.581
80.27,326.736,18.421
80.3,325.964,18.329
80.34,325.052,18.134
80.37,323.613,17.962
80.4,322.069,17.802
80.43,320.314,17.573
80.47,318.243,17.344
80.5,316.138,17.206
80.53,314.278,17.069
80.56,312.137,16.931
80.6,309.715,16.851
80.63,307.259,16.691
80.66,304.556,16.588
80.7,302.065,16.427
80.73,299.397,16.198
80.76,296.519,16.015
80.79,293.571,15.786
80.83,290.308,15.614
80.86,287.149,15.476
80.89,283.955,15.305
80.92,280.656,15.156
80.96,277.322,14.995
80.99,274.164,14.846
81.02,271.146,14.686
81.05,268.233,14.549
81.09,265.215,14.423
81.12,262.337,14.262
81.15,259.283,14.102
81.18,256.23,13.918
81.22,253.107,13.735
81.25,249.878,13.529
81.28,246.719,13.346
81.31,243.491,13.128
81.35,240.121,12.968
81.38,236.858,12.819
81.41,233.594,12.624
81.44,230.26,12.441
81.48,226.996,12.257
81.51,223.767,12.04
81.54,220.468,11.799
81.57,217.099,11.57
81.61,213.66,11.398
81.64,210.22,11.204
81.67,206.746,10.986
81.7,203.131,10.757
81.74,199.481,10.585
81.77,195.796,10.379
81.8,192.146,10.104
81.83,188.286,9.84
81.87,184.46,9.6
81.9,180.495,9.382
81.93,176.424,9.176
81.96,172.458,8.912
82.0,168.246,8.683
82.03,164.0,8.489
82.06,159.753,8.271
82.09,155.542,8.007
82.13,151.155,7.79
82.16,146.803,7.549
82.19,142.381,7.32
82.22,137.994,7.102
82.26,133.607,6.885
82.29,129.115,6.679
82.32,124.693,6.427
82.35,120.096,6.186
82.39,115.569,5.923
82.42,111.076,5.648
82.45,106.409,5.43
82.48,101.811,5.212
82.52,97.214,4.972
82.55,92.546,4.777
82.58,88.054,4.571
82.61,83.562,4.319
82.65,79.07,4.09
82.68,74.718,3.826
82.71,70.155,3.62
82.75,65.733,3.379
82.78,61.171,3.15
82.81,56.573,2.967
82.84,51.906,2.772
82.88,47.484,2.543
82.91,42.711,2.303
82.94,38.254,2.039
82.97,33.411,1.833
83.01,30.042,1.764
83.04,24.075,0.974
83.07,19.092,1.42
83.1,16.249,0.928
83.14,10.529,0.561
83.17,5.861,0.619
83.2,2.106,0.332
83.23,-2.597,0.046
83.27,-7.335,0.011
83.3,-11.511,-0.218
83.33,-16.074,-0.561
83.36,-20.39,-0.882
83.4,-24.532,-1.34
83.43,-28.708,-1.89
83.46,-33.025,-2.406
83.49,-37.376,-2.852
83.53,-41.974,-3.162
83.56,-46.431,-3.379
83.59,-50.748,-3.586
83.62,-54.959,-3.757
83.66,-58.995,-3.895
83.69,-62.856,-4.101
83.72,-66.751,-4.319
83.75,-70.541,-4.479
83.79,-74.086,-4.674
83.82,-77.701,-4.892
83.85,-81.316,-5.132
83.88,-85.071,-5.35
83.92,-88.791,-5.579
83.95,-92.371,-5.854
83.98,-96.021,-6.117
84.01,-99.6,-6.392
84.05,-103.285,-6.587
84.08,-106.795,-6.793
84.11,-110.374,-7.034
84.14,-114.13,-7.171
84.18,-117.674,-7.354
84.21,-121.184,-7.595
84.24,-124.869,-7.87
84.27,-128.589,-8.088
84.31,-132.204,-8.374
84.34,-135.854,-8.489
84.37,-138.029,-8.603
84.4,-142.136,-9.164
84.44,-146.347,-9.107
84.47,-149.892,-9.542
84.5,-154.875,-9.898
84.53,-159.192,-10.058
84.57,-162.666,-10.276
84.6,-166.246,-10.562
84.63,-170.107,-10.665
84.66,-173.441,-10.722
84.7,-176.634,-10.917
84.73,-179.933,-11.089
84.76,-183.162,-11.272
84.79,-186.391,-11.49
84.83,-189.725,-11.765
84.86,-193.024,-11.925
84.89,-196.288,-12.212
84.93,-199.446,-12.28
84.96,-202.184,-12.555
84.99,-206.184,-12.819
85.02,-208.957,-12.796
85.06,-211.624,-13.151
85.09,-213.379,-13.014
85.12,-216.187,-13.666
85.15,-222.118,-13.941
85.19,-225.697,-13.781
85.22,-227.592,-14.148
85.25,-230.26,-14.434
85.28,-232.646,-14.468
85.32,-234.541,-14.514
85.35,-236.472,-14.537
85.38,-238.612,-14.64
85.41,-241.104,-14.881
85.45,-243.701,-15.144
85.48,-246.404,-15.408
85.51,-249.422,-15.637
85.54,-252.299,-15.797
85.58,-255.107,-16.038
85.61,-257.809,-16.198
85.64,-260.231,-16.313
85.67,-262.407,-16.439
85.71,-264.548,-16.565
85.74,-266.548,-16.668
85.77,-268.513,-16.771
85.8,-270.549,-16.897
85.84,-272.444,-17.023
85.87,-274.304,-17.172
85.9,-276.199,-17.344
85.93,-278.27,-17.481
85.97,-280.376,-17.607
86.0,-282.446,-17.802
86.03,-284.412,-17.962
86.06,-286.377,-18.077
86.1,-288.167,-18.146
86.13,-289.992,-18.26
86.16,-291.641,-18.375
86.19,-293.326,-18.489
86.23,-294.975,-18.569
86.26,-296.625,-18.684
86.29,-297.748,-18.661
86.32,-299.222,-18.936
86.36,-300.801,-18.879
86.39,-301.714,-19.005
86.42,-303.188,-19.096
86.45,-304.346,-19.165
86.49,-305.644,-19.268
86.52,-306.767,-19.326
86.55,-307.961,-19.44
86.58,-309.084,-19.486
86.62,-310.136,-19.566
86.65,-311.224,-19.589
86.68,-312.137,-19.658
86.71,-313.084,-19.715
86.75,-313.857,-19.738
86.78,-314.558,-19.795
86.81,-315.26,-19.875
86.84,-315.962,-19.91
86.88,-316.664,-19.944
86.91,-317.191,-20.013
86.94,-317.857,-20.104
86.98,-318.524,-20.127
87.01,-319.051,-20.173
87.04,-319.612,-20.242
87.07,-320.174,-20.253
87.11,-320.7,-20.288
87.14,-321.086,-20.288
87.17,-321.542,-20.357
87.2,-322.209,-20.322
87.24,-322.56,-20.288
87.27,-322.981,-20.345
87.3,-323.473,-20.334
87.33,-323.859,-20.368
87.37,-324.245,-20.357
87.4,-324.561,-20.368
87.43,-324.911,-20.425
87.46,-325.262,-20.425
87.5,-325.613,-20.425
87.53,-325.999,-20.357
87.56,-326.21,-20.311
87.59,-326.456,-20.276
87.63,-326.666,-20.253
87.66,-326.912,-20.23
87.69,-327.052,-20.265
87.72,-327.298,-20.265
87.76,-327.473,-20.265
87.79,-327.614,-20.322
87.82,-327.824,-20.242
87.85,-327.965,-20.162
87.89,-328.07,-20.139
87.92,-328.14,-20.15
87.95,-328.281,-20.139
87.98,-328.386,-20.047
88.02,-328.351,-19.99
88.05,-328.526,-19.921
88.08,-328.596,-19.83
88.11,-328.632,-19.749
88.15,-328.632,-19.646
88.18,-328.632,-19.6
88.21,-328.667,-19.543
88.24,-328.667,-19.474
88.28,-328.632,-19.394
88.31,-328.596,-19.337
88.34,-328.456,-19.348
88.37,-328.561,-19.222
88.41,-328.351,-19.119
88.44,-328.281,-19.039
88.47,-328.07,-18.902
88.5,-327.824,-18.821
88.54,-327.544,-18.73
88.57,-327.158,-18.604
88.6,-326.561,-18.512
88.63,-325.754,-18.409
88.67,-324.947,-18.249
88.7,-323.683,-17.997
88.73,-322.069,-17.756
88.76,-320.174,-17.55
88.8,-317.998,-17.412
88.83,-315.962,-17.264
88.86,-313.962,-17.115
88.89,-311.856,-16.966
88.93,-309.505,-16.782
88.96,-307.083,-16.588
88.99,-304.591,-16.427
89.02,-301.959,-16.267
89.06,-299.257,-16.095
89.09,-296.239,-15.958
89.12,-293.15,-15.832
89.16,-289.992,-15.66
89.19,-286.903,-15.465
89.22,-283.71,-15.27
89.25,-280.551,-15.064
89.29,-277.357,-14.869
89.32,-274.164,-14.732
89.35,-271.146,-14.606
89.38,-268.163,-14.491
89.42,-265.25,-14.377
89.45,-262.302,-14.216
89.48,-259.319,-14.033
89.51,-256.09,-13.861
89.55,-253.001,-13.655
89.58,-249.773,-13.437
89.61,-246.474,-13.288
89.64,-243.245,-13.117
89.68,-240.086,-12.899
89.71,-236.823,-12.693
89.74,-233.559,-12.487
89.77,-230.225,-12.315
89.81,-226.855,-12.2
89.84,-223.592,-12.04
89.87,-220.293,-11.822
89.9,-216.959,-11.616
89.94,-213.625,-11.398
89.97,-210.255,-11.169
90.0,-206.746,-10.929
90.03,-203.166,-10.711
90.07,-199.551,-10.505
90.1,-195.796,-10.31
90.13,-192.041,-10.127
90.16,-188.181,-9.898
90.2,-184.39,-9.646
90.23,-180.495,-9.394
90.26,-176.459,-9.153
90.29,-172.458,-8.901
90.33,-168.352,-8.649
90.36,-164.07,-8.431
90.39,-159.824,-8.237
90.42,-155.542,-8.03
90.46,-151.19,-7.813
90.49,-146.803,-7.584
90.52,-142.522,-7.332
90.55,-138.029,-7.08
90.59,-133.572,-6.839
90.62,-129.15,-6.575
90.65,-124.518,-6.381
90.68,-120.026,-6.175
90.72,-115.498,-5.945
90.75,-111.006,-5.693
90.78,-106.479,-5.476
90.81,-101.881,-5.235
90.85,-97.319,-4.983
90.88,-92.686,-4.743
90.91,-88.124,-4.559
90.94,-83.562,-4.353
90.98,-79.034,-4.17
91.01,-74.542,-3.975
91.04,-70.05,-3.735
91.07,-65.593,-3.482
91.11,-61.206,-3.219
91.14,-56.714,-2.956
91.17,-52.116,-2.761
91.2,-47.519,-2.543
91.24,-42.816,-2.337
91.27,-38.254,-2.108
91.3,-33.762,-1.844
91.34,-29.129,-1.604
91.37,-24.496,-1.375
91.4,-20.004,-1.134
91.43,-15.442,-0.894
91.47,-10.88,-0.687
91.5,-6.387,-0.515
91.53,-1.965,-0.321
91.56,2.632,-0.172
91.6,7.089,-0.023
91.63,11.652,0.137
91.66,15.933,0.47
91.69,20.39,0.756
91.73,23.444,1.088
91.76,29.129,2.142
91.79,33.305,2.016
91.82,36.113,2.887
91.86,42.044,3.322
91.89,46.501,3.322
91.92,50.291,3.643
91.95,54.924,3.861
91.99,59.065,3.883
92.02,62.785,4.09
92.05,66.856,4.307
92.08,70.576,4.491
92.12,74.086,4.685
92.15,77.771,4.937
92.18,81.526,5.121
92.21,85.141,5.35
92.25,88.966,5.579
92.28,92.686,5.762
92.31,96.231,6.003
92.34,99.741,6.243
92.38,103.32,6.53
92.41,106.97,6.793
92.44,110.48,7.022
92.47,114.024,7.297
92.51,117.744,7.503
92.54,121.535,7.698
92.57,125.185,7.893
92.6,128.905,8.145
92.64,132.73,8.363
92.67,136.38,8.557
92.7,139.293,8.683
92.73,142.241,9.004
92.77,146.382,9.302
92.8,150.874,9.497
92.83,155.226,9.737
92.86,159.332,9.978
92.9,162.982,10.241
92.93,166.597,10.47
92.96,170.177,10.665
92.99,173.721,10.871
93.03,176.915,10.997
93.06,180.284,11.249
93.09,183.618,11.318
93.12,187.057,11.582
93.16,189.76,11.639
93.19,193.269,12.154
93.22,197.375,12.166
93.25,199.586,12.349
93.29,203.201,12.716
93.32,206.746,12.75
93.35,209.589,12.945
93.39,212.572,13.151
93.42,214.116,13.036
93.45,215.871,13.552
93.48,221.802,14.079
93.52,226.189,13.884
93.55,228.224,14.193
93.58,230.997,14.377
93.61,233.383,14.434
93.65,235.208,14.48
93.68,237.103,14.675
93.71,239.349,14.835
93.74,241.806,15.053
93.78,244.403,15.259
93.81,247.246,15.499
93.84,250.264,15.694
93.87,253.036,15.843
93.91,255.458,16.038
93.94,258.09,16.233
93.97,260.371,16.381
94.0,262.512,16.519
94.04,264.758,16.633
94.07,266.794,16.748
94.1,268.864,16.828
94.13,270.83,16.92
94.17,272.69,17.034
94.2,274.62,17.183
94.23,276.62,17.355
94.26,278.586,17.538
94.3,280.692,17.722
94.33,282.692,17.871
94.36,284.727,18.031
94.39,286.658,18.111
94.43,288.553,18.203
94.46,290.273,18.283
94.49,291.922,18.455
94.52,293.607,18.489
94.56,295.256,18.592
94.59,296.66,18.695
94.62,298.204,18.844
94.65,299.503,18.867
94.69,301.152,19.016
94.72,301.608,18.844
94.75,302.837,19.406
94.78,305.083,19.199
94.82,305.328,19.406
94.85,307.224,19.543
94.88,308.101,19.463
94.91,309.329,19.692
94.95,310.417,19.566
94.98,311.435,19.715
95.01,312.312,19.726
95.04,313.225,19.807
95.08,313.962,19.818
95.11,314.769,19.921
95.14,315.471,19.91
95.17,316.068,19.99
95.21,316.805,20.036
95.24,317.436,20.059
95.27,318.033,20.059
95.3,318.524,20.196
95.34,319.261,20.162
95.37,319.647,20.242
95.4,320.244,20.276
95.43,320.77,20.276
95.47,321.227,20.276
95.5,321.367,20.265
95.53,322.104,20.379
95.57,322.665,20.345
95.6,323.087,20.391
95.63,323.473,20.322
95.66,323.788,20.505
95.7,324.385,20.448
95.73,324.596,20.425
95.76,325.017,20.448
95.79,325.262,20.437
95.83,325.648,20.483
95.86,326.035,20.379
95.89,326.07,20.483
95.92,326.491,20.528
95.96,326.701,20.425
95.99,326.982,20.437
96.02,327.368,20.242
96.05,327.438,20.242
96.09,327.649,20.219
96.12,327.789,20.185
96.15,327.93,20.173
96.18,328.035,20.208
96.22,328.175,20.196
96.25,328.281,20.15
96.28,328.421,20.07
96.31,328.526,20.013
96.35,328.561,19.99
96.38,328.491,20.036
96.41,328.737,19.956
96.44,328.632,19.91
96.48,328.702,19.933
96.51,328.807,19.818
96.54,328.877,19.635
96.57,328.807,19.52
96.61,328.807,19.44
96.64,328.702,19.348
96.67,328.667,19.371
96.7,328.772,19.28
96.74,328.596,19.142
96.77,328.421,19.073
96.8,328.386,18.879
96.83,328.07,18.695
96.87,327.824,18.627
96.9,327.298,18.466
96.93,326.807,18.466
96.96,326.035,18.306
97.0,324.806,18.237
97.03,323.683,17.997
97.06,322.069,17.79
97.09,320.314,17.584
97.13,318.208,17.412
97.16,316.243,17.252
97.19,313.962,17.149
97.22,311.891,17.011
97.26,309.435,16.84
97.29,307.083,16.702
97.32,304.767,16.416
97.35,301.994,16.255
97.39,299.327,16.084
97.42,296.204,15.946
97.45,293.185,15.866
97.48,290.062,15.683
97.52,286.833,15.511
97.55,283.675,15.362
97.58,280.586,15.167
97.62,277.322,14.961
97.65,274.129,14.846
97.68,271.321,14.663
97.71,268.303,14.537
97.75,265.355,14.423
97.78,262.372,14.308
97.81,259.319,14.136
97.84,256.195,13.953
97.88,253.072,13.747
97.91,249.983,13.46
97.94,246.649,13.254
97.97,243.456,13.071
98.01,240.192,12.876
98.04,236.823,12.739
98.07,233.629,12.555
98.1,230.33,12.372
98.14,226.961,12.235
98.17,223.732,12.04
98.2,220.468,11.811
98.23,217.029,11.639
98.27,213.73,11.444
98.3,210.291,11.215
98.33,206.676,11.032
98.36,203.236,10.814
98.4,199.516,10.585
98.43,195.937,10.321
98.46,192.216,10.035
98.49,188.286,9.817
98.53,184.425,9.577
98.56,180.495,9.348
98.59,176.424,9.13
98.62,172.388,8.89
98.66,168.246,8.637
98.69,164.07,8.397
98.72,159.789,8.191
98.75,155.507,7.973
98.79,151.155,7.732
98.82,146.803,7.503
98.85,142.416,7.32
98.88,138.029,7.125
98.92,133.572,6.896
98.95,129.045,6.633
98.98,124.658,6.346
99.01,119.991,6.14
99.05,115.428,5.945
99.08,110.936,5.739
99.11,106.339,5.556
99.14,101.846,5.35
99.18,97.284,5.109
99.21,92.792,4.857
99.24,88.264,4.571
99.27,83.772,4.33
99.31,79.245,4.055
99.34,74.753,3.872
99.37,70.19,3.62
99.4,65.628,3.471
99.44,61.031,3.208
99.47,56.644,2.99
99.5,51.941,2.658
99.53,47.484,2.543
99.57,42.711,2.165
99.6,38.57,2.257
99.63,34.464,1.695
99.66,27.971,1.489
99.7,24.847,1.741
99.73,20.496,0.939
99.76,14.81,0.939
99.8,10.88,0.802
99.83,6.738,0.458
99.86,1.79,0.275
99.89,-2.562,0.195
99.93,-7.019,-0.069
99.96,-11.722,-0.229
99.99,-16.109,-0.493
100.02,-20.285,-0.882
100.06,-24.672,-1.34
100.09,-28.708,-1.844
100.12,-32.919,-2.429
100.15,-37.376,-2.852
100.19,-41.798,-3.185
100.22,-46.255,-3.391
100.25,-50.607,-3.574
100.28,-54.819,-3.723
100.32,-58.82,-3.906
100.35,-62.75,-4.101
100.38,-66.716,-4.296
100.41,-70.506,-4.479
100.45,-74.156,-4.697
100.48,-77.876,-4.914
100.51,-81.561,-5.109
100.54,-85.141,-5.338
100.58,-88.791,-5.602
100.61,-92.441,-5.877
100.64,-96.161,-6.094
100.67,-99.846,-6.312
100.71,-103.391,-6.484
100.74,-106.795,-6.759
100.77,-110.515,-6.965
100.8,-114.024,-7.183
100.84,-117.569,-7.423
100.87,-121.184,-7.687
100.9,-124.939,-7.87
100.93,-128.589,-8.191
100.97,-132.414,-8.294
101.0,-135.187,-8.477
101.03,-139.258,-8.867
101.06,-142.136,-8.718
101.1,-145.435,-9.371
101.13,-150.699,-9.577
101.16,-155.156,-9.794
101.19,-159.157,-10.035
101.23,-162.877,-10.253
101.26,-166.316,-10.413
101.29,-169.826,-10.608
101.32,-173.3,-10.745
101.36,-176.634,-10.94
101.39,-179.828,-11.112
101.42,-183.092,-11.352
101.45,-186.391,-11.513
101.49,-189.69,-11.753
101.52,-192.848,-11.925
101.55,-196.217,-12.223
101.58,-199.236,-12.223
101.62,-202.184,-12.567
101.65,-206.36,-12.773
101.68,-208.992,-12.807
101.71,-211.765,-13.128
101.75,-213.168,-12.991
101.78,-216.046,-13.689
101.81,-222.188,-13.884
101.85,-225.697,-13.804
101.88,-227.733,-14.159
101.91,-230.19,-14.434
101.94,-232.471,-14.526
101.98,-234.401,-14.56
102.01,-236.472,-14.56
102.04,-238.683,-14.663
102.07,-241.069,-14.915
102.11,-243.736,-15.167
102.14,-246.509,-15.431
102.17,-249.527,-15.637
102.2,-252.335,-15.832
102.24,-255.142,-16.049
102.27,-257.809,-16.233
102.3,-260.196,-16.37
102.33,-262.582,-16.462
102.37,-264.618,-16.53
102.4,-266.618,-16.656
102.43,-268.829,-16.782
102.46,-270.83,-16.851
102.5,-272.549,-17.023
102.53,-274.515,-17.183
102.56,-276.41,-17.321
102.59,-278.481,-17.493
102.63,-280.586,-17.596
102.66,-282.622,-17.745
102.69,-284.482,-17.905
102.72,-286.377,-18.042
102.76,-288.237,-18.157
102.79,-290.062,-18.249
102.82,-291.747,-18.352
102.85,-293.501,-18.409
102.89,-294.659,-18.501
102.92,-296.765,-18.753
102.95,-298.239,-18.592
102.98,-299.222,-18.821
103.02,-300.696,-18.879
103.05,-301.819,-19.005
103.08,-303.117,-19.096
103.11,-304.311,-19.154
103.15,-305.539,-19.257
103.18,-306.697,-19.314
103.21,-307.82,-19.417
103.24,-308.978,-19.474
103.28,-310.172,-19.555
103.31,-311.119,-19.646
103.34,-312.067,-19.715
103.37,-313.014,-19.795
103.41,-313.786,-19.807
103.44,-314.594,-19.841
103.47,-315.366,-19.875
103.5,-315.997,-19.944
103.54,-316.769,-19.978
103.57,-317.366,-20.059
103.6,-318.033,-20.116
103.63,-318.665,-20.127
103.67,-319.226,-20.208
103.7,-319.788,-20.185
103.73,-320.244,-20.242
103.76,-320.7,-20.276
103.8,-321.191,-20.345
103.83,-321.683,-20.357
103.86,-322.209,-20.345
103.89,-322.665,-20.368
103.93,-323.087,-20.379
103.96,-323.508,-20.379
103.99,-323.964,-20.402
104.03,-324.35,-20.391
104.06,-324.666,-20.391
104.09,-325.017,-20.379
104.12,-325.333,-20.345
104.16,-325.684,-20.357
104.19,-325.964,-20.357
104.22,-326.175,-20.368
104.25,-326.456,-20.345
104.29,-326.701,-20.311
104.32,-326.947,-20.288
104.35,-327.087,-20.276
104.38,-327.263,-20.368
104.42,-327.544,-20.345
104.45,-327.649,-20.265
104.48,-327.859,-20.23
104.51,-327.965,-20.173
104.55,-328.035,-20.196
104.58,-328.281,-20.07
104.61,-328.316,-19.956
104.64,-328.386,-19.91
104.68,-328.456,-19.864
104.71,-328.456,-19.875
104.74,-328.561,-19.818
104.77,-328.596,-19.761
104.81,-328.596,-19.715
104.84,-328.667,-19.646
104.87,-328.632,-19.589
104.9,-328.632,-19.566
104.94,-328.596,-19.486
104.97,-328.596,-19.406
105.0,-328.526,-19.337
105.03,-328.456,-19.234
105.07,-328.386,-19.154
105.1,-328.316,-19.016
105.13,-328.105,-18.879
105.16,-327.824,-18.833
105.2,-327.544,-18.753
105.23,-327.122,-18.661
105.26,-326.666,-18.512
105.29,-325.929,-18.352
105.33,-325.052,-18.157
105.36,-323.753,-17.905
105.39,-322.174,-17.687
105.42,-320.209,-17.481
105.46,-318.068,-17.321
105.49,-315.997,-17.172
105.52,-314.102,-17.011
105.55,-311.961,-16.863
105.59,-309.575,-16.748
105.62,-307.118,-16.633
105.65,-304.662,-16.473
105.68,-302.029,-16.29
105.72,-299.327,-16.118
105.75,-296.379,-15.98
105.78,-293.431,-15.832
105.81,-290.202,-15.671
105.85,-287.009,-15.522
105.88,-283.955,-15.316
105.91,-280.692,-15.156
105.94,-277.498,-14.972
105.98,-274.304,-14.801
106.01,-271.181,-14.675
106.04,-268.373,-14.514
106.08,-265.39,-14.342
106.11,-262.442,-14.171
106.14,-259.424,-13.987
106.17,-256.195,-13.792
106.21,-252.966,-13.644
106.24,-249.702,-13.472
106.27,-246.474,-13.311
106.3,-243.21,-13.162
106.34,-240.016,-12.991
106.37,-236.823,-12.739
106.4,-233.559,-12.544
106.43,-230.4,-12.338
106.47,-227.101,-12.154
106.5,-223.732,-11.983
106.53,-220.468,-11.811
106.56,-217.134,-11.593
106.6,-213.695,-11.421
106.63,-210.291,-11.192
106.66,-206.746,-10.952
106.69,-203.096,-10.745
106.73,-199.481,-10.539
106.76,-195.726,-10.356
106.79,-191.936,-10.161
106.82,-188.181,-9.943
106.86,-184.39,-9.691
106.89,-180.46,-9.428
106.92,-176.459,-9.164
106.95,-172.458,-8.924
106.99,-168.246,-8.683
107.02,-164.07,-8.489
107.05,-159.824,-8.259
107.08,-155.542,-8.03
107.12,-151.225,-7.801
107.15,-146.909,-7.526
107.18,-142.487,-7.263
107.21,-138.1,-7.022
107.25,-133.572,-6.793
107.28,-128.975,-6.61
107.31,-124.483,-6.427
107.34,-119.955,-6.197
107.38,-115.428,-5.968
107.41,-110.936,-5.728
107.44,-106.374,-5.499
107.47,-101.881,-5.292
107.51,-97.319,-5.063
107.54,-92.757,-4.834
107.57,-88.229,-4.617
107.6,-83.702,-4.387
107.64,-79.21,-4.135
107.67,-74.683,-3.883
107.7,-70.12,-3.643
107.73,-65.523,-3.414
107.77,-60.96,-3.219
107.8,-56.468,-2.967
107.83,-51.871,-2.704
107.86,-47.238,-2.44
107.9,-42.535,-2.303
107.93,-38.008,-2.062
107.96,-33.516,-1.821
107.99,-28.954,-1.604
108.03,-24.426,-1.306
108.06,-19.759,-1.111
108.09,-15.372,-0.916
108.12,-10.844,-0.745
108.16,-6.352,-0.573
108.19,-1.825,-0.389
108.22,2.597,-0.195
108.26,7.23,-0.034
108.29,11.652,0.16
108.32,16.214,0.447
108.35,20.355,0.825
108.39,24.918,1.249
108.42,27.901,1.592
108.45,33.376,2.704
108.48,38.254,2.497
108.52,40.816,3.127
108.55,46.466,3.643
108.58,51.204,3.54
108.61,54.713,3.757
108.65,58.89,4.009
108.68,63.031,4.044
108.71,66.646,4.273
108.74,70.647,4.502
108.78,74.297,4.651
108.81,77.876,4.903
108.84,81.561,5.155
108.87,85.352,5.338
108.91,88.931,5.556
108.94,92.686,5.774
108.97,96.336,6.026
109.0,99.916,6.255
109.04,103.391,6.507
109.07,107.111,6.782
109.1,110.69,6.988
109.13,114.235,7.194
109.17,117.815,7.423
109.2,121.57,7.675
109.23,125.29,7.87
109.26,128.975,8.099
109.3,132.73,8.34
109.33,136.38,8.546
109.36,139.258,8.718
109.39,142.241,8.993
109.43,146.382,9.302
109.46,150.909,9.474
109.49,155.367,9.772
109.52,159.613,9.966
109.56,163.298,10.195
109.59,166.632,10.447
109.62,170.247,10.688
109.65,173.721,10.814
109.69,177.02,11.009
109.72,180.424,11.169
109.75,183.723,11.375
109.78,186.847,11.524
109.82,190.392,11.776
109.85,193.48,11.788
109.88,196.252,12.166
109.91,200.639,12.441
109.95,203.236,12.326
109.98,206.149,12.796
110.01,209.799,12.899
110.04,212.677,13.071
110.08,213.73,12.979
110.11,215.976,13.632
110.14,221.942,14.056
110.17,226.154,13.953
110.21,228.435,14.171
110.24,230.891,14.377
110.27,233.173,14.423
110.31,234.962,14.526
110.34,236.998,14.686
110.37,239.244,14.858
110.4,241.701,15.053
110.44,244.333,15.259
110.47,247.211,15.476
110.5,250.194,15.66
110.53,252.896,15.843
110.57,255.423,16.038
110.6,258.02,16.198
110.63,260.336,16.324
110.66,262.477,16.473
110.7,264.653,16.622
110.73,266.864,16.737
110.76,268.864,16.84
110.79,270.9,16.966
110.83,272.865,17.092
110.86,274.725,17.286
110.89,276.691,17.493
110.92,278.761,17.642
110.96,280.867,17.779
110.99,282.867,17.905
111.02,284.938,17.997
111.05,286.693,18.123
111.09,288.588,18.272
111.12,290.237,18.352
111.15,291.887,18.512
111.18,293.431,18.581
111.22,295.116,18.718
111.25,296.625,18.764
111.28,298.309,18.81
111.31,299.608,18.81
111.35,301.082,18.959
111.38,301.573,18.821
111.41,303.188,19.314
111.44,305.048,19.085
111.48,305.539,19.326
111.51,307.224,19.474
111.54,308.206,19.486
111.57,309.575,19.6
111.61,310.487,19.566
111.64,311.54,19.681
111.67,312.312,19.681
111.7,313.12,19.852
111.74,313.962,19.841
111.77,314.594,19.91
111.8,315.366,19.978
111.83,316.208,19.956
111.87,316.84,19.967
111.9,317.436,20.036
111.93,317.998,20.116
111.96,318.735,20.185
112.0,319.296,20.219
112.03,319.753,20.276
112.06,320.384,20.299
112.09,320.84,20.253
112.13,321.227,20.276
112.16,321.718,20.311
112.19,322.209,20.379
112.22,322.665,20.345
112.26,322.946,20.46
112.29,323.438,20.505
112.32,323.894,20.517
112.35,324.35,20.517
112.39,324.736,20.448
112.42,325.017,20.402
112.45,325.298,20.402
112.49,325.719,20.425
112.52,325.964,20.437
112.55,326.245,20.402
112.58,326.526,20.448
112.62,326.736,20.299
112.65,326.666,20.299
112.68,327.263,20.357
112.71,327.403,20.23
112.75,327.544,20.322
112.78,327.789,20.23
112.81,327.824,20.265
112.84,328.035,20.265
112.88,328.246,20.173
112.91,328.386,20.07
112.94,328.491,19.933
112.97,328.491,19.898
113.01,328.632,19.875
113.04,328.702,19.807
113.07,328.667,19.841
113.1,328.632,19.887
113.14,328.807,19.818
113.17,328.807,19.646
113.2,328.842,19.623
113.23,328.807,19.509
113.27,328.737,19.486
113.3,328.807,19.326
113.33,328.596,19.245
113.36,328.456,19.245
113.4,328.456,19.188
113.43,328.491,18.993
113.46,328.14,18.867
113.49,328.0,18.821
113.53,327.544,18.695
113.56,327.017,18.661
113.59,326.526,18.501
113.62,325.754,18.363
113.66,324.982,18.226
113.69,323.613,17.997
113.72,322.034,17.813
113.75,320.244,17.584
113.79,318.068,17.424
113.82,316.032,17.298
113.85,314.102,17.137
113.88,311.926,16.931
113.92,309.54,16.782
113.95,307.118,16.622
113.98,304.662,16.473
114.01,301.994,16.347
114.05,299.257,16.198
114.08,296.344,16.026
114.11,293.326,15.866
114.14,290.202,15.671
114.18,286.974,15.511
114.21,283.745,15.419
114.24,280.656,15.213
114.27,277.463,14.972
114.31,274.234,14.801
114.34,271.181,14.663
114.37,268.198,14.56
114.4,265.285,14.4
114.44,262.231,14.274
114.47,259.248,14.113
114.5,256.09,13.907
114.53,253.001,13.712
114.57,249.913,13.472
114.6,246.579,13.266
114.63,243.35,13.094
114.67,240.086,12.933
114.7,236.823,12.75
114.73,233.629,12.555
114.76,230.365,12.338
114.8,227.066,12.143
114.83,223.837,11.937
114.86,220.538,11.742
114.89,217.169,11.524
114.93,213.8,11.341
114.96,210.291,11.158
114.99,206.746,10.974
115.02,203.131,10.768
115.06,199.481,10.528
115.09,195.831,10.299
115.12,192.146,10.035
115.15,188.251,9.794
115.19,184.285,9.6
115.22,180.319,9.428
115.25,176.318,9.21
115.28,172.318,8.981
115.32,168.211,8.706
115.35,164.07,8.42
115.38,159.753,8.202
115.41,155.542,7.973
115.45,150.945,7.755
115.48,146.382,7.629
115.51,142.276,7.446
115.54,137.994,7.148
115.58,133.327,6.931
115.61,129.08,6.667
115.64,124.553,6.392
115.67,119.92,6.163
115.71,115.533,5.945
115.74,111.041,5.682
115.77,106.374,5.464
115.8,101.776,5.258
115.84,97.249,5.063
115.87,92.722,4.823
115.9,88.194,4.628
115.93,83.842,4.365
115.97,79.35,4.124
116.0,74.963,3.861
116.03,70.436,3.631
116.06,65.874,3.414
116.1,61.417,3.208
116.13,56.854,2.887
116.16,52.081,2.738
116.19,47.484,2.497
116.23,42.851,2.291
116.26,38.008,1.993
116.29,33.551,1.982
116.32,30.006,1.638
116.36,23.444,1.088
116.39,19.688,1.535
116.42,16.284,0.722
116.45,10.353,0.561
116.49,6.107,0.584
116.52,2.246,0.286
116.55,-2.737,0.034
116.58,-7.23,0.034
