Trigger_Date,2023/07/31
Trigger_Time,T 21:47:57.954 PDT
Samples_Per_Cycle,512
Microseconds_Per_Sample,32.527
Time (ms),Voltage (V),Current (A)
-16.65,-104.935,-0.389
-16.62,-108.549,-0.389
-16.59,-112.129,-0.389
-16.56,-115.814,-0.412
-16.52,-119.534,-0.401
-16.49,-123.325,-0.401
-16.46,-127.08,-0.401
-16.43,-130.835,-0.412
-16.39,-134.485,-0.389
-16.36,-137.819,-0.355
-16.33,-140.662,-0.286
-16.3,-143.82,-0.401
-16.26,-148.032,-0.504
-16.23,-152.524,-0.481
-16.2,-156.805,-0.458
-16.17,-160.982,-0.435
-16.13,-164.632,-0.389
-16.1,-168.387,-0.389
-16.07,-171.089,-0.229
-16.04,-174.95,-0.573
-16.0,-178.459,-0.195
-15.97,-180.74,-0.332
-15.94,-184.531,-0.435
-15.91,-187.584,-0.263
-15.87,-190.778,-0.401
-15.84,-194.077,-0.332
-15.81,-197.375,-0.378
-15.78,-200.183,-0.229
-15.74,-203.447,-0.481
-15.71,-207.413,-0.367
-15.68,-210.01,-0.241
-15.65,-212.923,-0.332
-15.61,-214.116,0.034
-15.58,-216.959,-0.619
-15.55,-222.995,-0.653
-15.52,-226.785,-0.252
-15.48,-229.137,-0.252
-15.45,-231.348,-0.195
-15.42,-233.243,-0.195
-15.39,-235.173,-0.183
-15.35,-236.893,-0.172
-15.32,-238.788,-0.229
-15.29,-241.315,-0.298
-15.25,-244.052,-0.286
-15.22,-246.79,-0.321
-15.19,-248.93,-0.126
-15.16,-251.106,-0.401
-15.12,-256.371,-0.642
-15.09,-258.757,0.046
-15.06,-260.02,-0.298
-15.03,-262.547,-0.206
-14.99,-264.302,-0.183
-14.96,-265.671,-0.08
-14.93,-267.215,-0.241
-14.9,-269.882,-0.309
-14.86,-272.339,-0.252
-14.83,-274.971,-0.298
-14.8,-277.603,-0.241
-14.77,-279.604,-0.195
-14.73,-281.464,-0.218
-14.7,-283.499,-0.183
-14.67,-285.078,-0.149
-14.64,-286.693,-0.172
-14.6,-288.272,-0.16
-14.57,-289.886,-0.149
-14.54,-291.431,-0.16
-14.51,-293.045,-0.16
-14.47,-294.589,-0.16
-14.44,-296.169,-0.149
-14.41,-297.678,-0.149
-14.38,-299.187,-0.149
-14.34,-300.555,-0.137
-14.31,-301.889,-0.126
-14.28,-303.047,-0.126
-14.25,-304.205,-0.115
-14.21,-305.363,-0.092
-14.18,-306.557,-0.126
-14.15,-307.996,-0.183
-14.12,-309.189,-0.057
-14.08,-309.715,-0.057
-14.05,-311.014,-0.16
-14.02,-311.681,0.0
-13.99,-312.593,-0.149
-13.95,-312.944,0.08
-13.92,-313.716,-0.206
-13.89,-314.909,0.0
-13.86,-315.05,-0.057
-13.82,-316.138,-0.092
-13.79,-316.489,0.0
-13.76,-317.296,-0.103
-13.73,-317.822,0.0
-13.69,-318.524,-0.092
-13.66,-319.086,-0.023
-13.63,-319.612,-0.069
-13.6,-320.174,-0.023
-13.56,-320.56,-0.046
-13.53,-321.227,-0.057
-13.5,-321.718,-0.034
-13.47,-322.174,-0.057
-13.43,-322.63,-0.023
-13.4,-323.122,-0.046
-13.37,-323.543,-0.023
-13.34,-323.929,-0.046
-13.3,-324.28,-0.023
-13.27,-324.771,-0.034
-13.24,-324.771,0.069
-13.21,-324.841,-0.069
-13.17,-325.648,-0.046
-13.14,-325.824,0.023
-13.11,-326.14,-0.034
-13.08,-326.35,0.011
-13.04,-326.596,-0.023
-13.01,-326.807,0.0
-12.98,-327.017,0.0
-12.95,-327.228,0.011
-12.91,-327.403,0.011
-12.88,-327.544,0.011
-12.85,-327.684,0.011
-12.82,-327.789,0.011
-12.78,-327.895,0.011
-12.75,-328.0,0.011
-12.72,-328.035,0.011
-12.69,-328.105,0.011
-12.65,-328.175,0.011
-12.62,-328.21,0.011
-12.59,-328.246,0.011
-12.56,-328.281,0.011
-12.52,-328.316,0.011
-12.49,-328.281,0.011
-12.46,-328.246,0.0
-12.43,-328.21,0.011
-12.39,-328.21,0.0
-12.36,-328.175,0.0
-12.33,-328.07,0.011
-12.3,-328.0,0.011
-12.26,-327.895,0.023
-12.23,-327.754,0.034
-12.2,-327.544,0.046
-12.16,-327.263,0.057
-12.13,-326.912,0.057
-12.1,-326.491,0.08
-12.07,-325.929,0.092
-12.03,-325.157,0.115
-12.0,-324.069,0.183
-11.97,-322.63,0.183
-11.94,-321.121,0.206
-11.9,-319.121,0.275
-11.87,-316.805,0.298
-11.84,-314.383,0.309
-11.81,-311.821,0.298
-11.77,-309.61,0.275
-11.74,-307.61,0.252
-11.71,-305.363,0.286
-11.68,-303.047,0.309
-11.64,-300.485,0.332
-11.61,-297.713,0.355
-11.58,-294.765,0.367
-11.55,-291.711,0.367
-11.51,-288.588,0.378
-11.48,-285.429,0.378
-11.45,-282.271,0.378
-11.42,-279.112,0.378
-11.38,-275.954,0.378
-11.35,-272.9,0.367
-11.32,-269.987,0.355
-11.29,-267.039,0.344
-11.25,-264.127,0.355
-11.22,-261.108,0.378
-11.19,-257.985,0.389
-11.16,-254.791,0.378
-11.12,-251.562,0.389
-11.09,-248.334,0.389
-11.06,-245.14,0.389
-11.03,-241.841,0.401
-10.99,-238.577,0.401
-10.96,-235.243,0.401
-10.93,-231.909,0.412
-10.9,-228.575,0.401
-10.86,-225.206,0.412
-10.83,-221.837,0.401
-10.8,-218.398,0.401
-10.77,-214.958,0.412
-10.73,-211.484,0.424
-10.7,-207.974,0.424
-10.67,-204.43,0.424
-10.64,-200.815,0.435
-10.6,-197.165,0.435
-10.57,-193.41,0.447
-10.54,-189.584,0.447
-10.51,-185.794,0.458
-10.47,-181.863,0.47
-10.44,-177.863,0.47
-10.41,-173.862,0.481
-10.38,-169.65,0.493
-10.34,-165.474,0.493
-10.31,-161.192,0.504
-10.28,-157.016,0.504
-10.25,-152.699,0.504
-10.21,-148.418,0.504
-10.18,-144.031,0.538
-10.15,-139.609,0.515
-10.12,-135.152,0.538
-10.08,-130.659,0.538
-10.05,-126.097,0.55
-10.02,-121.535,0.55
-9.99,-117.078,0.55
-9.95,-112.55,0.55
-9.92,-107.988,0.55
-9.89,-103.426,0.538
-9.86,-98.863,0.55
-9.82,-94.125,0.584
-9.79,-89.423,0.55
-9.76,-84.966,0.515
-9.73,-80.544,0.538
-9.69,-76.122,0.515
-9.66,-71.7,0.538
-9.63,-67.102,0.538
-9.6,-62.645,0.55
-9.56,-58.047,0.55
-9.53,-53.59,0.55
-9.5,-48.782,0.573
-9.47,-44.29,0.55
-9.43,-39.272,0.596
-9.4,-35.657,0.367
-9.37,-30.147,0.871
-9.34,-24.883,0.367
-9.3,-21.724,0.47
-9.27,-16.495,0.676
-9.24,-11.546,0.515
-9.21,-7.545,0.447
-9.17,-3.229,0.573
-9.14,1.404,0.538
-9.11,5.756,0.515
-9.07,10.318,0.561
-9.04,14.915,0.561
-9.01,19.443,0.538
-8.98,23.97,0.55
-8.94,28.497,0.538
-8.91,32.919,0.515
-8.88,37.376,0.538
-8.85,41.904,0.55
-8.81,46.22,0.493
-8.78,50.291,0.493
-8.75,54.398,0.47
-8.72,58.293,0.458
-8.68,62.189,0.47
-8.65,66.084,0.47
-8.62,69.98,0.47
-8.59,73.77,0.458
-8.55,77.666,0.458
-8.52,81.491,0.458
-8.49,85.246,0.458
-8.46,89.001,0.435
-8.42,92.757,0.458
-8.39,96.547,0.447
-8.36,100.267,0.447
-8.33,103.847,0.435
-8.29,107.567,0.447
-8.26,111.147,0.424
-8.23,114.867,0.447
-8.2,118.517,0.435
-8.16,122.342,0.481
-8.13,126.097,0.424
-8.1,129.922,0.481
-8.07,133.748,0.412
-8.03,137.468,0.481
-8.0,140.17,0.183
-7.97,142.662,0.481
-7.94,147.681,0.619
-7.9,151.295,0.355
-7.87,155.998,0.71
-7.84,160.771,0.424
-7.81,164.281,0.435
-7.77,167.86,0.412
-7.74,171.194,0.389
-7.71,174.423,0.389
-7.68,177.757,0.412
-7.64,180.986,0.389
-7.61,184.145,0.367
-7.58,187.128,0.367
-7.55,190.321,0.412
-7.51,193.69,0.389
-7.48,196.919,0.389
-7.45,200.148,0.401
-7.42,203.447,0.401
-7.38,206.676,0.389
-7.35,209.869,0.378
-7.32,213.098,0.389
-7.29,215.134,0.126
-7.25,215.906,0.16
-7.22,220.258,0.802
-7.19,226.048,0.561
-7.16,229.277,0.309
-7.12,231.593,0.275
-7.09,233.348,0.195
-7.06,235.068,0.241
-7.03,237.103,0.252
-6.99,239.104,0.229
-6.96,241.209,0.309
-6.93,243.771,0.321
-6.9,246.684,0.389
-6.86,249.176,0.206
-6.83,250.966,0.298
-6.8,255.107,0.63
-6.77,258.266,0.16
-6.73,259.669,0.241
-6.7,261.88,0.275
-6.67,263.951,0.275
-6.64,266.022,0.218
-6.6,267.004,0.103
-6.57,268.864,0.332
-6.54,271.532,0.332
-6.51,274.199,0.344
-6.47,277.077,0.355
-6.44,279.428,0.241
-6.41,281.323,0.241
-6.38,283.253,0.241
-6.34,285.043,0.195
-6.31,286.552,0.195
-6.28,288.167,0.218
-6.25,289.711,0.172
-6.21,291.255,0.206
-6.18,292.589,0.183
-6.15,294.168,0.206
-6.11,295.677,0.183
-6.08,297.397,0.229
-6.05,298.766,0.149
-6.02,300.415,0.229
-5.98,300.766,-0.092
-5.95,301.994,0.412
-5.92,304.767,0.183
-5.89,305.048,0.046
-5.85,306.522,0.275
-5.82,307.574,0.069
-5.79,308.768,0.218
-5.76,309.926,0.103
-5.72,310.909,0.16
-5.69,311.786,0.103
-5.66,312.523,0.115
-5.63,313.33,0.092
-5.59,313.962,0.103
-5.56,314.558,0.092
-5.53,315.26,0.115
-5.5,315.927,0.08
-5.46,316.524,0.115
-5.43,317.155,0.092
-5.4,317.787,0.103
-5.37,318.349,0.092
-5.33,318.98,0.092
-5.3,319.507,0.092
-5.27,320.068,0.08
-5.24,320.454,0.08
-5.2,321.016,0.092
-5.17,321.613,0.08
-5.14,322.069,0.08
-5.11,322.56,0.08
-5.07,323.016,0.08
-5.04,323.438,0.08
-5.01,323.859,0.069
-4.98,324.245,0.057
-4.94,324.701,0.08
-4.91,324.631,-0.023
-4.88,324.911,0.137
-4.85,325.543,0.046
-4.81,325.684,0.057
-4.78,326.105,0.057
-4.75,326.28,0.046
-4.72,326.526,0.069
-4.68,326.772,0.046
-4.65,327.017,0.057
-4.62,327.228,0.046
-4.59,327.403,0.046
-4.55,327.544,0.046
-4.52,327.719,0.046
-4.49,327.895,0.034
-4.46,327.965,0.046
-4.42,328.07,0.034
-4.39,328.175,0.046
-4.36,328.246,0.034
-4.33,328.281,0.046
-4.29,328.316,0.046
-4.26,328.351,0.034
-4.23,328.421,0.046
-4.2,328.456,0.046
-4.16,328.421,0.046
-4.13,328.386,0.046
-4.1,328.386,0.046
-4.07,328.316,0.046
-4.03,328.316,0.046
-4.0,328.21,0.046
-3.97,328.14,0.046
-3.94,327.965,0.034
-3.9,327.859,0.023
-3.87,327.684,0.0
-3.84,327.403,-0.023
-3.81,327.052,-0.023
-3.77,326.631,-0.034
-3.74,326.07,-0.057
-3.71,325.438,-0.057
-3.68,324.455,-0.115
-3.64,323.051,-0.149
-3.61,321.613,-0.137
-3.58,319.823,-0.206
-3.55,317.612,-0.241
-3.51,315.225,-0.252
-3.48,312.804,-0.241
-3.45,310.452,-0.229
-3.42,308.347,-0.206
-3.38,306.206,-0.229
-3.35,303.854,-0.252
-3.32,301.292,-0.263
-3.29,298.625,-0.298
-3.25,295.747,-0.321
-3.22,292.764,-0.332
-3.19,289.571,-0.344
-3.16,286.447,-0.344
-3.12,283.289,-0.344
-3.09,280.13,-0.344
-3.06,276.866,-0.344
-3.02,273.743,-0.332
-2.99,270.724,-0.309
-2.96,267.847,-0.309
-2.93,264.899,-0.309
-2.89,261.916,-0.332
-2.86,258.792,-0.344
-2.83,255.634,-0.344
-2.8,252.44,-0.344
-2.76,249.176,-0.355
-2.73,245.947,-0.344
-2.7,242.789,-0.344
-2.67,239.56,-0.355
-2.63,236.261,-0.355
-2.6,232.997,-0.355
-2.57,229.628,-0.355
-2.54,226.259,-0.355
-2.5,222.89,-0.367
-2.47,219.521,-0.367
-2.44,216.081,-0.367
-2.41,212.607,-0.378
-2.37,209.097,-0.389
-2.34,205.518,-0.389
-2.31,201.903,-0.378
-2.28,198.253,-0.389
-2.24,194.533,-0.401
-2.21,190.813,-0.412
-2.18,186.987,-0.412
-2.15,183.092,-0.424
-2.11,179.126,-0.424
-2.08,175.125,-0.447
-2.05,170.984,-0.447
-2.02,166.808,-0.458
-1.98,162.596,-0.458
-1.95,158.315,-0.47
-1.92,154.033,-0.47
-1.89,149.646,-0.47
-1.85,145.294,-0.481
-1.82,140.872,-0.481
-1.79,136.415,-0.493
-1.76,131.923,-0.493
-1.72,127.431,-0.481
-1.69,122.868,-0.493
-1.66,118.306,-0.493
-1.63,113.708,-0.493
-1.59,109.181,-0.481
-1.56,104.724,-0.493
-1.53,100.127,-0.493
-1.5,95.564,-0.493
-1.46,91.037,-0.493
-1.43,86.545,-0.504
-1.4,81.982,-0.493
-1.37,77.455,-0.493
-1.33,72.963,-0.493
-1.3,68.33,-0.493
-1.27,63.733,-0.493
-1.24,59.241,-0.504
-1.2,54.573,-0.504
-1.17,49.94,-0.515
-1.14,45.238,-0.504
-1.11,40.675,-0.515
-1.07,35.938,-0.504
-1.04,31.375,-0.493
-1.01,26.813,-0.493
-0.98,22.285,-0.504
-0.94,17.723,-0.47
-0.91,13.406,-0.493
-0.88,8.809,-0.458
-0.85,4.387,-0.515
-0.81,-0.175,-0.447
-0.78,-3.615,-0.378
-0.75,-9.581,-0.848
-0.72,-14.354,-0.241
-0.68,-17.688,-0.493
-0.65,-23.093,-0.642
-0.62,-27.971,-0.458
-0.59,-31.972,-0.412
-0.55,-36.288,-0.527
-0.52,-40.921,-0.481
-0.49,-45.273,-0.447
-0.46,-49.309,-0.447
-0.42,-53.415,-0.447
-0.39,-57.31,-0.412
-0.36,-61.206,-0.424
-0.33,-65.031,-0.424
-0.29,-68.997,-0.424
-0.26,-72.752,-0.412
-0.23,-76.578,-0.424
-0.2,-80.403,-0.412
-0.16,-84.229,-0.424
-0.13,-88.054,-0.412
-0.1,-91.739,-0.389
-0.07,-95.459,-0.412
-0.03,-99.179,-0.412
0.0,-102.934,-0.401
0.03,-106.584,-0.401
0.07,-110.129,-0.389
0.1,-113.779,-0.401
0.13,-117.429,-0.401
0.16,-121.114,-0.412
0.2,-124.834,-0.389
0.23,-128.308,-0.378
0.26,-131.923,-0.401
0.29,-135.678,-0.401
0.33,-139.012,-0.321
0.36,-141.82,-0.344
0.39,-145.575,-0.458
0.42,-149.892,-0.493
0.46,-154.384,-0.47
0.49,-158.701,-0.47
0.52,-162.772,-0.389
0.55,-166.492,-0.424
0.59,-169.896,-0.298
0.62,-172.563,-0.332
0.65,-176.845,-0.515
0.68,-179.477,-0.103
0.72,-182.355,-0.47
0.75,-186.075,-0.332
0.78,-188.988,-0.344
0.81,-192.216,-0.355
0.85,-195.621,-0.389
0.88,-198.323,-0.206
0.91,-201.482,-0.47
0.94,-205.623,-0.401
0.98,-208.22,-0.218
1.01,-211.589,-0.458
1.04,-214.081,-0.069
1.07,-214.888,-0.137
1.11,-219.275,-0.745
1.14,-224.89,-0.481
1.17,-227.979,-0.241
1.2,-230.4,-0.252
1.24,-232.225,-0.149
1.27,-233.945,-0.206
1.3,-235.945,-0.183
1.33,-237.805,-0.206
1.37,-239.911,-0.229
1.4,-242.508,-0.298
1.43,-245.21,-0.298
1.46,-247.913,-0.252
1.5,-249.457,-0.103
1.53,-253.317,-0.687
1.56,-257.88,-0.286
1.59,-258.897,-0.057
1.63,-261.179,-0.332
1.66,-263.39,-0.172
1.69,-265.25,-0.183
1.72,-266.302,-0.057
1.76,-268.092,-0.309
1.79,-270.83,-0.263
1.82,-273.357,-0.298
1.85,-276.129,-0.298
1.89,-278.516,-0.229
1.92,-280.516,-0.183
1.95,-282.516,-0.229
1.98,-284.306,-0.149
2.02,-285.921,-0.16
2.05,-287.535,-0.172
2.08,-289.044,-0.16
2.11,-290.623,-0.149
2.15,-292.203,-0.172
2.18,-293.747,-0.16
2.21,-295.326,-0.172
2.24,-296.87,-0.149
2.28,-298.38,-0.16
2.31,-299.783,-0.137
2.34,-301.117,-0.137
2.37,-302.38,-0.126
2.41,-303.609,-0.115
2.44,-304.837,-0.115
2.47,-305.82,-0.115
2.5,-307.013,-0.115
2.54,-308.136,-0.115
2.57,-309.259,-0.103
2.6,-310.277,-0.103
2.63,-311.295,-0.08
2.67,-312.032,-0.069
2.7,-312.804,-0.057
2.73,-313.014,0.023
2.76,-314.067,-0.172
2.8,-314.944,0.011
2.83,-315.366,-0.08
2.86,-316.138,-0.046
2.89,-316.699,-0.057
2.93,-317.401,-0.069
2.96,-317.963,-0.057
2.99,-318.665,-0.057
3.02,-319.191,-0.046
3.06,-319.823,-0.046
3.09,-320.314,-0.034
3.12,-320.735,-0.057
3.16,-321.437,-0.057
3.19,-321.928,-0.046
3.22,-322.385,-0.034
3.25,-322.876,-0.046
3.29,-323.367,-0.034
3.32,-323.753,-0.046
3.35,-324.139,-0.023
3.38,-324.561,-0.046
3.42,-324.911,0.023
3.45,-324.736,0.034
3.48,-325.333,-0.103
3.51,-325.824,0.023
3.55,-325.999,-0.034
3.58,-326.245,0.011
3.61,-326.456,0.0
3.64,-326.701,0.0
3.68,-326.912,0.0
3.71,-327.087,0.0
3.74,-327.298,0.011
3.77,-327.473,0.011
3.81,-327.614,0.0
3.84,-327.719,0.011
3.87,-327.824,0.011
3.9,-327.93,0.023
3.94,-328.0,0.011
3.97,-328.07,0.023
4.0,-328.14,0.011
4.03,-328.175,0.011
4.07,-328.21,0.011
4.1,-328.246,0.011
4.13,-328.281,0.011
4.16,-328.246,0.011
4.2,-328.21,0.011
4.23,-328.246,0.0
4.26,-328.21,0.011
4.29,-328.14,0.011
4.33,-328.105,0.011
4.36,-328.07,0.023
4.39,-327.93,0.023
4.42,-327.789,0.034
4.46,-327.614,0.046
4.49,-327.403,0.046
4.52,-327.052,0.057
4.55,-326.666,0.069
4.59,-326.175,0.08
4.62,-325.473,0.103
4.65,-324.701,0.126
4.68,-323.438,0.195
4.72,-321.928,0.183
4.75,-320.314,0.229
4.78,-318.068,0.298
4.81,-315.646,0.309
4.85,-313.155,0.309
4.88,-310.873,0.275
4.91,-308.733,0.241
4.94,-306.697,0.252
4.98,-304.451,0.286
5.01,-302.029,0.309
5.04,-299.362,0.344
5.07,-296.59,0.367
5.11,-293.571,0.378
5.14,-290.448,0.389
5.17,-287.325,0.367
5.2,-284.271,0.367
5.24,-281.078,0.389
5.27,-277.814,0.401
5.3,-274.585,0.367
5.33,-271.637,0.355
5.37,-268.689,0.355
5.4,-265.741,0.355
5.43,-262.793,0.367
5.46,-259.775,0.378
5.5,-256.651,0.378
5.53,-253.458,0.378
5.56,-250.229,0.389
5.59,-247.0,0.389
5.63,-243.771,0.389
5.66,-240.508,0.401
5.69,-237.209,0.401
5.72,-233.839,0.401
5.76,-230.54,0.412
5.79,-227.136,0.412
5.82,-223.767,0.401
5.85,-220.363,0.412
5.89,-216.924,0.412
5.92,-213.484,0.424
5.95,-209.94,0.424
5.98,-206.325,0.424
6.02,-202.78,0.435
6.05,-199.13,0.447
6.08,-195.305,0.447
6.11,-191.62,0.435
6.15,-187.865,0.447
6.18,-184.145,0.458
6.21,-180.179,0.47
6.25,-176.178,0.47
6.28,-172.107,0.493
6.31,-167.896,0.493
6.34,-163.754,0.493
6.38,-159.473,0.504
6.41,-155.191,0.515
6.44,-150.909,0.504
6.47,-146.558,0.515
6.51,-142.136,0.538
6.54,-137.679,0.538
6.57,-133.257,0.55
6.6,-128.659,0.538
6.64,-124.167,0.538
6.67,-119.64,0.538
6.7,-115.147,0.55
6.73,-110.55,0.538
6.77,-106.023,0.538
6.8,-101.566,0.538
6.83,-96.933,0.55
6.86,-92.406,0.538
6.9,-87.914,0.55
6.93,-83.316,0.515
6.96,-78.789,0.561
6.99,-74.332,0.515
7.03,-69.699,0.573
7.06,-65.137,0.538
7.09,-60.539,0.573
7.12,-56.047,0.504
7.16,-51.379,0.596
7.19,-46.817,0.493
7.22,-42.114,0.642
7.25,-37.657,0.389
7.29,-33.727,0.619
7.32,-27.515,0.745
7.35,-23.689,0.252
7.38,-19.759,0.664
7.42,-14.319,0.607
7.45,-9.897,0.47
7.48,-6.001,0.481
7.51,-1.404,0.596
7.55,3.053,0.493
7.58,7.475,0.55
7.61,12.038,0.55
7.64,16.67,0.561
7.68,21.233,0.55
7.71,25.795,0.55
7.74,30.322,0.538
7.77,34.85,0.538
7.81,39.377,0.55
7.84,43.939,0.538
7.87,48.151,0.481
7.9,52.187,0.493
7.94,56.152,0.458
7.97,60.048,0.47
8.0,63.838,0.458
8.03,67.734,0.47
8.07,71.559,0.447
8.1,75.279,0.447
8.13,79.034,0.458
8.16,82.86,0.458
8.2,86.755,0.458
8.23,90.511,0.458
8.26,94.406,0.447
8.29,98.056,0.447
8.33,101.811,0.458
8.36,105.496,0.435
8.39,109.181,0.435
8.42,112.761,0.435
8.46,116.481,0.447
8.49,120.096,0.435
8.52,123.816,0.458
8.55,127.571,0.435
8.59,131.396,0.458
8.62,135.046,0.424
8.65,138.696,0.389
8.68,140.627,0.172
8.72,144.417,0.699
8.75,149.084,0.389
8.78,152.699,0.538
8.81,157.788,0.607
8.85,161.684,0.389
8.88,165.334,0.458
8.91,168.948,0.412
8.94,172.318,0.401
8.98,175.652,0.401
9.01,178.88,0.389
9.04,182.109,0.389
9.07,185.268,0.378
9.11,188.356,0.389
9.14,191.725,0.412
9.17,194.989,0.378
9.21,198.112,0.389
9.24,201.447,0.412
9.27,204.781,0.378
9.3,207.939,0.389
9.34,211.028,0.378
9.37,214.081,0.355
9.4,215.485,0.034
9.43,217.099,0.424
9.47,222.82,0.813
9.5,227.522,0.367
9.53,230.154,0.321
9.56,232.436,0.241
9.6,234.225,0.206
9.63,236.086,0.241
9.66,238.051,0.241
9.69,240.016,0.241
9.73,242.227,0.321
9.76,244.894,0.332
9.79,247.842,0.378
9.82,249.808,0.149
9.86,252.44,0.515
9.89,256.721,0.447
9.92,258.652,0.126
9.95,260.512,0.321
9.99,262.723,0.229
10.02,264.793,0.275
10.05,266.162,0.115
10.08,267.566,0.286
10.12,270.163,0.344
10.15,272.795,0.298
10.18,275.462,0.355
10.21,278.13,0.309
10.25,280.235,0.229
10.28,282.201,0.275
10.31,284.131,0.218
10.34,285.675,0.183
10.38,287.254,0.218
10.41,288.834,0.183
10.44,290.308,0.195
10.47,291.817,0.195
10.51,293.396,0.218
10.54,294.94,0.195
10.57,296.519,0.218
10.6,297.958,0.172
10.64,299.608,0.229
10.67,300.31,0.0
10.7,301.292,0.309
10.73,303.819,0.252
10.77,304.662,0.057
10.8,305.89,0.218
10.83,306.978,0.103
10.86,308.101,0.195
10.9,309.259,0.126
10.93,310.242,0.149
10.96,311.259,0.126
10.99,312.032,0.115
11.03,312.769,0.103
11.06,313.365,0.092
11.09,313.997,0.103
11.12,314.699,0.103
11.16,315.401,0.092
11.19,316.032,0.092
11.22,316.664,0.092
11.25,317.366,0.103
11.29,317.928,0.092
11.32,318.524,0.103
11.35,319.191,0.092
11.38,319.682,0.092
11.42,320.209,0.069
11.45,320.665,0.092
11.48,321.262,0.092
11.51,321.788,0.08
11.55,322.314,0.092
11.58,322.736,0.08
11.61,323.438,0.115
11.64,323.824,0.046
11.68,324.034,0.08
11.71,324.666,0.092
11.74,324.806,0.011
11.77,324.806,0.057
11.81,325.368,0.103
11.84,325.754,0.057
11.87,325.999,0.057
11.9,326.35,0.057
11.94,326.561,0.057
11.97,326.701,0.046
12.0,327.017,0.057
12.03,327.228,0.046
12.07,327.438,0.057
12.1,327.579,0.034
12.13,327.684,0.057
12.16,327.859,0.034
12.2,327.965,0.057
12.23,328.07,0.034
12.26,328.14,0.046
12.3,328.21,0.046
12.33,328.246,0.034
12.36,328.351,0.046
12.39,328.351,0.046
12.43,328.351,0.046
12.46,328.421,0.046
12.49,328.386,0.057
12.52,328.421,0.046
12.56,328.421,0.069
12.59,328.351,0.057
12.62,328.351,0.046
12.65,328.316,0.057
12.69,328.246,0.046
12.72,328.07,0.046
12.75,328.0,0.034
12.78,327.789,0.023
12.82,327.614,0.0
12.85,327.263,-0.023
12.88,326.842,-0.034
12.91,326.421,-0.046
12.95,325.859,-0.046
12.98,325.122,-0.092
13.01,323.859,-0.137
13.04,322.49,-0.137
13.08,320.911,-0.172
13.11,318.91,-0.229
13.14,316.629,-0.241
13.17,314.207,-0.252
13.21,311.856,-0.252
13.24,309.54,-0.218
13.27,307.364,-0.218
13.3,305.188,-0.241
13.34,302.731,-0.252
13.37,300.204,-0.286
13.4,297.362,-0.309
13.43,294.519,-0.321
13.47,291.466,-0.332
13.5,288.342,-0.332
13.53,285.149,-0.332
13.56,281.99,-0.344
13.6,278.867,-0.355
13.63,275.638,-0.344
13.66,272.585,-0.332
13.69,269.566,-0.321
13.73,266.653,-0.309
13.76,263.741,-0.321
13.79,260.722,-0.344
13.82,257.529,-0.344
13.86,254.335,-0.344
13.89,251.141,-0.344
13.92,247.913,-0.355
13.95,244.719,-0.344
13.99,241.49,-0.355
14.02,238.226,-0.355
14.05,234.927,-0.355
14.08,231.593,-0.355
14.12,228.259,-0.367
14.15,224.925,-0.367
14.18,221.521,-0.378
14.21,218.152,-0.367
14.25,214.713,-0.367
14.28,211.238,-0.378
14.31,207.658,-0.389
14.34,204.079,-0.389
14.38,200.429,-0.389
14.41,196.779,-0.401
14.44,193.024,-0.412
14.47,189.233,-0.424
14.51,185.338,-0.424
14.54,181.372,-0.424
14.57,177.441,-0.435
14.6,173.37,-0.435
14.64,169.194,-0.458
14.67,164.983,-0.458
14.7,160.771,-0.458
14.73,156.49,-0.458
14.77,152.278,-0.47
14.8,147.961,-0.481
14.83,143.539,-0.481
14.86,139.153,-0.481
14.9,134.625,-0.493
14.93,130.098,-0.493
14.96,125.5,-0.493
14.99,120.973,-0.493
15.03,116.376,-0.493
15.06,111.778,-0.493
15.09,107.216,-0.493
15.12,102.759,-0.493
15.16,98.196,-0.493
15.19,93.634,-0.493
15.22,89.142,-0.493
15.25,84.615,-0.493
15.29,80.087,-0.493
15.32,75.525,-0.493
15.35,70.963,-0.493
15.39,66.435,-0.504
15.42,61.838,-0.493
15.45,57.24,-0.515
15.48,52.643,-0.493
15.52,47.975,-0.515
15.55,43.378,-0.493
15.58,38.745,-0.527
15.61,34.042,-0.481
15.65,29.48,-0.493
15.68,24.953,-0.481
15.71,20.39,-0.515
15.74,15.828,-0.458
15.78,11.441,-0.515
15.81,6.879,-0.447
15.84,2.492,-0.561
15.87,-1.965,-0.367
15.91,-5.545,-0.47
15.94,-11.827,-0.79
15.97,-16.003,-0.206
16.0,-19.548,-0.573
16.04,-25.023,-0.596
16.07,-29.62,-0.447
16.1,-33.516,-0.412
16.13,-38.043,-0.55
16.17,-42.641,-0.458
16.2,-46.817,-0.447
16.23,-50.923,-0.447
16.26,-54.994,-0.435
16.3,-58.82,-0.412
16.33,-62.785,-0.424
16.36,-66.716,-0.412
16.39,-70.506,-0.424
16.43,-74.402,-0.412
16.46,-78.227,-0.424
16.49,-82.018,-0.412
16.52,-85.843,-0.412
16.56,-89.563,-0.389
16.59,-93.283,-0.401
16.62,-97.003,-0.412
16.65,-100.793,-0.412
16.69,-104.443,-0.378
16.72,-107.988,-0.389
16.75,-111.497,-0.389
16.78,-115.182,-0.412
16.82,-118.973,-0.412
16.85,-122.693,-0.401
16.88,-126.308,-0.401
16.91,-130.168,-0.424
16.95,-133.994,-0.389
16.98,-137.398,-0.367
17.01,-140.24,-0.263
17.04,-143.224,-0.378
17.08,-147.295,-0.47
17.11,-151.752,-0.504
17.14,-156.139,-0.47
17.17,-160.385,-0.47
17.21,-164.105,-0.355
17.24,-167.72,-0.435
17.27,-170.914,-0.241
17.3,-173.792,-0.412
17.34,-178.214,-0.458
17.37,-180.635,-0.137
17.4,-183.618,-0.47
17.43,-187.373,-0.332
17.47,-190.216,-0.321
17.5,-193.726,-0.412
17.53,-196.744,-0.218
17.56,-199.586,-0.424
17.6,-203.833,-0.447
17.63,-206.676,-0.218
17.66,-209.764,-0.424
17.69,-213.133,-0.286
17.73,-214.432,0.0
17.76,-216.257,-0.378
17.79,-221.696,-0.733
17.82,-226.294,-0.321
17.86,-229.031,-0.298
17.89,-231.348,-0.183
17.92,-232.962,-0.172
17.95,-234.752,-0.195
17.99,-236.647,-0.206
18.02,-238.647,-0.206
18.05,-240.929,-0.298
18.08,-243.701,-0.298
18.12,-246.474,-0.321
18.15,-248.65,-0.126
18.18,-250.685,-0.355
18.21,-255.879,-0.687
18.25,-258.582,0.023
18.28,-259.775,-0.263
18.31,-262.267,-0.218
18.34,-264.127,-0.195
18.38,-265.601,-0.092
18.41,-266.934,-0.183
18.44,-269.461,-0.309
18.48,-271.988,-0.241
18.51,-274.725,-0.321
18.54,-277.498,-0.263
18.57,-279.533,-0.172
18.61,-281.358,-0.206
18.64,-283.324,-0.195
18.67,-285.008,-0.149
18.7,-286.623,-0.172
18.74,-288.342,-0.16
18.77,-289.922,-0.149
18.8,-291.396,-0.16
18.83,-292.975,-0.172
18.87,-294.519,-0.149
18.9,-296.063,-0.16
18.93,-297.572,-0.16
18.96,-299.152,-0.149
19.0,-300.45,-0.137
19.03,-301.784,-0.137
19.06,-302.977,-0.115
19.09,-304.135,-0.115
19.13,-305.363,-0.115
19.16,-306.522,-0.115
19.19,-307.645,-0.103
19.22,-308.662,-0.103
19.26,-309.785,-0.103
19.29,-310.803,-0.103
19.32,-311.751,-0.08
19.35,-312.523,-0.069
19.39,-313.33,-0.046
19.42,-313.47,0.011
19.45,-314.523,-0.16
19.48,-315.366,0.011
19.52,-315.822,-0.092
19.55,-316.559,-0.057
19.58,-317.12,-0.057
19.61,-317.822,-0.057
19.65,-318.419,-0.057
19.68,-319.051,-0.046
19.71,-319.542,-0.046
19.74,-320.139,-0.057
19.78,-320.595,-0.023
19.81,-321.086,-0.057
19.84,-321.648,-0.057
19.87,-322.139,-0.046
19.91,-322.56,-0.034
19.94,-323.122,-0.034
19.97,-323.543,-0.034
20.0,-323.999,-0.046
20.04,-324.385,-0.023
20.07,-324.841,-0.057
20.1,-324.876,0.057
20.13,-324.876,-0.046
20.17,-325.613,-0.069
20.2,-325.894,0.023
20.23,-326.14,-0.034
20.26,-326.385,0.011
20.3,-326.596,-0.023
20.33,-326.807,0.011
20.36,-327.017,0.0
20.39,-327.263,0.011
20.43,-327.368,0.011
20.46,-327.544,0.011
20.49,-327.684,0.0
20.52,-327.824,0.023
20.56,-327.93,0.011
20.59,-328.035,0.011
20.62,-328.07,0.011
20.65,-328.14,0.011
20.69,-328.21,0.011
20.72,-328.246,0.0
20.75,-328.281,0.011
20.78,-328.281,0.011
20.82,-328.281,0.011
20.85,-328.281,0.0
20.88,-328.281,0.0
20.91,-328.21,0.0
20.95,-328.175,0.0
20.98,-328.21,0.0
21.01,-328.105,0.0
21.04,-328.0,0.011
21.08,-327.895,0.023
21.11,-327.754,0.023
21.14,-327.579,0.057
21.17,-327.368,0.046
21.21,-326.982,0.069
21.24,-326.491,0.08
21.27,-325.929,0.092
21.3,-325.227,0.103
21.34,-324.28,0.16
21.37,-322.806,0.206
21.4,-321.262,0.195
21.43,-319.402,0.286
21.47,-317.05,0.298
21.5,-314.629,0.309
21.53,-312.277,0.298
21.57,-309.926,0.275
21.6,-307.855,0.252
21.63,-305.644,0.275
21.66,-303.433,0.298
21.7,-300.801,0.321
21.73,-298.169,0.344
21.76,-295.221,0.367
21.79,-292.168,0.367
21.83,-289.079,0.389
21.86,-285.886,0.378
21.89,-282.692,0.378
21.92,-279.604,0.378
21.96,-276.445,0.378
21.99,-273.286,0.367
22.02,-270.303,0.355
22.05,-267.39,0.355
22.09,-264.548,0.355
22.12,-261.635,0.367
22.15,-258.476,0.389
22.18,-255.318,0.389
22.22,-252.124,0.389
22.25,-248.895,0.401
22.28,-245.596,0.389
22.31,-242.368,0.401
22.35,-239.034,0.401
22.38,-235.699,0.401
22.41,-232.401,0.401
22.44,-229.031,0.412
22.48,-225.627,0.412
22.51,-222.258,0.412
22.54,-218.889,0.412
22.57,-215.485,0.412
22.61,-212.045,0.424
22.64,-208.536,0.424
22.67,-204.956,0.435
22.7,-201.341,0.424
22.74,-197.691,0.447
22.77,-193.971,0.447
22.8,-190.181,0.458
22.83,-186.356,0.458
22.87,-182.425,0.47
22.9,-178.424,0.47
22.93,-174.388,0.481
22.96,-170.212,0.504
23.0,-166.035,0.493
23.03,-161.824,0.493
23.06,-157.578,0.504
23.09,-153.331,0.504
23.13,-149.014,0.515
23.16,-144.662,0.515
23.19,-140.276,0.538
23.22,-135.854,0.538
23.26,-131.361,0.538
23.29,-126.834,0.538
23.32,-122.307,0.538
23.35,-117.744,0.538
23.39,-113.182,0.55
23.42,-108.62,0.538
23.45,-104.022,0.55
23.48,-99.53,0.55
23.52,-94.968,0.561
23.55,-90.37,0.55
23.58,-85.843,0.55
23.61,-81.316,0.538
23.65,-76.823,0.55
23.68,-72.261,0.55
23.71,-67.734,0.55
23.74,-63.171,0.538
23.78,-58.504,0.561
23.81,-54.012,0.538
23.84,-49.274,0.573
23.87,-44.852,0.515
23.91,-39.868,0.619
23.94,-36.148,0.332
23.97,-31.094,0.848
24.0,-25.444,0.435
24.04,-22.321,0.412
24.07,-17.337,0.699
24.1,-12.248,0.538
24.13,-8.212,0.458
24.17,-4.001,0.55
24.2,0.702,0.55
24.23,5.054,0.504
24.26,9.546,0.561
24.3,14.178,0.561
24.33,18.776,0.538
24.36,23.303,0.55
24.39,27.866,0.538
24.43,32.323,0.538
24.46,36.78,0.538
24.49,41.272,0.55
24.52,45.659,0.504
24.56,49.8,0.493
24.59,53.871,0.481
24.62,57.767,0.458
24.66,61.627,0.47
24.69,65.488,0.47
24.72,69.383,0.458
24.75,73.244,0.458
24.79,76.999,0.458
24.82,80.894,0.458
24.85,84.72,0.458
24.88,88.475,0.447
24.92,92.195,0.458
24.95,96.056,0.458
24.98,99.916,0.458
25.01,103.601,0.424
25.05,107.146,0.447
25.08,110.831,0.424
25.11,114.41,0.435
25.14,118.06,0.435
25.18,121.851,0.47
25.21,125.536,0.424
25.24,129.361,0.481
25.27,133.151,0.424
25.31,136.836,0.47
25.34,139.784,0.229
25.37,141.995,0.367
25.4,146.838,0.676
25.44,150.699,0.332
25.47,155.051,0.687
25.5,159.999,0.481
25.53,163.579,0.424
25.57,167.018,0.412
25.6,170.177,0.378
25.63,173.3,0.401
25.66,176.81,0.458
25.7,180.319,0.401
25.73,183.653,0.412
25.76,186.777,0.367
25.79,189.935,0.389
25.83,193.164,0.389
25.86,196.077,0.355
25.89,199.236,0.412
25.92,202.815,0.447
25.96,206.395,0.424
25.99,209.624,0.367
26.02,212.607,0.367
26.05,214.993,0.195
26.09,215.73,0.08
26.12,219.38,0.756
26.15,225.452,0.619
26.18,228.961,0.298
26.22,231.348,0.298
26.25,233.243,0.218
26.28,234.998,0.229
26.31,236.928,0.252
26.35,238.823,0.229
26.38,240.858,0.286
26.41,243.35,0.332
26.44,246.228,0.389
26.48,248.965,0.252
26.51,250.615,0.229
26.54,254.51,0.63
26.57,257.88,0.195
26.61,259.389,0.229
26.64,261.635,0.286
26.67,263.67,0.275
26.7,265.741,0.229
26.74,266.829,0.103
26.77,268.619,0.332
26.8,271.356,0.332
26.83,273.988,0.332
26.87,276.691,0.344
26.9,279.147,0.252
26.93,280.972,0.229
26.96,283.113,0.275
27.0,284.868,0.183
27.03,286.377,0.195
27.06,287.956,0.195
27.09,289.5,0.195
27.13,290.904,0.183
27.16,292.484,0.206
27.19,293.922,0.183
27.22,295.572,0.218
27.26,297.046,0.172
27.29,298.836,0.241
27.32,299.503,0.011
27.35,300.941,0.344
27.39,302.837,0.126
27.42,303.96,0.229
27.45,305.469,0.137
27.48,306.241,0.126
27.52,307.574,0.172
27.55,308.592,0.126
27.58,309.68,0.172
27.62,310.663,0.126
27.65,311.61,0.126
27.68,312.347,0.103
27.71,313.014,0.103
27.75,313.681,0.103
27.78,314.383,0.115
27.81,315.015,0.103
27.84,315.717,0.103
27.88,316.348,0.103
27.91,317.05,0.103
27.94,317.612,0.092
27.97,318.208,0.092
28.01,318.84,0.092
28.04,319.437,0.08
28.07,319.963,0.092
28.1,320.454,0.08
28.14,320.946,0.092
28.17,321.542,0.092
28.2,322.069,0.08
28.23,322.49,0.08
28.27,323.122,0.092
28.3,323.473,0.069
28.33,323.929,0.08
28.36,324.315,0.057
28.4,324.736,0.092
28.43,324.806,-0.023
28.46,324.947,0.103
28.49,325.648,0.092
28.53,325.824,0.034
28.56,326.175,0.092
28.59,326.35,0.046
28.62,326.596,0.069
28.66,326.842,0.046
28.69,327.087,0.069
28.72,327.298,0.046
28.75,327.473,0.046
28.79,327.579,0.046
28.82,327.754,0.046
28.85,327.859,0.046
28.88,328.0,0.046
28.92,328.14,0.034
28.95,328.21,0.034
28.98,328.281,0.034
29.01,328.351,0.046
29.05,328.351,0.046
29.08,328.421,0.046
29.11,328.421,0.046
29.14,328.421,0.057
29.18,328.421,0.057
29.21,328.456,0.057
29.24,328.386,0.057
29.27,328.386,0.057
29.31,328.316,0.057
29.34,328.246,0.057
29.37,328.175,0.057
29.4,328.035,0.046
29.44,327.93,0.023
29.47,327.754,0.011
29.5,327.509,0.0
29.53,327.122,-0.023
29.57,326.807,-0.023
29.6,326.245,-0.046
29.63,325.578,-0.046
29.66,324.701,-0.103
29.7,323.297,-0.137
29.73,321.928,-0.137
29.76,320.279,-0.195
29.79,318.103,-0.241
29.83,315.611,-0.263
29.86,313.12,-0.252
29.89,310.803,-0.229
29.92,308.627,-0.206
29.96,306.592,-0.229
29.99,304.276,-0.241
30.02,301.854,-0.252
30.05,299.187,-0.286
30.09,296.379,-0.321
30.12,293.361,-0.332
30.15,290.237,-0.344
30.18,287.009,-0.344
30.22,283.85,-0.344
30.25,280.692,-0.355
30.28,277.428,-0.355
30.31,274.234,-0.344
30.35,271.181,-0.309
30.38,268.303,-0.321
30.41,265.355,-0.309
30.44,262.372,-0.332
30.48,259.283,-0.332
30.51,256.125,-0.344
30.54,253.072,-0.344
30.57,249.808,-0.355
30.61,246.544,-0.344
30.64,243.315,-0.344
30.67,240.086,-0.355
30.71,236.787,-0.355
30.74,233.524,-0.367
30.77,230.225,-0.355
30.8,226.82,-0.367
30.84,223.486,-0.367
30.87,220.082,-0.378
30.9,216.643,-0.378
30.93,213.133,-0.378
30.97,209.659,-0.378
31.0,206.079,-0.389
31.03,202.464,-0.389
31.06,198.814,-0.401
31.1,195.129,-0.401
31.13,191.374,-0.412
31.16,187.549,-0.424
31.19,183.688,-0.435
31.23,179.652,-0.424
31.26,175.616,-0.447
31.29,171.37,-0.458
31.32,167.264,-0.447
31.36,163.158,-0.435
31.39,158.981,-0.458
31.42,154.7,-0.47
31.45,150.278,-0.481
31.49,145.926,-0.481
31.52,141.469,-0.47
31.55,137.047,-0.481
31.58,132.555,-0.493
31.62,127.992,-0.493
31.65,123.465,-0.504
31.68,118.938,-0.493
31.71,114.34,-0.504
31.75,109.778,-0.493
31.78,105.251,-0.493
31.81,100.723,-0.493
31.84,96.126,-0.493
31.88,91.563,-0.481
31.91,87.036,-0.493
31.94,82.509,-0.493
31.97,78.017,-0.493
32.01,73.419,-0.504
32.04,68.822,-0.493
32.07,64.259,-0.504
32.1,59.697,-0.493
32.14,55.064,-0.504
32.17,50.432,-0.504
32.2,45.729,-0.504
32.23,41.167,-0.493
32.27,36.464,-0.527
32.3,31.866,-0.47
32.33,27.304,-0.504
32.36,22.777,-0.481
32.4,18.179,-0.504
32.43,13.792,-0.47
32.46,9.265,-0.504
32.49,4.878,-0.458
32.53,0.386,-0.527
32.56,-4.071,-0.435
32.59,-8.949,-0.619
32.62,-12.88,-0.263
32.66,-17.337,-0.733
32.69,-23.549,-0.55
32.72,-26.637,-0.229
32.75,-31.129,-0.664
32.79,-36.288,-0.481
32.82,-40.675,-0.47
32.85,-44.781,-0.435
32.88,-49.063,-0.47
32.92,-52.994,-0.412
32.95,-56.924,-0.424
32.98,-60.785,-0.412
33.01,-64.61,-0.424
33.05,-68.436,-0.401
33.08,-72.296,-0.424
33.11,-76.016,-0.412
33.14,-79.877,-0.424
33.18,-83.702,-0.424
33.21,-87.598,-0.424
33.24,-91.423,-0.412
33.27,-95.178,-0.412
33.31,-98.969,-0.412
33.34,-102.618,-0.389
33.37,-106.339,-0.401
33.4,-109.883,-0.389
33.44,-113.498,-0.401
33.47,-117.113,-0.401
33.5,-120.798,-0.389
33.53,-124.483,-0.401
33.57,-128.168,-0.412
33.6,-132.063,-0.412
33.63,-135.643,-0.378
33.66,-138.802,-0.321
33.7,-141.609,-0.298
33.73,-145.119,-0.458
33.76,-149.576,-0.493
33.8,-153.998,-0.493
33.83,-158.279,-0.447
33.86,-162.386,-0.435
33.89,-166.0,-0.378
33.93,-169.51,-0.389
33.96,-172.809,-0.332
33.99,-176.178,-0.401
34.02,-179.021,-0.206
34.06,-181.828,-0.412
34.09,-186.145,-0.447
34.12,-188.531,-0.137
34.15,-191.901,-0.527
34.19,-195.2,-0.183
34.22,-197.832,-0.412
34.25,-202.078,-0.447
34.28,-204.921,-0.218
34.32,-208.009,-0.424
34.35,-211.624,-0.355
34.38,-213.835,-0.126
34.41,-214.783,-0.092
34.45,-218.468,-0.676
34.48,-224.258,-0.55
34.51,-227.628,-0.252
34.54,-230.049,-0.252
34.58,-232.014,-0.172
34.61,-233.839,-0.206
34.64,-235.77,-0.183
34.67,-237.7,-0.183
34.71,-239.595,-0.206
34.74,-242.157,-0.321
34.77,-245.0,-0.298
34.8,-247.702,-0.286
34.84,-249.387,-0.092
34.87,-252.615,-0.607
34.9,-257.599,-0.412
34.93,-258.897,0.011
34.97,-260.793,-0.344
35.0,-263.144,-0.172
35.03,-264.934,-0.195
35.06,-266.127,-0.069
35.1,-267.987,-0.298
35.13,-270.689,-0.263
35.16,-273.216,-0.286
35.19,-275.919,-0.298
35.23,-278.375,-0.229
35.26,-280.305,-0.183
35.29,-282.341,-0.218
35.32,-284.201,-0.16
35.36,-285.78,-0.149
35.39,-287.325,-0.16
35.42,-288.974,-0.16
35.45,-290.483,-0.149
35.49,-292.062,-0.16
35.52,-293.642,-0.149
35.55,-295.186,-0.16
35.58,-296.66,-0.149
35.62,-298.204,-0.149
35.65,-299.573,-0.126
35.68,-300.836,-0.126
35.71,-302.065,-0.126
35.75,-303.328,-0.126
35.78,-304.486,-0.115
35.81,-305.644,-0.115
35.84,-306.873,-0.103
35.88,-307.996,-0.115
35.91,-309.189,-0.115
35.94,-310.277,-0.103
35.97,-311.259,-0.08
36.01,-312.102,-0.08
36.04,-312.804,-0.046
36.07,-313.506,-0.069
36.1,-314.137,-0.057
36.14,-314.874,-0.069
36.17,-315.506,-0.046
36.2,-316.208,-0.08
36.23,-316.594,0.034
36.27,-317.191,-0.137
36.3,-318.243,-0.057
36.33,-318.665,-0.023
36.36,-319.296,-0.057
36.4,-319.823,-0.034
36.43,-320.349,-0.057
36.46,-320.77,-0.034
36.49,-321.367,-0.069
36.53,-321.858,-0.034
36.56,-322.385,-0.046
36.59,-322.806,-0.023
36.62,-323.297,-0.046
36.66,-323.753,-0.034
36.69,-324.104,-0.034
36.72,-324.561,-0.034
36.75,-324.947,0.0
36.79,-324.736,0.057
36.82,-325.192,-0.103
36.85,-325.789,0.011
36.89,-325.929,-0.023
36.92,-326.245,-0.023
36.95,-326.421,0.0
36.98,-326.701,-0.023
37.02,-326.877,0.0
37.05,-327.087,0.0
37.08,-327.298,0.011
37.11,-327.403,0.011
37.15,-327.614,0.0
37.18,-327.719,0.0
37.21,-327.789,0.011
37.24,-327.93,0.011
37.28,-328.035,0.011
37.31,-328.07,0.011
37.34,-328.175,0.011
37.37,-328.175,0.011
37.41,-328.21,0.011
37.44,-328.246,0.011
37.47,-328.281,0.011
37.5,-328.246,0.011
37.54,-328.246,0.011
37.57,-328.21,0.011
37.6,-328.246,0.0
37.63,-328.175,0.011
37.67,-328.14,0.023
37.7,-328.07,0.011
37.73,-327.93,0.023
37.76,-327.859,0.034
37.8,-327.684,0.046
37.83,-327.473,0.046
37.86,-327.122,0.057
37.89,-326.736,0.08
37.93,-326.245,0.08
37.96,-325.648,0.103
37.99,-324.841,0.126
38.02,-323.613,0.183
38.06,-322.174,0.183
38.09,-320.49,0.229
38.12,-318.314,0.286
38.15,-316.032,0.298
38.19,-313.541,0.298
38.22,-311.224,0.286
38.25,-309.048,0.252
38.28,-306.837,0.275
38.32,-304.626,0.286
38.35,-302.24,0.309
38.38,-299.748,0.321
38.41,-296.906,0.355
38.45,-293.958,0.367
38.48,-290.904,0.378
38.51,-287.64,0.378
38.54,-284.587,0.378
38.58,-281.464,0.378
38.61,-278.27,0.378
38.64,-275.041,0.389
38.67,-271.988,0.367
38.71,-269.075,0.355
38.74,-266.232,0.355
38.77,-263.214,0.367
38.8,-260.161,0.378
38.84,-257.002,0.378
38.87,-253.844,0.378
38.9,-250.58,0.401
38.93,-247.386,0.389
38.97,-244.122,0.389
39.0,-240.788,0.389
39.03,-237.524,0.401
39.06,-234.261,0.401
39.1,-230.927,0.401
39.13,-227.628,0.401
39.16,-224.223,0.412
39.19,-220.854,0.401
39.23,-217.45,0.412
39.26,-213.94,0.412
39.29,-210.501,0.424
39.32,-206.921,0.424
39.36,-203.377,0.435
39.39,-199.727,0.435
39.42,-196.042,0.447
39.45,-192.287,0.447
39.49,-188.496,0.458
39.52,-184.601,0.47
39.55,-180.67,0.481
39.58,-176.74,0.447
39.62,-172.879,0.47
39.65,-168.387,0.55
39.68,-164.175,0.481
39.71,-159.929,0.515
39.75,-155.682,0.493
39.78,-151.331,0.538
39.81,-146.909,0.515
39.84,-142.557,0.538
39.88,-138.065,0.538
39.91,-133.643,0.515
39.94,-129.115,0.55
39.98,-124.588,0.538
40.01,-120.026,0.561
40.04,-115.463,0.538
40.07,-110.936,0.55
40.11,-106.409,0.538
40.14,-101.846,0.55
40.17,-97.284,0.55
40.2,-92.757,0.538
40.24,-88.229,0.55
40.27,-83.737,0.538
40.3,-79.21,0.55
40.33,-74.718,0.538
40.37,-70.226,0.561
40.4,-65.558,0.538
40.43,-61.066,0.561
40.46,-56.468,0.55
40.5,-51.906,0.561
40.53,-47.168,0.538
40.56,-42.746,0.573
40.59,-37.762,0.561
40.63,-34.218,0.378
40.66,-28.532,0.894
40.69,-23.444,0.332
40.72,-20.355,0.504
40.76,-14.986,0.676
40.79,-10.178,0.493
40.82,-6.247,0.447
40.85,-1.965,0.573
40.89,2.737,0.515
40.92,7.054,0.515
40.95,11.546,0.561
40.98,16.179,0.561
41.02,20.776,0.538
41.05,25.269,0.561
41.08,29.866,0.55
41.11,34.323,0.538
41.15,38.885,0.55
41.18,43.448,0.538
41.21,47.659,0.481
41.24,51.695,0.493
41.28,55.731,0.458
41.31,59.662,0.458
41.34,63.522,0.458
41.37,67.278,0.458
41.41,71.208,0.458
41.44,74.963,0.447
41.47,78.754,0.458
41.5,82.579,0.458
41.54,86.369,0.458
41.57,90.125,0.458
41.6,93.915,0.458
41.63,97.881,0.447
41.67,101.671,0.458
41.7,105.286,0.424
41.73,109.006,0.447
41.76,112.585,0.424
41.8,116.235,0.447
41.83,119.92,0.435
41.86,123.746,0.47
41.89,127.431,0.424
41.93,131.256,0.481
41.96,134.941,0.401
41.99,138.451,0.435
42.02,140.837,0.149
42.06,143.715,0.584
42.09,148.979,0.584
42.12,152.594,0.389
42.15,157.472,0.687
42.19,161.824,0.401
42.22,165.263,0.447
42.25,168.773,0.412
42.28,172.142,0.401
42.32,175.406,0.389
42.35,178.67,0.412
42.38,181.898,0.389
42.41,185.057,0.389
42.45,188.075,0.367
42.48,191.374,0.412
42.51,194.743,0.389
42.54,197.832,0.378
42.58,201.131,0.412
42.61,204.57,0.401
42.64,207.834,0.401
42.67,211.028,0.378
42.71,214.046,0.344
42.74,215.344,0.023
42.77,216.994,0.435
42.8,222.714,0.813
42.84,227.452,0.367
42.87,230.049,0.309
42.9,232.225,0.229
42.93,233.98,0.218
42.97,235.84,0.241
43.0,237.875,0.241
43.03,239.841,0.241
43.07,242.157,0.321
43.1,244.824,0.332
43.13,247.702,0.367
43.16,249.808,0.149
43.2,252.159,0.458
43.23,256.616,0.504
43.26,258.757,0.115
43.29,260.512,0.309
43.33,262.617,0.229
43.36,264.723,0.286
43.39,266.127,0.103
43.42,267.426,0.241
43.46,270.023,0.355
43.49,272.69,0.298
43.52,275.392,0.355
43.55,277.989,0.298
43.59,280.095,0.241
43.62,282.06,0.252
43.65,284.026,0.229
43.68,285.64,0.195
43.72,287.219,0.206
43.75,288.799,0.206
43.78,290.343,0.195
43.81,291.887,0.195
43.85,293.396,0.195
43.88,294.94,0.195
43.91,296.449,0.206
43.94,298.029,0.195
43.98,299.538,0.183
44.01,300.941,0.183
44.04,302.17,0.149
44.07,302.591,0.034
44.11,304.24,0.367
44.14,306.206,0.103
44.17,306.697,0.115
44.2,308.171,0.218
44.24,309.119,0.08
44.27,310.172,0.195
44.3,311.259,0.103
44.33,312.137,0.137
44.37,312.874,0.092
44.4,313.435,0.115
44.43,314.137,0.092
44.46,314.804,0.103
44.5,315.436,0.092
44.53,316.103,0.115
44.56,316.769,0.092
44.59,317.401,0.103
44.63,318.033,0.092
44.66,318.594,0.092
44.69,319.156,0.08
44.72,319.753,0.08
44.76,320.244,0.08
44.79,320.77,0.069
44.82,321.191,0.08
44.85,321.753,0.08
44.89,322.209,0.08
44.92,322.771,0.08
44.95,323.192,0.069
44.98,323.578,0.08
45.02,323.964,0.069
45.05,324.42,0.08
45.08,324.771,0.046
45.11,324.631,0.011
45.15,325.192,0.137
45.18,325.613,0.034
45.21,325.859,0.069
45.24,326.14,0.046
45.28,326.35,0.057
45.31,326.666,0.046
45.34,326.807,0.046
45.37,327.087,0.046
45.41,327.298,0.046
45.44,327.473,0.046
45.47,327.649,0.046
45.5,327.789,0.046
45.54,327.895,0.034
45.57,328.0,0.046
45.6,328.105,0.034
45.63,328.175,0.046
45.67,328.246,0.046
45.7,328.316,0.034
45.73,328.351,0.034
45.76,328.456,0.046
45.8,328.421,0.046
45.83,328.386,0.057
45.86,328.421,0.057
45.89,328.421,0.046
45.93,328.421,0.057
45.96,328.351,0.057
45.99,328.281,0.057
46.03,328.21,0.057
46.06,328.14,0.046
46.09,328.0,0.034
46.12,327.859,0.023
46.16,327.649,0.011
46.19,327.368,0.0
46.22,327.017,-0.023
46.25,326.561,-0.034
46.29,325.999,-0.057
46.32,325.262,-0.069
46.35,324.139,-0.137
46.38,322.701,-0.137
46.42,321.227,-0.149
46.45,319.296,-0.218
46.48,317.015,-0.241
46.51,314.488,-0.263
46.55,312.067,-0.252
46.58,309.68,-0.229
46.61,307.574,-0.218
46.64,305.363,-0.229
46.68,303.012,-0.252
46.71,300.45,-0.286
46.74,297.748,-0.309
46.77,294.87,-0.321
46.81,291.852,-0.332
46.84,288.658,-0.344
46.87,285.5,-0.344
46.9,282.306,-0.344
46.94,279.112,-0.355
46.97,275.848,-0.355
47.0,272.76,-0.332
47.03,269.777,-0.321
47.07,266.899,-0.309
47.1,263.916,-0.309
47.13,260.898,-0.332
47.16,257.809,-0.344
47.2,254.686,-0.344
47.23,251.457,-0.344
47.26,248.228,-0.355
47.29,245.0,-0.344
47.33,241.806,-0.355
47.36,238.507,-0.355
47.39,235.173,-0.355
47.42,231.839,-0.355
47.46,228.61,-0.367
47.49,225.136,-0.367
47.52,221.767,-0.367
47.55,218.398,-0.367
47.59,214.958,-0.367
47.62,211.449,-0.378
47.65,207.869,-0.389
47.68,204.324,-0.389
47.72,200.674,-0.401
47.75,197.025,-0.401
47.78,193.304,-0.401
47.81,189.514,-0.412
47.85,185.724,-0.412
47.88,181.793,-0.424
47.91,177.757,-0.435
47.94,173.756,-0.435
47.98,169.58,-0.447
48.01,165.439,-0.458
48.04,161.122,-0.458
48.07,156.841,-0.47
48.11,152.524,-0.47
48.14,148.172,-0.481
48.17,143.82,-0.493
48.2,139.363,-0.481
48.24,134.871,-0.481
48.27,130.379,-0.493
48.3,125.851,-0.493
48.33,121.289,-0.493
48.37,116.762,-0.504
48.4,112.164,-0.504
48.43,107.602,-0.493
48.46,103.11,-0.493
48.5,98.512,-0.493
48.53,93.95,-0.493
48.56,89.423,-0.493
48.59,84.895,-0.493
48.63,80.368,-0.493
48.66,75.841,-0.493
48.69,71.313,-0.493
48.72,66.716,-0.493
48.76,62.119,-0.493
48.79,57.556,-0.504
48.82,52.994,-0.493
48.85,48.326,-0.504
48.89,43.729,-0.493
48.92,39.131,-0.515
48.95,34.393,-0.493
48.98,29.866,-0.504
49.02,25.339,-0.493
49.05,20.706,-0.515
49.08,16.144,-0.47
49.12,11.652,-0.515
49.15,7.159,-0.47
49.18,2.702,-0.515
49.21,-1.825,-0.447
49.25,-6.247,-0.561
49.28,-10.88,-0.412
49.31,-14.389,-0.447
49.34,-20.636,-0.825
49.38,-24.883,-0.183
49.41,-28.287,-0.561
49.44,-33.656,-0.573
49.47,-38.184,-0.47
49.51,-42.395,-0.435
49.54,-46.606,-0.481
49.57,-50.818,-0.435
49.6,-54.749,-0.435
49.64,-58.644,-0.412
49.67,-62.469,-0.424
49.7,-66.33,-0.412
49.73,-70.155,-0.424
49.77,-74.016,-0.412
49.8,-77.876,-0.412
49.83,-81.667,-0.412
49.86,-85.492,-0.424
49.9,-89.247,-0.401
49.93,-93.108,-0.412
49.96,-96.828,-0.412
49.99,-100.513,-0.401
50.03,-104.233,-0.401
50.06,-107.777,-0.389
50.09,-111.392,-0.389
50.12,-115.042,-0.401
50.16,-118.692,-0.401
50.19,-122.412,-0.401
50.22,-126.132,-0.401
50.25,-129.922,-0.424
50.29,-133.678,-0.401
50.32,-137.187,-0.355
50.35,-140.065,-0.286
50.38,-143.013,-0.367
50.42,-147.119,-0.493
50.45,-151.541,-0.493
50.48,-156.068,-0.481
50.51,-160.28,-0.435
50.55,-164.105,-0.389
50.58,-167.509,-0.367
50.61,-170.984,-0.367
50.64,-174.142,-0.367
50.68,-177.547,-0.344
50.71,-180.038,-0.229
50.74,-183.969,-0.584
50.77,-187.198,-0.137
50.81,-189.76,-0.435
50.84,-193.48,-0.321
50.87,-196.182,-0.344
50.9,-200.323,-0.493
50.94,-203.342,-0.206
50.97,-206.465,-0.424
51.0,-209.94,-0.332
51.03,-212.852,-0.298
51.07,-214.186,0.011
51.1,-216.011,-0.412
51.13,-221.556,-0.722
51.16,-226.259,-0.344
51.2,-228.821,-0.263
51.23,-231.032,-0.183
51.26,-232.681,-0.172
51.29,-234.612,-0.218
51.33,-236.542,-0.195
51.36,-238.577,-0.206
51.39,-240.858,-0.286
51.42,-243.631,-0.309
51.46,-246.474,-0.309
51.49,-248.65,-0.172
51.52,-250.404,-0.252
51.55,-255.458,-0.733
51.59,-258.687,-0.034
51.62,-259.634,-0.183
51.65,-262.161,-0.252
51.68,-263.986,-0.183
51.72,-265.601,-0.115
51.75,-266.829,-0.16
51.78,-269.321,-0.321
51.81,-271.918,-0.241
51.85,-274.655,-0.321
51.88,-277.428,-0.252
51.91,-279.463,-0.183
51.94,-281.288,-0.195
51.98,-283.183,-0.206
52.01,-284.833,-0.149
52.04,-286.482,-0.172
52.07,-288.167,-0.16
52.11,-289.711,-0.16
52.14,-291.325,-0.149
52.17,-292.834,-0.16
52.21,-294.414,-0.16
52.24,-295.993,-0.16
52.27,-297.572,-0.149
52.3,-299.046,-0.149
52.34,-300.415,-0.137
52.37,-301.749,-0.115
52.4,-302.907,-0.126
52.43,-304.1,-0.115
52.47,-305.258,-0.115
52.5,-306.346,-0.115
52.53,-307.504,-0.126
52.56,-308.698,-0.115
52.6,-309.785,-0.103
52.63,-310.663,-0.092
52.66,-311.681,-0.08
52.69,-312.383,-0.046
52.73,-313.049,-0.069
52.76,-313.716,-0.046
52.79,-314.418,-0.08
52.82,-314.98,-0.046
52.86,-315.752,-0.092
52.89,-316.278,0.011
52.92,-316.699,-0.069
52.95,-317.822,-0.137
52.99,-318.349,0.023
53.02,-318.875,-0.092
53.05,-319.507,-0.023
53.08,-320.103,-0.069
53.12,-320.525,-0.023
53.15,-321.051,-0.069
53.18,-321.648,-0.034
53.21,-322.104,-0.057
53.25,-322.63,-0.034
53.28,-323.087,-0.046
53.31,-323.508,-0.023
53.34,-323.964,-0.046
53.38,-324.21,0.034
53.41,-324.49,-0.057
53.44,-324.806,0.046
53.47,-324.736,-0.034
53.51,-325.613,-0.103
53.54,-325.859,0.046
53.57,-326.035,-0.046
53.6,-326.28,0.023
53.64,-326.421,-0.023
53.67,-326.772,-0.023
53.7,-326.947,0.011
53.73,-327.193,0.0
53.77,-327.368,0.023
53.8,-327.438,0.011
53.83,-327.649,0.0
53.86,-327.684,0.011
53.9,-327.895,0.0
53.93,-328.0,0.023
53.96,-328.035,0.023
53.99,-328.105,0.023
54.03,-328.105,0.011
54.06,-328.21,0.0
54.09,-328.21,0.011
54.12,-328.281,0.0
54.16,-328.316,0.011
54.19,-328.281,0.0
54.22,-328.281,0.011
54.25,-328.246,0.011
54.29,-328.246,0.0
54.32,-328.175,0.011
54.35,-328.14,0.0
54.38,-328.035,0.023
54.42,-327.859,0.023
54.45,-327.754,0.034
54.48,-327.614,0.057
54.51,-327.368,0.046
54.55,-327.017,0.069
54.58,-326.596,0.08
54.61,-326.035,0.092
54.64,-325.298,0.115
54.68,-324.385,0.149
54.71,-323.016,0.183
54.74,-321.507,0.183
54.77,-319.612,0.275
54.81,-317.261,0.309
54.84,-314.769,0.309
54.87,-312.347,0.298
54.9,-309.996,0.275
54.94,-307.925,0.241
54.97,-305.75,0.275
55.0,-303.503,0.286
55.03,-301.082,0.309
55.07,-298.45,0.332
55.1,-295.572,0.367
55.13,-292.484,0.378
55.16,-289.395,0.378
55.2,-286.201,0.389
55.23,-283.043,0.378
55.26,-279.814,0.378
55.3,-276.656,0.389
55.33,-273.532,0.367
55.36,-270.549,0.355
55.39,-267.636,0.355
55.43,-264.793,0.355
55.46,-261.81,0.367
55.49,-258.687,0.378
55.52,-255.493,0.378
55.56,-252.37,0.389
55.59,-249.141,0.389
55.62,-245.877,0.389
55.65,-242.648,0.401
55.69,-239.384,0.389
55.72,-236.05,0.401
55.75,-232.716,0.401
55.78,-229.382,0.401
55.82,-225.943,0.412
55.85,-222.574,0.412
55.88,-219.135,0.412
55.91,-215.73,0.412
55.95,-212.291,0.424
55.98,-208.746,0.424
56.01,-205.202,0.424
56.04,-201.552,0.435
56.08,-197.937,0.435
56.11,-194.217,0.447
56.14,-190.462,0.458
56.17,-186.566,0.458
56.21,-182.671,0.47
56.24,-178.705,0.47
56.27,-174.599,0.481
56.3,-170.528,0.493
56.34,-166.281,0.504
56.37,-162.035,0.493
56.4,-157.788,0.504
56.43,-153.542,0.504
56.47,-149.19,0.515
56.5,-144.838,0.515
56.53,-140.416,0.515
56.56,-136.029,0.538
56.6,-131.502,0.538
56.63,-126.974,0.538
56.66,-122.482,0.561
56.69,-117.99,0.538
56.73,-113.428,0.55
56.76,-108.865,0.538
56.79,-104.373,0.55
56.82,-99.776,0.55
56.86,-95.178,0.55
56.89,-90.651,0.538
56.92,-86.124,0.55
56.95,-81.631,0.515
56.99,-77.034,0.55
57.02,-72.507,0.538
57.05,-67.944,0.561
57.08,-63.417,0.515
57.12,-58.749,0.573
57.15,-54.327,0.504
57.18,-49.59,0.607
57.21,-45.097,0.481
57.25,-40.289,0.653
57.28,-36.183,0.332
57.31,-31.761,0.745
57.34,-25.655,0.607
57.38,-22.391,0.298
57.41,-17.934,0.687
57.44,-12.564,0.573
57.47,-8.318,0.458
57.51,-4.282,0.515
57.54,0.491,0.573
57.57,4.878,0.504
57.6,9.3,0.561
57.64,13.968,0.561
57.67,18.53,0.55
57.7,23.128,0.538
57.73,27.655,0.561
57.77,32.182,0.515
57.8,36.499,0.538
57.83,41.167,0.538
57.86,45.483,0.493
57.9,49.66,0.481
57.93,53.696,0.481
57.96,57.591,0.447
57.99,61.487,0.458
58.03,65.312,0.458
58.06,69.173,0.458
58.09,72.963,0.447
58.12,76.683,0.447
58.16,80.403,0.458
58.19,84.299,0.458
58.22,88.194,0.458
58.25,91.985,0.458
58.29,95.88,0.458
58.32,99.635,0.447
58.35,103.355,0.424
58.39,106.935,0.435
58.42,110.62,0.435
58.45,114.235,0.435
58.48,117.85,0.435
58.52,121.5,0.447
58.55,125.29,0.435
58.58,129.08,0.47
58.61,132.87,0.435
58.65,136.52,0.458
58.68,139.819,0.298
58.71,141.75,0.286
58.74,146.487,0.745
58.78,150.839,0.332
58.81,154.735,0.619
58.84,159.648,0.504
58.87,163.263,0.401
58.91,166.913,0.447
58.94,170.457,0.412
58.97,173.721,0.378
59.0,176.845,0.389
59.04,180.109,0.389
59.07,183.232,0.401
59.1,186.32,0.367
59.13,189.514,0.401
59.17,192.848,0.412
59.2,196.042,0.378
59.23,199.306,0.401
59.26,202.675,0.401
59.3,205.869,0.389
59.33,209.132,0.389
59.36,212.326,0.401
59.39,214.748,0.172
59.43,215.555,0.115
59.46,219.415,0.768
59.49,225.346,0.596
59.52,228.716,0.298
59.56,231.172,0.298
59.59,233.032,0.218
59.62,234.927,0.229
59.65,236.823,0.241
59.69,238.683,0.229
59.72,240.753,0.286
59.75,243.21,0.321
59.78,246.017,0.367
59.82,248.86,0.286
59.85,250.475,0.206
59.88,254.124,0.63
59.91,257.845,0.241
59.95,259.283,0.206
59.98,261.53,0.298
60.01,263.565,0.241
60.04,265.565,0.241
60.08,266.653,0.092
60.11,268.443,0.344
60.14,271.181,0.321
60.17,273.778,0.321
60.21,276.55,0.332
60.24,279.042,0.275
60.27,280.902,0.241
60.3,283.008,0.286
60.34,284.833,0.195
60.37,286.447,0.206
60.4,287.991,0.195
60.43,289.606,0.206
60.47,291.01,0.183
60.5,292.624,0.218
60.53,294.063,0.172
60.56,295.712,0.229
60.6,297.221,0.16
60.63,298.906,0.229
60.66,300.099,0.137
60.69,301.819,0.252
60.73,301.994,-0.126
60.76,303.293,0.458
60.79,306.03,0.126
60.82,306.065,0.069
60.86,307.75,0.275
60.89,308.627,0.046
60.92,309.75,0.229
60.95,310.803,0.092
60.99,311.646,0.137
61.02,312.312,0.069
61.05,312.979,0.126
61.08,313.646,0.092
61.12,314.313,0.103
61.15,314.98,0.092
61.18,315.646,0.115
61.21,316.313,0.092
61.25,316.945,0.103
61.28,317.647,0.103
61.31,318.208,0.103
61.34,318.805,0.08
61.38,319.402,0.092
61.41,319.963,0.092
61.44,320.454,0.069
61.48,320.911,0.092
61.51,321.507,0.092
61.54,321.999,0.08
61.57,322.455,0.08
61.61,322.981,0.08
61.64,323.367,0.08
61.67,323.859,0.08
61.7,324.174,0.057
61.74,324.666,0.092
61.77,324.736,-0.023
61.8,324.806,0.092
61.83,325.578,0.092
61.87,325.754,0.034
61.9,326.07,0.08
61.93,326.28,0.034
61.96,326.561,0.069
62.0,326.736,0.034
62.03,326.982,0.069
62.06,327.228,0.034
62.09,327.403,0.046
62.13,327.579,0.046
62.16,327.684,0.046
62.19,327.859,0.034
62.22,328.0,0.046
62.26,328.07,0.046
62.29,328.14,0.046
62.32,328.246,0.046
62.35,328.281,0.046
62.39,328.351,0.034
62.42,328.386,0.034
62.45,328.421,0.034
62.48,328.526,0.057
62.52,328.596,0.046
62.55,328.456,0.034
62.58,328.491,0.092
62.61,328.491,0.034
62.65,328.351,0.092
62.68,328.386,0.057
62.71,328.175,0.046
62.74,328.175,0.069
62.78,327.965,0.011
62.81,327.859,0.057
62.84,327.614,-0.034
62.87,327.263,0.0
62.91,326.982,-0.023
62.94,326.35,-0.057
62.97,325.824,-0.046
63.0,324.841,-0.137
63.04,323.438,-0.126
63.07,322.104,-0.149
63.1,320.314,-0.195
63.13,318.243,-0.241
63.17,315.857,-0.263
63.2,313.295,-0.252
63.23,310.944,-0.241
63.26,308.768,-0.206
63.3,306.592,-0.218
63.33,304.311,-0.241
63.36,301.854,-0.286
63.39,299.257,-0.298
63.43,296.449,-0.309
63.46,293.466,-0.321
63.49,290.378,-0.332
63.52,287.184,-0.344
63.56,284.026,-0.344
63.59,280.832,-0.344
63.62,277.638,-0.355
63.65,274.445,-0.344
63.69,271.356,-0.321
63.72,268.443,-0.321
63.75,265.53,-0.321
63.78,262.617,-0.321
63.82,259.529,-0.332
63.85,256.406,-0.344
63.88,253.282,-0.344
63.91,250.018,-0.355
63.95,246.754,-0.344
63.98,243.596,-0.344
64.01,240.297,-0.355
64.04,237.033,-0.355
64.08,233.699,-0.367
64.11,230.33,-0.367
64.14,226.996,-0.367
64.17,223.592,-0.355
64.21,220.187,-0.367
64.24,216.713,-0.378
64.27,213.309,-0.378
64.3,209.764,-0.378
64.34,206.184,-0.401
64.37,202.57,-0.401
64.4,198.814,-0.401
64.44,195.164,-0.401
64.47,191.444,-0.412
64.5,187.619,-0.412
64.53,183.829,-0.424
64.57,179.863,-0.424
64.6,175.862,-0.435
64.63,171.756,-0.447
64.66,167.615,-0.458
64.7,163.368,-0.458
64.73,159.122,-0.47
64.76,154.805,-0.47
64.79,150.488,-0.47
64.83,146.031,-0.481
64.86,141.609,-0.481
64.89,137.222,-0.481
64.92,132.765,-0.481
64.96,128.273,-0.493
64.99,123.676,-0.493
65.02,119.113,-0.493
65.05,114.516,-0.493
65.09,110.059,-0.493
65.12,105.496,-0.493
65.15,100.934,-0.493
65.18,96.371,-0.504
65.22,91.774,-0.481
65.25,87.247,-0.493
65.28,82.79,-0.493
65.31,78.262,-0.504
65.35,73.7,-0.493
65.38,69.032,-0.504
65.41,64.505,-0.493
65.44,59.908,-0.504
65.48,55.24,-0.493
65.51,50.642,-0.515
65.54,46.01,-0.493
65.57,41.307,-0.504
65.61,36.674,-0.515
65.64,32.112,-0.493
65.67,27.585,-0.481
65.7,22.987,-0.515
65.74,18.53,-0.47
65.77,13.933,-0.515
65.8,9.546,-0.447
65.83,5.019,-0.527
65.87,0.667,-0.435
65.9,-4.106,-0.596
65.93,-8.142,-0.309
65.96,-12.424,-0.676
66.0,-18.776,-0.642
66.03,-22.075,-0.218
66.06,-26.321,-0.653
66.09,-31.691,-0.527
66.13,-35.973,-0.435
66.16,-40.114,-0.47
66.19,-44.676,-0.504
66.22,-48.817,-0.412
66.26,-52.783,-0.447
66.29,-56.679,-0.412
66.32,-60.574,-0.424
66.35,-64.4,-0.401
66.39,-68.295,-0.424
66.42,-72.121,-0.401
66.45,-75.946,-0.424
66.48,-79.807,-0.412
66.52,-83.632,-0.424
66.55,-87.282,-0.401
66.58,-91.212,-0.424
66.61,-95.003,-0.401
66.65,-98.688,-0.401
66.68,-102.443,-0.401
66.71,-106.128,-0.401
66.74,-109.673,-0.389
66.78,-113.252,-0.401
66.81,-116.937,-0.401
66.84,-120.692,-0.401
66.87,-124.413,-0.401
66.91,-128.098,-0.412
66.94,-131.958,-0.401
66.97,-135.538,-0.389
67.0,-138.661,-0.298
67.04,-141.469,-0.309
67.07,-144.838,-0.435
67.1,-149.33,-0.515
67.13,-153.857,-0.47
67.17,-158.315,-0.493
67.2,-162.245,-0.389
67.23,-165.93,-0.401
67.26,-169.229,-0.321
67.3,-172.704,-0.435
67.33,-175.757,-0.218
67.36,-178.564,-0.435
67.39,-182.811,-0.401
67.43,-185.127,-0.16
67.46,-188.356,-0.481
67.49,-192.006,-0.321
67.53,-195.059,-0.355
67.56,-198.428,-0.389
67.59,-201.552,-0.252
67.62,-204.149,-0.344
67.66,-208.29,-0.493
67.69,-211.238,-0.206
67.72,-213.379,-0.206
67.75,-214.572,-0.08
67.79,-218.398,-0.722
67.82,-224.469,-0.573
67.85,-227.803,-0.241
67.88,-230.154,-0.241
67.92,-232.05,-0.183
67.95,-233.804,-0.183
67.98,-235.77,-0.206
68.01,-237.63,-0.183
68.05,-239.665,-0.241
68.08,-242.332,-0.321
68.11,-245.035,-0.263
68.14,-247.772,-0.309
68.18,-249.597,-0.092
68.21,-252.44,-0.55
68.24,-257.704,-0.515
68.27,-259.319,0.069
68.31,-260.793,-0.321
68.34,-263.214,-0.183
68.37,-264.969,-0.183
68.4,-266.162,-0.08
68.44,-267.917,-0.286
68.47,-270.654,-0.263
68.5,-273.146,-0.298
68.53,-275.954,-0.309
68.57,-278.445,-0.229
68.6,-280.27,-0.172
68.63,-282.166,-0.206
68.66,-284.026,-0.149
68.7,-285.57,-0.16
68.73,-287.184,-0.172
68.76,-288.834,-0.16
68.79,-290.413,-0.149
68.83,-291.922,-0.16
68.86,-293.501,-0.16
68.89,-295.081,-0.16
68.92,-296.695,-0.16
68.96,-298.204,-0.149
68.99,-299.678,-0.137
69.02,-301.047,-0.126
69.05,-302.31,-0.126
69.09,-303.539,-0.115
69.12,-304.697,-0.115
69.15,-305.82,-0.115
69.18,-306.943,-0.115
69.22,-308.136,-0.115
69.25,-309.224,-0.103
69.28,-310.242,-0.103
69.31,-311.189,-0.08
69.35,-312.067,-0.08
69.38,-312.769,-0.057
69.41,-313.506,-0.069
69.44,-314.102,-0.034
69.48,-314.804,-0.092
69.51,-315.12,0.034
69.54,-315.892,-0.149
69.57,-316.945,-0.046
69.61,-317.331,-0.046
69.64,-318.068,-0.08
69.67,-318.594,-0.034
69.7,-319.191,-0.069
69.74,-319.788,-0.034
69.77,-320.314,-0.046
69.8,-320.7,-0.023
69.83,-321.332,-0.069
69.87,-321.893,-0.034
69.9,-322.35,-0.046
69.93,-322.841,-0.034
69.96,-323.332,-0.046
70.0,-323.718,-0.034
70.03,-324.139,-0.023
70.06,-324.525,-0.034
70.09,-324.947,0.0
70.13,-324.771,0.057
70.16,-325.192,-0.103
70.19,-325.789,0.011
70.22,-325.964,-0.023
70.26,-326.245,0.011
70.29,-326.456,0.011
70.32,-326.666,-0.023
70.35,-326.912,0.011
70.39,-327.087,0.011
70.42,-327.228,0.011
70.45,-327.438,0.0
70.48,-327.579,0.011
70.52,-327.719,0.011
70.55,-327.824,0.011
70.58,-327.93,0.011
70.62,-328.0,0.011
70.65,-328.105,0.023
70.68,-328.175,0.011
70.71,-328.21,0.011
70.75,-328.246,0.011
70.78,-328.246,0.011
70.81,-328.281,0.011
70.84,-328.281,0.011
70.88,-328.281,0.0
70.91,-328.246,0.0
70.94,-328.246,0.0
70.97,-328.246,0.011
71.01,-328.14,0.011
71.04,-328.07,0.011
71.07,-327.965,0.023
71.1,-327.824,0.034
71.14,-327.684,0.046
71.17,-327.473,0.046
71.2,-327.193,0.057
71.23,-326.772,0.08
71.27,-326.315,0.08
71.3,-325.719,0.103
71.33,-324.876,0.126
71.36,-323.683,0.195
71.4,-322.139,0.183
71.43,-320.56,0.218
71.46,-318.384,0.298
71.49,-316.032,0.309
71.53,-313.506,0.309
71.56,-311.154,0.286
71.59,-308.908,0.275
71.62,-306.802,0.275
71.66,-304.662,0.286
71.69,-302.24,0.309
71.72,-299.713,0.332
71.75,-296.906,0.355
71.79,-293.958,0.367
71.82,-290.869,0.367
71.85,-287.711,0.378
71.88,-284.622,0.378
71.92,-281.429,0.378
71.95,-278.235,0.389
71.98,-275.041,0.378
72.01,-271.988,0.355
72.05,-269.04,0.355
72.08,-266.162,0.355
72.11,-263.284,0.355
72.14,-260.266,0.389
72.18,-257.108,0.378
72.21,-253.914,0.389
72.24,-250.72,0.389
72.27,-247.491,0.389
72.31,-244.263,0.401
72.34,-240.964,0.401
72.37,-237.7,0.389
72.4,-234.366,0.401
72.44,-231.067,0.401
72.47,-227.698,0.412
72.5,-224.329,0.401
72.53,-220.924,0.401
72.57,-217.485,0.412
72.6,-214.046,0.412
72.63,-210.606,0.424
72.66,-207.027,0.424
72.7,-203.412,0.435
72.73,-199.797,0.435
72.76,-196.077,0.435
72.79,-192.357,0.447
72.83,-188.567,0.458
72.86,-184.636,0.47
72.89,-180.74,0.47
72.92,-176.669,0.47
72.96,-172.598,0.481
72.99,-168.422,0.493
73.02,-164.246,0.504
73.05,-159.964,0.504
73.09,-155.717,0.504
73.12,-151.436,0.504
73.15,-147.084,0.515
73.18,-142.732,0.538
73.22,-138.31,0.538
73.25,-133.783,0.55
73.28,-129.256,0.55
73.31,-124.728,0.538
73.35,-120.166,0.538
73.38,-115.674,0.55
73.41,-111.111,0.55
73.44,-106.549,0.55
73.48,-102.057,0.55
73.51,-97.53,0.55
73.54,-93.002,0.538
73.57,-88.44,0.538
73.61,-83.913,0.538
73.64,-79.456,0.561
73.67,-74.928,0.538
73.71,-70.331,0.561
73.74,-65.768,0.515
73.77,-61.276,0.561
73.8,-56.679,0.538
73.84,-52.116,0.584
73.87,-47.449,0.504
73.9,-42.851,0.607
73.93,-38.008,0.493
73.97,-34.428,0.447
74.0,-28.462,0.871
74.03,-23.865,0.298
74.06,-20.461,0.573
74.1,-15.091,0.642
74.13,-10.423,0.493
74.16,-6.422,0.447
74.19,-2.071,0.596
74.23,2.632,0.504
74.26,6.914,0.538
74.29,11.441,0.55
74.32,16.144,0.561
74.36,20.671,0.538
74.39,25.198,0.561
74.42,29.831,0.538
74.45,34.253,0.538
74.49,38.78,0.538
74.52,43.272,0.538
74.55,47.484,0.481
74.58,51.59,0.481
74.62,55.626,0.47
74.65,59.486,0.458
74.68,63.347,0.458
74.71,67.172,0.458
74.75,71.033,0.458
74.78,74.893,0.458
74.81,78.719,0.458
74.84,82.544,0.458
74.88,86.299,0.435
74.91,89.984,0.447
74.94,93.81,0.458
74.97,97.635,0.447
75.01,101.39,0.458
75.04,105.04,0.424
75.07,108.725,0.447
75.1,112.375,0.424
75.14,116.025,0.458
75.17,119.745,0.447
75.2,123.535,0.47
75.23,127.22,0.435
75.27,131.081,0.47
75.3,134.695,0.401
75.33,138.31,0.447
75.36,140.521,0.137
75.4,143.68,0.642
75.43,148.734,0.493
75.46,152.278,0.447
75.49,157.332,0.664
75.53,161.613,0.389
75.56,165.123,0.447
75.59,168.668,0.412
75.62,172.002,0.389
75.66,175.195,0.389
75.69,178.494,0.389
75.72,181.688,0.389
75.75,184.846,0.378
75.79,187.865,0.378
75.82,191.234,0.412
75.85,194.568,0.389
75.88,197.797,0.389
75.92,201.096,0.412
75.95,204.395,0.389
75.98,207.623,0.389
76.01,210.712,0.378
76.05,213.8,0.355
76.08,215.204,0.034
76.11,216.713,0.389
76.14,222.223,0.825
76.18,227.206,0.401
76.21,229.909,0.309
76.24,232.12,0.229
76.27,233.734,0.206
76.31,235.664,0.252
76.34,237.665,0.241
76.37,239.7,0.229
76.4,241.946,0.321
76.44,244.614,0.332
76.47,247.562,0.389
76.5,249.702,0.16
76.53,251.984,0.424
76.57,256.335,0.538
76.6,258.617,0.092
76.63,260.231,0.309
76.66,262.407,0.229
76.7,264.513,0.298
76.73,266.127,0.126
76.76,267.215,0.195
76.8,269.601,0.355
76.83,272.339,0.321
76.86,275.111,0.367
76.89,277.919,0.321
76.93,279.919,0.195
76.96,281.604,0.229
76.99,283.569,0.252
77.02,285.464,0.218
77.06,287.114,0.206
77.09,288.869,0.218
77.12,290.273,0.16
77.15,291.747,0.218
77.19,293.221,0.16
77.22,294.765,0.229
77.25,296.344,0.16
77.28,297.993,0.252
77.32,299.362,0.115
77.35,301.047,0.309
77.38,301.398,-0.149
77.41,302.17,0.435
77.45,305.434,0.218
77.48,305.293,-0.023
77.51,307.048,0.355
77.54,307.961,0.0
77.58,308.978,0.241
77.61,310.101,0.069
77.64,311.014,0.183
77.67,311.891,0.08
77.71,312.558,0.115
77.74,313.295,0.092
77.77,313.962,0.115
77.8,314.523,0.08
77.84,315.225,0.115
77.87,315.997,0.08
77.9,316.594,0.103
77.93,317.296,0.092
77.97,317.928,0.092
78.0,318.524,0.092
78.03,319.121,0.103
78.06,319.682,0.092
78.1,320.209,0.092
78.13,320.665,0.08
78.16,321.191,0.092
78.19,321.788,0.103
78.23,322.244,0.08
78.26,322.736,0.092
78.29,323.262,0.069
78.32,323.613,0.069
78.36,324.069,0.069
78.39,324.385,0.08
78.42,324.841,0.046
78.45,324.701,0.011
78.49,325.262,0.137
78.52,325.754,0.034
78.55,325.929,0.08
78.58,326.28,0.057
78.62,326.491,0.057
78.65,326.701,0.057
78.68,326.912,0.046
78.71,327.158,0.057
78.75,327.368,0.046
78.78,327.509,0.046
78.81,327.684,0.057
78.84,327.789,0.046
78.88,327.965,0.034
78.91,328.035,0.034
78.94,328.105,0.034
78.97,328.21,0.034
79.01,328.281,0.046
79.04,328.316,0.046
79.07,328.351,0.046
79.1,328.456,0.046
79.14,328.491,0.046
79.17,328.386,0.057
79.2,328.456,0.057
79.23,328.421,0.057
79.27,328.421,0.057
79.3,328.386,0.057
79.33,328.316,0.057
79.36,328.246,0.046
79.4,328.14,0.046
79.43,328.07,0.046
79.46,327.859,0.023
79.49,327.684,0.011
79.53,327.368,-0.023
79.56,327.052,-0.023
79.59,326.561,-0.034
79.62,326.035,-0.057
79.66,325.368,-0.069
79.69,324.21,-0.137
79.72,322.736,-0.149
79.75,321.262,-0.16
79.79,319.402,-0.218
79.82,317.085,-0.252
79.85,314.523,-0.252
79.89,312.137,-0.252
79.92,309.891,-0.218
79.95,307.75,-0.206
79.98,305.539,-0.241
80.02,303.188,-0.252
80.05,300.696,-0.263
80.08,297.958,-0.298
80.11,295.045,-0.332
80.15,291.992,-0.344
80.18,288.763,-0.344
80.21,285.605,-0.344
80.24,282.446,-0.332
80.28,279.218,-0.344
80.31,276.059,-0.344
80.34,272.971,-0.332
80.37,269.987,-0.321
80.41,267.11,-0.309
80.44,264.162,-0.309
80.47,261.143,-0.332
80.5,258.055,-0.344
80.54,254.897,-0.344
80.57,251.703,-0.344
80.6,248.474,-0.355
80.63,245.175,-0.344
80.67,241.911,-0.355
80.7,238.647,-0.367
80.73,235.278,-0.355
80.76,231.979,-0.355
80.8,228.68,-0.367
80.83,225.241,-0.367
80.86,221.907,-0.367
80.89,218.573,-0.367
80.93,215.134,-0.367
80.96,211.624,-0.378
80.99,208.08,-0.389
81.02,204.535,-0.389
81.06,200.955,-0.401
81.09,197.2,-0.401
81.12,193.515,-0.401
81.15,189.725,-0.412
81.19,185.934,-0.424
81.22,181.969,-0.435
81.25,177.968,-0.435
81.28,173.932,-0.435
81.32,169.72,-0.458
81.35,165.579,-0.458
81.38,161.263,-0.458
81.41,157.016,-0.47
81.45,152.699,-0.47
81.48,148.347,-0.47
81.51,143.961,-0.481
81.54,139.539,-0.481
81.58,135.046,-0.493
81.61,130.554,-0.493
81.64,126.027,-0.493
81.67,121.465,-0.504
81.71,116.867,-0.493
81.74,112.305,-0.493
81.77,107.777,-0.481
81.8,103.32,-0.493
81.84,98.688,-0.493
81.87,94.196,-0.493
81.9,89.633,-0.493
81.93,85.036,-0.481
81.97,80.544,-0.493
82.0,75.946,-0.493
82.03,71.419,-0.493
82.06,66.786,-0.504
82.1,62.224,-0.493
82.13,57.591,-0.504
82.16,53.064,-0.493
82.19,48.396,-0.515
82.23,43.799,-0.481
82.26,39.201,-0.527
82.29,34.499,-0.504
82.32,29.901,-0.493
82.36,25.444,-0.493
82.39,20.741,-0.504
82.42,16.319,-0.481
82.45,11.757,-0.493
82.49,7.405,-0.458
82.52,2.773,-0.504
82.55,-1.439,-0.447
82.58,-6.247,-0.584
82.62,-9.967,-0.263
82.65,-14.915,-0.813
82.68,-20.811,-0.424
82.71,-23.83,-0.321
82.75,-28.673,-0.653
82.78,-33.762,-0.481
82.81,-37.868,-0.435
82.85,-42.149,-0.493
82.88,-46.606,-0.47
82.91,-50.713,-0.435
82.94,-54.643,-0.435
82.98,-58.504,-0.412
83.01,-62.434,-0.424
83.04,-66.295,-0.412
83.07,-70.19,-0.424
83.11,-73.981,-0.401
83.14,-77.701,-0.412
83.17,-81.561,-0.424
83.2,-85.387,-0.412
83.24,-89.247,-0.424
83.27,-93.037,-0.401
83.3,-96.722,-0.401
83.33,-100.407,-0.401
83.37,-104.128,-0.389
83.4,-107.742,-0.389
83.43,-111.357,-0.389
83.46,-114.972,-0.401
83.5,-118.587,-0.389
83.53,-122.342,-0.412
83.56,-126.027,-0.412
83.59,-129.887,-0.424
83.63,-133.572,-0.389
83.66,-137.117,-0.367
83.69,-139.995,-0.286
83.72,-143.013,-0.367
83.76,-147.049,-0.481
83.79,-151.541,-0.493
83.82,-155.893,-0.47
83.85,-160.104,-0.447
83.89,-163.895,-0.389
83.92,-167.58,-0.401
83.95,-170.879,-0.332
83.98,-174.423,-0.401
84.02,-176.985,-0.183
84.05,-180.319,-0.527
84.08,-184.25,-0.286
84.11,-186.531,-0.263
84.15,-190.251,-0.493
84.18,-193.726,-0.286
84.21,-196.814,-0.401
84.24,-199.937,-0.252
84.28,-202.464,-0.332
84.31,-206.5,-0.481
84.34,-209.448,-0.206
84.37,-212.326,-0.401
84.41,-214.362,0.011
84.44,-215.695,-0.332
84.47,-221.381,-0.79
84.5,-226.224,-0.332
84.54,-228.751,-0.241
84.57,-231.102,-0.241
84.6,-233.067,-0.172
84.63,-234.927,-0.195
84.67,-236.752,-0.172
84.7,-238.542,-0.195
84.73,-240.753,-0.286
84.76,-243.561,-0.298
84.8,-246.298,-0.309
84.83,-248.72,-0.195
84.86,-250.439,-0.206
84.89,-255.177,-0.733
84.93,-258.757,-0.08
84.96,-259.669,-0.172
84.99,-262.091,-0.263
85.02,-264.127,-0.183
85.06,-265.671,-0.115
85.09,-266.829,-0.149
85.12,-269.321,-0.321
85.15,-271.883,-0.229
85.19,-274.374,-0.309
85.22,-277.217,-0.263
85.25,-279.253,-0.206
85.28,-281.183,-0.195
85.32,-283.218,-0.206
85.35,-284.868,-0.149
85.38,-286.482,-0.16
85.41,-288.097,-0.16
85.45,-289.676,-0.16
85.48,-291.15,-0.149
85.51,-292.799,-0.172
85.54,-294.344,-0.16
85.58,-295.888,-0.16
85.61,-297.432,-0.149
85.64,-298.906,-0.137
85.67,-300.204,-0.137
85.71,-301.538,-0.126
85.74,-302.802,-0.115
85.77,-303.995,-0.115
85.8,-305.083,-0.115
85.84,-306.241,-0.103
85.87,-307.399,-0.115
85.9,-308.592,-0.115
85.94,-309.68,-0.103
85.97,-310.698,-0.092
86.0,-311.47,-0.069
86.03,-312.312,-0.08
86.07,-313.049,-0.057
86.1,-313.786,-0.069
86.13,-314.383,-0.046
86.16,-315.12,-0.092
86.2,-315.436,0.034
86.23,-316.208,-0.149
86.26,-317.261,-0.046
86.29,-317.647,-0.046
86.33,-318.419,-0.069
86.36,-318.91,-0.034
86.39,-319.507,-0.069
86.42,-320.033,-0.034
86.46,-320.525,-0.046
86.49,-320.981,-0.046
86.52,-321.648,-0.046
86.55,-322.069,-0.034
86.59,-322.63,-0.034
86.62,-323.016,-0.034
86.65,-323.543,-0.034
86.68,-323.929,-0.034
86.72,-324.315,-0.034
86.75,-324.806,-0.046
86.78,-324.947,0.057
86.81,-324.876,-0.023
86.85,-325.543,-0.069
86.88,-325.894,0.034
86.91,-326.14,-0.034
86.94,-326.315,0.011
86.98,-326.561,-0.023
87.01,-326.842,0.0
87.04,-327.052,-0.023
87.07,-327.193,0.011
87.11,-327.403,0.011
87.14,-327.544,0.0
87.17,-327.684,0.011
87.2,-327.824,0.011
87.24,-327.93,0.011
87.27,-328.0,0.011
87.3,-328.07,0.011
87.33,-328.14,0.011
87.37,-328.175,0.011
87.4,-328.21,0.011
87.43,-328.246,0.011
87.46,-328.281,0.011
87.5,-328.281,0.0
87.53,-328.281,0.011
87.56,-328.281,0.0
87.59,-328.281,0.0
87.63,-328.21,0.011
87.66,-328.21,0.011
87.69,-328.14,0.011
87.72,-328.035,0.011
87.76,-327.93,0.023
87.79,-327.789,0.034
87.82,-327.579,0.046
87.85,-327.333,0.057
87.89,-327.017,0.069
87.92,-326.526,0.08
87.95,-325.999,0.092
87.98,-325.333,0.103
88.02,-324.42,0.149
88.05,-323.016,0.206
88.08,-321.472,0.183
88.11,-319.612,0.275
88.15,-317.366,0.286
88.18,-314.909,0.298
88.21,-312.488,0.298
88.24,-310.207,0.275
88.28,-307.996,0.252
88.31,-305.82,0.275
88.34,-303.539,0.286
88.37,-301.117,0.321
88.41,-298.45,0.344
88.44,-295.537,0.367
88.47,-292.519,0.367
88.5,-289.36,0.389
88.54,-286.201,0.378
88.57,-283.078,0.378
88.6,-279.919,0.378
88.63,-276.691,0.389
88.67,-273.532,0.378
88.7,-270.549,0.355
88.73,-267.636,0.344
88.76,-264.864,0.344
88.8,-261.986,0.367
88.83,-258.757,0.389
88.86,-255.598,0.389
88.89,-252.405,0.389
88.93,-249.141,0.389
88.96,-245.947,0.389
88.99,-242.683,0.401
89.03,-239.384,0.389
89.06,-236.05,0.401
89.09,-232.716,0.401
89.12,-229.382,0.401
89.16,-225.978,0.412
89.19,-222.574,0.412
89.22,-219.135,0.412
89.25,-215.625,0.424
89.29,-212.186,0.412
89.32,-208.711,0.412
89.35,-205.202,0.424
89.38,-201.657,0.424
89.42,-197.972,0.447
89.45,-194.252,0.447
89.48,-190.532,0.447
89.51,-186.671,0.458
89.55,-182.811,0.47
89.58,-178.845,0.47
89.61,-174.739,0.493
89.64,-170.633,0.504
89.68,-166.422,0.493
89.71,-162.21,0.504
89.74,-157.893,0.504
89.77,-153.682,0.504
89.81,-149.33,0.515
89.84,-144.978,0.538
89.87,-140.556,0.515
89.9,-136.064,0.55
89.94,-131.572,0.538
89.97,-127.01,0.538
90.0,-122.482,0.55
90.03,-117.99,0.55
90.07,-113.428,0.55
90.1,-108.865,0.538
90.13,-104.373,0.55
90.16,-99.811,0.538
90.2,-95.248,0.55
90.23,-90.686,0.55
90.26,-86.229,0.55
90.29,-81.667,0.538
90.33,-77.104,0.561
90.36,-72.612,0.538
90.39,-67.979,0.573
90.42,-63.452,0.515
90.46,-58.82,0.573
90.49,-54.327,0.515
90.52,-49.59,0.596
90.55,-45.203,0.493
90.59,-40.219,0.653
90.62,-36.288,0.321
90.65,-31.621,0.802
90.68,-25.584,0.55
90.72,-22.461,0.344
90.75,-17.758,0.699
90.78,-12.494,0.561
90.81,-8.353,0.447
90.85,-4.247,0.538
90.88,0.491,0.573
90.91,4.878,0.504
90.94,9.265,0.561
90.98,13.933,0.561
91.01,18.53,0.55
91.04,23.022,0.538
91.07,27.585,0.55
91.11,32.112,0.538
91.14,36.464,0.55
91.17,41.061,0.55
91.2,45.448,0.504
91.24,49.554,0.481
91.27,53.625,0.481
91.3,57.556,0.458
91.33,61.417,0.458
91.37,65.242,0.458
91.4,69.173,0.458
91.43,72.928,0.447
91.46,76.718,0.458
91.5,80.579,0.458
91.53,84.439,0.47
91.56,88.264,0.458
91.59,92.055,0.458
91.63,95.81,0.447
91.66,99.565,0.458
91.69,103.285,0.435
91.72,106.9,0.435
91.76,110.48,0.435
91.79,114.095,0.447
91.82,117.815,0.435
91.85,121.5,0.458
91.89,125.29,0.435
91.92,129.115,0.481
91.95,132.906,0.435
91.98,136.591,0.47
92.02,139.749,0.275
92.05,141.785,0.321
92.08,146.593,0.71
92.12,150.664,0.321
92.15,154.735,0.653
92.18,159.578,0.481
92.21,163.193,0.424
92.25,166.913,0.458
92.28,170.422,0.412
92.31,173.686,0.378
92.34,176.95,0.401
92.38,180.144,0.389
92.41,183.302,0.401
92.44,186.461,0.367
92.47,189.655,0.412
92.51,192.989,0.401
92.54,196.252,0.389
92.57,199.446,0.401
92.6,202.71,0.401
92.64,206.009,0.389
92.67,209.132,0.367
92.7,212.291,0.401
92.73,214.853,0.195
92.77,215.555,0.092
92.8,219.24,0.745
92.83,225.206,0.607
92.86,228.61,0.298
92.9,231.067,0.298
92.93,233.102,0.206
92.96,234.857,0.229
92.99,236.787,0.252
93.03,238.718,0.229
93.06,240.753,0.286
93.09,243.21,0.321
93.12,246.053,0.378
93.16,248.825,0.298
93.19,250.58,0.195
93.22,254.124,0.619
93.25,257.845,0.275
93.29,259.354,0.183
93.32,261.494,0.298
93.35,263.53,0.241
93.38,265.565,0.229
93.42,266.724,0.103
93.45,268.478,0.332
93.48,271.251,0.332
93.51,273.778,0.321
93.55,276.55,0.355
93.58,279.077,0.275
93.61,281.042,0.241
93.64,283.043,0.252
93.68,284.903,0.206
93.71,286.412,0.183
93.74,288.062,0.218
93.77,289.606,0.183
93.81,291.08,0.218
93.84,292.554,0.183
93.87,294.098,0.229
93.9,295.677,0.172
93.94,297.256,0.229
93.97,298.73,0.137
94.0,300.275,0.286
94.03,301.222,-0.046
94.07,301.573,0.229
94.1,304.591,0.389
94.13,305.153,-0.092
94.16,306.311,0.332
94.2,307.61,0.034
94.23,308.452,0.206
94.26,309.715,0.115
94.29,310.558,0.16
94.33,311.575,0.103
94.36,312.277,0.126
94.39,313.084,0.103
94.42,313.716,0.103
94.46,314.383,0.092
94.49,315.085,0.126
94.52,315.787,0.092
94.55,316.383,0.103
94.59,317.015,0.08
94.62,317.647,0.103
94.65,318.243,0.092
94.68,318.875,0.103
94.72,319.437,0.092
94.75,319.963,0.08
94.78,320.384,0.08
94.81,320.981,0.103
94.85,321.507,0.08
94.88,321.999,0.092
94.91,322.49,0.08
94.94,322.946,0.08
94.98,323.402,0.057
95.01,323.824,0.08
95.04,324.245,0.057
95.07,324.666,0.092
95.11,324.736,-0.023
95.14,324.841,0.092
95.17,325.543,0.092
95.21,325.789,0.034
95.24,326.105,0.08
95.27,326.421,0.057
95.3,326.631,0.046
95.34,326.772,0.057
95.37,327.158,0.057
95.4,327.263,0.034
95.43,327.544,0.08
95.47,327.614,0.023
95.5,327.789,0.08
95.53,327.93,0.023
95.56,328.0,0.057
95.6,328.14,0.023
95.63,328.14,0.046
95.66,328.316,0.046
95.69,328.316,0.034
95.73,328.421,0.057
95.76,328.386,0.034
95.79,328.421,0.057
95.82,328.491,0.034
95.86,328.456,0.057
95.89,328.456,0.057
95.92,328.421,0.069
95.95,328.421,0.057
95.99,328.316,0.057
96.02,328.316,0.057
96.05,328.175,0.046
96.08,328.07,0.046
96.12,327.965,0.023
96.15,327.789,0.023
96.18,327.579,0.0
96.21,327.228,-0.034
96.25,326.807,-0.023
96.28,326.315,-0.057
96.31,325.613,-0.057
96.34,324.736,-0.103
96.38,323.332,-0.149
96.41,321.964,-0.137
96.44,320.349,-0.195
96.47,318.138,-0.241
96.51,315.717,-0.252
96.54,313.295,-0.252
96.57,310.979,-0.229
96.6,308.768,-0.206
96.64,306.627,-0.218
96.67,304.24,-0.241
96.7,301.854,-0.263
96.73,299.187,-0.298
96.77,296.344,-0.321
96.8,293.326,-0.332
96.83,290.237,-0.344
96.86,287.044,-0.344
96.9,283.85,-0.332
96.93,280.727,-0.344
96.96,277.428,-0.367
96.99,274.269,-0.332
97.03,271.251,-0.309
97.06,268.338,-0.309
97.09,265.39,-0.309
97.12,262.407,-0.321
97.16,259.283,-0.332
97.19,256.195,-0.344
97.22,253.072,-0.344
97.25,249.878,-0.344
97.29,246.649,-0.344
97.32,243.456,-0.344
97.35,240.192,-0.355
97.38,236.858,-0.355
97.42,233.594,-0.355
97.45,230.295,-0.355
97.48,226.926,-0.367
97.51,223.521,-0.367
97.55,220.187,-0.367
97.58,216.713,-0.378
97.61,213.309,-0.367
97.64,209.729,-0.378
97.68,206.149,-0.389
97.71,202.57,-0.378
97.74,198.885,-0.401
97.77,195.2,-0.401
97.81,191.409,-0.424
97.84,187.619,-0.412
97.87,183.759,-0.424
97.9,179.793,-0.435
97.94,175.792,-0.435
97.97,171.651,-0.447
98.0,167.509,-0.458
98.03,163.228,-0.447
98.07,159.016,-0.458
98.1,154.735,-0.458
98.13,150.453,-0.47
98.17,146.101,-0.481
98.2,141.679,-0.481
98.23,137.257,-0.481
98.26,132.73,-0.493
98.3,128.168,-0.493
98.33,123.605,-0.493
98.36,119.043,-0.493
98.39,114.481,-0.504
98.43,109.953,-0.493
98.46,105.356,-0.493
98.49,100.829,-0.493
98.52,96.301,-0.493
98.56,91.704,-0.493
98.59,87.177,-0.493
98.62,82.684,-0.493
98.65,78.122,-0.493
98.69,73.524,-0.493
98.72,68.927,-0.493
98.75,64.4,-0.493
98.78,59.802,-0.504
98.82,55.205,-0.493
98.85,50.607,-0.515
98.88,45.94,-0.493
98.91,41.342,-0.515
98.95,36.604,-0.515
98.98,32.042,-0.504
99.01,27.515,-0.481
99.04,22.847,-0.527
99.08,18.285,-0.47
99.11,13.828,-0.515
99.14,9.37,-0.458
99.17,4.878,-0.515
99.21,0.491,-0.435
99.24,-4.071,-0.596
99.27,-8.458,-0.344
99.3,-12.213,-0.561
99.34,-18.636,-0.733
99.37,-22.461,-0.183
99.4,-26.146,-0.607
99.43,-31.551,-0.561
99.47,-36.043,-0.435
99.5,-40.114,-0.447
99.53,-44.571,-0.493
99.56,-48.712,-0.412
99.6,-52.748,-0.447
99.63,-56.644,-0.401
99.66,-60.469,-0.435
99.69,-64.365,-0.412
99.73,-68.26,-0.435
99.76,-72.156,-0.412
99.79,-75.981,-0.412
99.82,-79.807,-0.412
99.86,-83.667,-0.424
99.89,-87.387,-0.401
99.92,-91.212,-0.401
99.95,-94.968,-0.401
99.99,-98.653,-0.401
100.02,-102.338,-0.401
100.05,-105.988,-0.401
100.08,-109.637,-0.378
100.12,-113.217,-0.401
100.15,-116.867,-0.401
100.18,-120.587,-0.412
100.21,-124.307,-0.401
100.25,-128.062,-0.412
100.28,-131.923,-0.412
100.31,-135.538,-0.389
100.34,-138.696,-0.309
100.38,-141.469,-0.298
100.41,-144.873,-0.435
100.44,-149.26,-0.515
100.47,-153.787,-0.481
100.51,-158.209,-0.481
100.54,-162.21,-0.401
100.57,-165.825,-0.389
100.6,-169.159,-0.332
100.64,-172.493,-0.401
100.67,-175.827,-0.286
100.7,-178.389,-0.332
100.73,-182.6,-0.504
100.77,-185.268,-0.115
100.8,-188.145,-0.481
100.83,-192.006,-0.321
100.86,-195.024,-0.378
100.9,-198.253,-0.298
100.93,-200.99,-0.332
100.96,-205.026,-0.481
100.99,-208.044,-0.195
101.03,-210.922,-0.447
101.06,-213.905,-0.16
101.09,-214.572,-0.046
101.12,-218.503,-0.733
101.16,-224.434,-0.55
101.19,-227.663,-0.229
101.22,-230.084,-0.263
101.26,-231.979,-0.149
101.29,-233.734,-0.195
101.32,-235.594,-0.195
101.35,-237.489,-0.206
101.39,-239.595,-0.229
101.42,-242.157,-0.309
101.45,-244.894,-0.263
101.48,-247.632,-0.309
101.52,-249.387,-0.08
101.55,-252.264,-0.584
101.58,-257.529,-0.493
101.61,-259.108,0.046
101.65,-260.687,-0.332
101.68,-263.109,-0.172
101.71,-264.969,-0.195
101.74,-266.127,-0.069
101.78,-267.812,-0.263
101.81,-270.514,-0.263
101.84,-273.041,-0.286
101.87,-275.883,-0.321
101.91,-278.41,-0.229
101.94,-280.27,-0.172
101.97,-282.166,-0.218
102.0,-283.99,-0.172
102.04,-285.64,-0.16
102.07,-287.219,-0.172
102.1,-288.939,-0.172
102.13,-290.448,-0.149
102.17,-291.992,-0.16
102.2,-293.571,-0.16
102.23,-295.151,-0.16
102.26,-296.765,-0.16
102.3,-298.274,-0.16
102.33,-299.678,-0.137
102.36,-301.047,-0.126
102.39,-302.31,-0.126
102.43,-303.539,-0.126
102.46,-304.732,-0.115
102.49,-305.89,-0.115
102.52,-307.013,-0.115
102.56,-308.206,-0.115
102.59,-309.259,-0.103
102.62,-310.312,-0.103
102.65,-311.224,-0.08
102.69,-312.067,-0.08
102.72,-312.804,-0.057
102.75,-313.435,-0.069
102.78,-314.102,-0.046
102.82,-314.734,-0.092
102.85,-315.366,0.011
102.88,-315.646,-0.057
102.91,-316.875,-0.137
102.95,-317.366,0.023
102.98,-317.928,-0.092
103.01,-318.594,-0.023
103.04,-319.051,-0.069
103.08,-319.717,-0.046
103.11,-320.174,-0.034
103.14,-320.665,-0.034
103.17,-321.297,-0.057
103.21,-321.718,-0.034
103.24,-322.209,-0.034
103.27,-322.736,-0.034
103.3,-323.227,-0.046
103.34,-323.718,-0.034
103.37,-324.069,-0.034
103.4,-324.49,-0.034
103.43,-324.876,0.0
103.47,-324.701,0.057
103.5,-325.192,-0.103
103.53,-325.754,0.011
103.56,-325.929,-0.023
103.6,-326.245,0.0
103.63,-326.456,0.0
103.66,-326.736,0.0
103.69,-326.912,0.011
103.73,-327.122,0.0
103.76,-327.263,0.011
103.79,-327.473,0.0
103.82,-327.649,0.011
103.86,-327.754,0.011
103.89,-327.859,0.011
103.92,-327.965,0.011
103.95,-328.035,0.011
103.99,-328.105,0.023
104.02,-328.175,0.011
104.05,-328.21,0.011
104.08,-328.246,0.011
104.12,-328.316,0.0
104.15,-328.316,0.0
104.18,-328.316,0.0
104.21,-328.316,0.0
104.25,-328.316,0.0
104.28,-328.246,0.0
104.31,-328.21,0.0
104.35,-328.175,0.0
104.38,-328.105,0.011
104.41,-328.0,0.011
104.44,-327.859,0.023
104.48,-327.719,0.034
104.51,-327.509,0.057
104.54,-327.228,0.057
104.57,-326.772,0.069
104.61,-326.28,0.092
104.64,-325.684,0.103
104.67,-324.876,0.115
104.7,-323.683,0.183
104.74,-322.244,0.183
104.77,-320.63,0.218
104.8,-318.489,0.298
104.83,-316.068,0.309
104.87,-313.506,0.309
104.9,-311.154,0.286
104.93,-309.013,0.241
104.96,-306.943,0.252
105.0,-304.767,0.286
105.03,-302.38,0.298
105.06,-299.854,0.332
105.09,-296.976,0.355
105.13,-294.028,0.367
105.16,-290.904,0.378
105.19,-287.746,0.389
105.22,-284.622,0.378
105.26,-281.429,0.378
105.29,-278.27,0.378
105.32,-275.076,0.378
105.35,-272.058,0.355
105.39,-269.11,0.355
105.42,-266.232,0.355
105.45,-263.354,0.367
105.48,-260.266,0.378
105.52,-257.108,0.389
105.55,-253.914,0.389
105.58,-250.685,0.401
105.61,-247.491,0.389
105.65,-244.228,0.401
105.68,-240.929,0.401
105.71,-237.7,0.389
105.74,-234.366,0.401
105.78,-231.032,0.412
105.81,-227.698,0.412
105.84,-224.294,0.401
105.87,-220.959,0.401
105.91,-217.555,0.412
105.94,-214.116,0.412
105.97,-210.571,0.424
106.0,-207.027,0.424
106.04,-203.482,0.435
106.07,-199.832,0.435
106.1,-196.147,0.447
106.13,-192.392,0.458
106.17,-188.602,0.447
106.2,-184.671,0.458
106.23,-180.705,0.47
106.26,-176.669,0.481
106.3,-172.598,0.493
106.33,-168.352,0.493
106.36,-164.211,0.493
106.39,-159.894,0.504
106.43,-155.717,0.504
106.46,-151.331,0.504
106.49,-147.014,0.504
106.52,-142.662,0.515
106.56,-138.205,0.515
106.59,-133.748,0.538
106.62,-129.221,0.55
106.65,-124.693,0.55
106.69,-120.166,0.538
106.72,-115.639,0.55
106.75,-111.076,0.55
106.78,-106.549,0.55
106.82,-101.987,0.538
106.85,-97.459,0.55
106.88,-92.897,0.538
106.91,-88.37,0.55
106.95,-83.842,0.538
106.98,-79.42,0.55
107.01,-74.858,0.538
107.04,-70.261,0.561
107.08,-65.628,0.538
107.11,-61.136,0.573
107.14,-56.503,0.515
107.17,-51.906,0.584
107.21,-47.343,0.504
107.24,-42.676,0.619
107.27,-37.903,0.458
107.3,-34.323,0.47
107.34,-28.252,0.859
107.37,-23.83,0.275
107.4,-20.355,0.584
107.44,-14.88,0.642
107.47,-10.213,0.493
107.5,-6.282,0.47
107.53,-1.825,0.596
107.57,2.773,0.504
107.6,7.159,0.538
107.63,11.722,0.561
107.66,16.319,0.561
107.7,20.987,0.55
107.73,25.479,0.561
107.76,30.006,0.538
107.79,34.464,0.538
107.83,38.956,0.538
107.86,43.448,0.538
107.89,47.624,0.481
107.92,51.695,0.493
107.96,55.696,0.47
107.99,59.627,0.47
108.02,63.487,0.458
108.05,67.278,0.458
108.09,71.138,0.447
108.12,74.928,0.458
108.15,78.719,0.47
108.18,82.614,0.447
108.22,86.44,0.447
108.25,90.195,0.447
108.28,93.985,0.47
108.31,97.81,0.458
108.35,101.566,0.447
108.38,105.18,0.424
108.41,108.795,0.447
108.44,112.34,0.435
108.48,116.095,0.447
108.51,119.78,0.435
108.54,123.535,0.47
108.57,127.29,0.435
108.61,131.186,0.481
108.64,134.836,0.424
108.67,138.451,0.424
108.7,140.627,0.149
108.74,143.925,0.642
108.77,148.874,0.47
108.8,152.489,0.47
108.83,157.507,0.653
108.87,161.754,0.389
108.9,165.298,0.447
108.93,168.738,0.401
108.96,172.072,0.401
109.0,175.371,0.401
109.03,178.67,0.389
109.06,181.863,0.389
109.09,184.987,0.378
109.13,188.04,0.389
109.16,191.339,0.412
109.19,194.708,0.389
109.22,197.937,0.401
109.26,201.271,0.412
109.29,204.57,0.389
109.32,207.799,0.389
109.35,210.852,0.378
109.39,213.94,0.367
109.42,215.344,0.034
109.45,216.853,0.401
109.48,222.469,0.825
109.52,227.382,0.389
109.55,229.979,0.309
109.58,232.26,0.218
109.61,233.945,0.206
109.65,235.805,0.241
109.68,237.77,0.229
109.71,239.595,0.241
109.74,241.876,0.321
109.78,244.508,0.332
109.81,247.456,0.401
109.84,249.702,0.149
109.87,251.843,0.424
109.91,256.3,0.573
109.94,258.722,0.115
109.97,260.477,0.321
110.0,262.793,0.241
110.04,264.864,0.286
110.07,266.373,0.126
110.1,267.496,0.218
110.13,270.023,0.367
110.17,272.69,0.298
110.2,275.252,0.344
110.23,277.919,0.309
110.26,280.025,0.218
110.3,281.955,0.252
110.33,283.885,0.241
110.36,285.535,0.183
110.39,287.114,0.206
110.43,288.693,0.195
110.46,290.202,0.195
110.49,291.747,0.183
110.53,293.291,0.206
110.56,294.835,0.183
110.59,296.379,0.218
110.62,297.888,0.172
110.66,299.538,0.229
110.69,300.485,0.034
110.72,301.152,0.206
110.75,303.574,0.332
110.79,304.732,0.046
110.82,305.82,0.229
110.85,307.048,0.103
110.88,308.066,0.172
110.92,309.259,0.137
110.95,310.277,0.149
110.98,311.4,0.137
111.01,312.102,0.103
111.05,312.804,0.103
111.08,313.506,0.103
111.11,314.032,0.092
111.14,314.699,0.103
111.18,315.366,0.092
111.21,315.962,0.103
111.24,316.594,0.103
111.27,317.296,0.092
111.31,317.857,0.092
111.34,318.489,0.092
111.37,319.016,0.092
111.4,319.612,0.092
111.44,320.103,0.08
111.47,320.525,0.08
111.5,321.121,0.103
111.53,321.683,0.08
111.57,322.174,0.08
111.6,322.63,0.08
111.63,323.087,0.08
111.66,323.578,0.08
111.7,323.964,0.069
111.73,324.385,0.092
111.76,324.771,0.046
111.79,324.596,0.011
111.83,325.157,0.137
111.86,325.684,0.023
111.89,325.859,0.069
111.92,326.21,0.046
111.96,326.385,0.057
111.99,326.631,0.057
112.02,326.877,0.057
112.05,327.087,0.046
112.09,327.298,0.046
112.12,327.509,0.057
112.15,327.649,0.046
112.18,327.824,0.046
112.22,327.93,0.046
112.25,328.035,0.046
112.28,328.14,0.034
112.31,328.175,0.034
112.35,328.246,0.034
112.38,328.316,0.034
112.41,328.456,0.046
112.44,328.386,0.046
112.48,328.456,0.046
112.51,328.421,0.046
112.54,328.491,0.057
112.57,328.456,0.046
112.61,328.386,0.057
112.64,328.351,0.057
112.67,328.316,0.057
112.7,328.21,0.046
112.74,328.105,0.046
112.77,328.0,0.034
112.8,327.859,0.023
112.83,327.649,0.0
112.87,327.403,-0.023
112.9,327.017,-0.023
112.93,326.526,-0.023
112.96,325.964,-0.057
113.0,325.262,-0.069
113.03,324.139,-0.137
113.06,322.665,-0.137
113.09,321.156,-0.16
113.13,319.226,-0.218
113.16,316.945,-0.241
113.19,314.523,-0.252
113.22,312.137,-0.241
113.26,309.856,-0.218
113.29,307.715,-0.218
113.32,305.469,-0.241
113.35,303.082,-0.252
113.39,300.555,-0.286
113.42,297.853,-0.309
113.45,294.94,-0.332
113.48,291.817,-0.332
113.52,288.658,-0.344
113.55,285.5,-0.344
113.58,282.341,-0.332
113.62,279.147,-0.344
113.65,275.883,-0.344
113.68,272.795,-0.321
113.71,269.847,-0.321
113.75,266.899,-0.309
113.78,263.951,-0.321
113.81,260.898,-0.332
113.84,257.845,-0.332
113.88,254.721,-0.344
113.91,251.562,-0.355
113.94,248.334,-0.355
113.97,245.07,-0.344
114.01,241.876,-0.344
114.04,238.612,-0.355
114.07,235.278,-0.367
114.1,231.944,-0.367
114.14,228.575,-0.367
114.17,225.241,-0.367
114.2,221.872,-0.355
114.23,218.468,-0.367
114.27,215.028,-0.367
114.3,211.519,-0.367
114.33,208.009,-0.389
114.36,204.43,-0.389
114.4,200.78,-0.401
114.43,197.095,-0.401
114.46,193.41,-0.401
114.49,189.619,-0.412
114.53,185.794,-0.424
114.56,181.898,-0.435
114.59,177.863,-0.435
114.62,173.827,-0.435
114.66,169.685,-0.458
114.69,165.509,-0.458
114.72,161.227,-0.47
114.75,156.841,-0.481
114.79,152.419,-0.481
114.82,148.067,-0.47
114.85,143.75,-0.47
114.88,139.398,-0.47
114.92,134.976,-0.493
114.95,130.449,-0.504
114.98,125.957,-0.493
115.01,121.324,-0.493
115.05,116.832,-0.493
115.08,112.27,-0.493
115.11,107.777,-0.493
115.14,103.215,-0.493
115.18,98.618,-0.504
115.21,93.985,-0.493
115.24,89.493,-0.493
115.27,84.966,-0.493
115.31,80.438,-0.493
115.34,75.911,-0.493
115.37,71.419,-0.493
115.4,66.786,-0.504
115.44,62.224,-0.481
115.47,57.661,-0.504
115.5,53.099,-0.493
115.53,48.431,-0.515
115.57,43.869,-0.481
115.6,39.166,-0.55
115.63,34.428,-0.493
115.66,29.901,-0.504
115.7,25.339,-0.481
115.73,20.706,-0.527
115.76,16.214,-0.458
115.79,11.722,-0.527
115.83,7.335,-0.435
115.86,2.702,-0.584
115.89,-1.369,-0.298
115.92,-5.37,-0.653
115.96,-11.792,-0.664
115.99,-15.266,-0.206
116.02,-19.408,-0.653
116.05,-24.953,-0.561
116.09,-29.375,-0.435
116.12,-33.34,-0.435
116.15,-37.903,-0.55
116.18,-42.5,-0.458
116.22,-46.712,-0.447
116.25,-50.818,-0.435
116.28,-54.854,-0.447
116.31,-58.714,-0.412
116.35,-62.645,-0.435
116.38,-66.505,-0.424
116.41,-70.331,-0.412
116.44,-74.016,-0.389
116.48,-77.736,-0.412
116.51,-81.667,-0.424
116.54,-85.492,-0.435
