Trigger_Date,2023/07/31
Trigger_Time,T 23:56:45.988 PDT
Samples_Per_Cycle,512
Microseconds_Per_Sample,32.532
Time (ms),Voltage (V),Current (A)
-16.66,12.178,0.218
-16.62,16.53,0.538
-16.59,20.847,0.905
-16.56,24.883,1.34
-16.53,28.954,1.867
-16.49,33.165,2.303
-16.46,37.482,2.715
-16.43,42.009,2.99
-16.4,46.466,3.15
-16.36,50.818,3.311
-16.33,55.064,3.46
-16.3,59.171,3.54
-16.27,63.031,3.7
-16.23,66.962,3.849
-16.2,70.717,4.009
-16.17,74.261,4.147
-16.14,77.806,4.353
-16.1,81.456,4.548
-16.07,85.246,4.731
-16.04,89.072,4.869
-16.01,92.757,4.983
-15.97,96.371,5.178
-15.94,99.986,5.373
-15.91,103.601,5.59
-15.88,107.181,5.785
-15.84,110.831,5.934
-15.81,114.481,6.129
-15.78,118.06,6.278
-15.75,121.745,6.541
-15.71,125.5,6.701
-15.68,129.256,6.999
-15.65,132.941,7.068
-15.62,136.169,7.343
-15.58,140.907,7.652
-15.55,144.382,7.515
-15.52,148.383,7.973
-15.49,152.769,7.996
-15.45,156.384,8.237
-15.42,160.35,8.408
-15.39,164.07,8.592
-15.36,167.825,8.741
-15.32,171.475,8.89
-15.29,175.09,9.027
-15.26,178.705,9.187
-15.23,182.179,9.348
-15.19,185.724,9.542
-15.16,189.233,9.691
-15.13,192.532,9.852
-15.09,195.901,10.001
-15.06,199.306,10.127
-15.03,202.57,10.241
-15.0,205.728,10.425
-14.96,208.922,10.619
-14.93,212.08,10.768
-14.9,215.134,10.94
-14.87,218.187,11.089
-14.83,221.135,11.204
-14.8,224.118,11.364
-14.77,226.996,11.524
-14.74,229.803,11.685
-14.7,232.541,11.834
-14.67,235.243,11.983
-14.64,237.735,12.143
-14.61,240.227,12.246
-14.57,242.754,12.338
-14.54,245.351,12.464
-14.51,248.228,12.624
-14.48,251.176,12.807
-14.44,253.984,12.979
-14.41,256.546,13.105
-14.38,259.003,13.277
-14.35,261.459,13.357
-14.31,263.6,13.426
-14.28,265.846,13.552
-14.25,268.057,13.644
-14.22,270.303,13.781
-14.18,272.549,13.918
-14.15,274.866,14.056
-14.12,277.112,14.171
-14.09,279.288,14.285
-14.05,281.358,14.365
-14.02,283.429,14.434
-13.99,285.464,14.537
-13.96,287.5,14.686
-13.92,289.5,14.789
-13.89,291.396,14.927
-13.86,293.361,15.041
-13.83,295.361,15.11
-13.79,297.151,15.156
-13.76,298.976,15.27
-13.73,300.696,15.305
-13.7,302.31,15.431
-13.66,303.819,15.465
-13.63,305.258,15.66
-13.6,306.416,15.522
-13.57,307.083,15.706
-13.53,309.61,15.866
-13.5,310.522,15.625
-13.47,311.891,15.992
-13.44,313.19,15.843
-13.4,314.207,16.049
-13.37,315.471,16.015
-13.34,316.454,16.129
-13.31,317.577,16.141
-13.27,318.384,16.187
-13.24,319.156,16.233
-13.21,319.858,16.278
-13.18,320.525,16.267
-13.14,321.156,16.324
-13.11,321.858,16.313
-13.08,322.42,16.359
-13.05,323.016,16.416
-13.01,323.683,16.45
-12.98,324.315,16.485
-12.95,324.806,16.496
-12.92,325.368,16.519
-12.88,325.824,16.565
-12.85,326.315,16.633
-12.82,326.807,16.633
-12.79,327.263,16.668
-12.75,327.789,16.645
-12.72,328.21,16.633
-12.69,328.526,16.691
-12.66,328.983,16.737
-12.62,329.404,16.771
-12.59,329.825,16.725
-12.56,330.176,16.702
-12.52,330.562,16.588
-12.49,330.281,16.565
-12.46,330.948,16.737
-12.43,331.439,16.645
-12.39,331.615,16.714
-12.36,331.966,16.702
-12.33,332.211,16.725
-12.3,332.562,16.668
-12.26,332.703,16.622
-12.23,332.878,16.645
-12.2,333.018,16.668
-12.17,333.264,16.622
-12.13,333.369,16.553
-12.1,333.51,16.53
-12.07,333.72,16.473
-12.04,333.861,16.37
-12.0,333.861,16.359
-11.97,333.931,16.37
-11.94,334.071,16.313
-11.91,334.142,16.244
-11.87,334.106,16.233
-11.84,334.212,16.233
-11.81,334.317,16.118
-11.78,334.282,15.98
-11.74,334.247,15.923
-11.71,334.212,15.935
-11.68,334.177,15.9
-11.65,334.106,15.866
-11.61,334.036,15.797
-11.58,333.966,15.751
-11.55,333.896,15.648
-11.52,333.755,15.511
-11.48,333.475,15.454
-11.45,333.159,15.396
-11.42,332.808,15.305
-11.39,332.176,15.247
-11.35,331.544,15.167
-11.32,330.878,15.007
-11.29,329.649,14.675
-11.26,327.263,14.526
-11.22,326.28,14.549
-11.19,324.841,14.182
-11.16,322.525,14.171
-11.13,320.735,14.045
-11.09,318.419,13.918
-11.06,316.243,13.815
-11.03,313.681,13.609
-11.0,311.049,13.495
-10.96,308.522,13.311
-10.93,305.679,13.197
-10.9,302.802,13.071
-10.87,299.643,12.933
-10.83,296.344,12.842
-10.8,293.221,12.716
-10.77,289.992,12.532
-10.74,286.658,12.349
-10.7,283.289,12.177
-10.67,279.955,12.04
-10.64,276.831,11.914
-10.61,273.813,11.799
-10.57,270.795,11.708
-10.54,267.776,11.536
-10.51,264.653,11.398
-10.48,261.424,11.238
-10.44,258.02,11.123
-10.41,254.651,10.997
-10.38,251.317,10.883
-10.35,248.018,10.734
-10.31,244.754,10.562
-10.28,241.49,10.39
-10.25,238.156,10.218
-10.22,234.998,10.058
-10.18,231.664,9.898
-10.15,228.224,9.794
-10.12,224.995,9.623
-10.08,221.626,9.428
-10.05,218.187,9.245
-10.02,214.748,9.05
-9.99,211.168,8.867
-9.95,207.658,8.66
-9.92,203.903,8.511
-9.89,200.218,8.328
-9.86,196.428,8.133
-9.82,192.567,7.996
-9.79,188.672,7.813
-9.76,184.671,7.572
-9.73,180.6,7.4
-9.69,176.634,7.251
-9.66,172.563,7.057
-9.63,168.317,6.896
-9.6,163.965,6.713
-9.56,159.578,6.541
-9.53,155.296,6.346
-9.5,150.909,6.106
-9.47,146.593,5.877
-9.43,142.101,5.67
-9.4,137.643,5.464
-9.37,133.116,5.281
-9.34,128.554,5.109
-9.3,123.886,4.972
-9.27,119.429,4.766
-9.24,114.832,4.548
-9.21,110.269,4.365
-9.17,105.707,4.17
-9.14,101.074,4.009
-9.11,96.477,3.838
-9.08,91.879,3.643
-9.04,87.317,3.471
-9.01,82.755,3.299
-8.98,78.227,3.082
-8.95,73.7,2.91
-8.91,69.067,2.749
-8.88,64.54,2.577
-8.85,59.978,2.394
-8.82,55.45,2.211
-8.78,50.853,2.016
-8.75,46.326,1.833
-8.72,41.798,1.627
-8.69,37.236,1.443
-8.65,32.639,1.272
-8.62,28.111,1.146
-8.59,23.549,0.962
-8.56,19.022,0.825
-8.52,14.494,0.619
-8.49,10.143,0.447
-8.46,5.721,0.206
-8.43,1.263,0.08
-8.39,-3.334,-0.092
-8.36,-7.756,-0.137
-8.33,-12.178,-0.424
-8.3,-16.425,-0.63
-8.26,-20.952,-1.157
-8.23,-24.321,-1.26
-8.2,-28.532,-2.257
-8.17,-34.393,-2.417
-8.13,-37.236,-2.566
-8.1,-42.29,-3.219
-8.07,-47.063,-3.013
-8.04,-51.169,-3.288
-8.0,-55.486,-3.356
-7.97,-59.311,-3.471
-7.94,-62.996,-3.666
-7.91,-67.032,-3.849
-7.87,-70.752,-3.918
-7.84,-74.297,-4.113
-7.81,-77.806,-4.273
-7.78,-81.491,-4.479
-7.74,-85.211,-4.685
-7.71,-88.826,-4.949
-7.68,-92.616,-5.155
-7.65,-96.336,-5.315
-7.61,-99.916,-5.453
-7.58,-103.671,-5.579
-7.55,-107.181,-5.705
-7.51,-110.62,-5.934
-7.48,-114.305,-6.129
-7.45,-117.885,-6.323
-7.42,-121.465,-6.541
-7.38,-125.255,-6.747
-7.35,-128.975,-6.919
-7.32,-132.695,-7.091
-7.29,-136.275,-7.24
-7.25,-139.96,-7.446
-7.22,-143.996,-7.687
-7.19,-148.277,-7.859
-7.16,-152.208,-8.065
-7.12,-156.104,-8.282
-7.09,-159.929,-8.42
-7.06,-163.684,-8.603
-7.03,-167.404,-8.752
-6.99,-171.054,-8.912
-6.96,-174.599,-9.038
-6.93,-178.214,-9.256
-6.9,-181.723,-9.336
-6.86,-185.303,-9.577
-6.83,-188.426,-9.554
-6.8,-191.725,-9.909
-6.77,-195.972,-10.001
-6.73,-198.463,-9.989
-6.7,-201.306,-10.402
-6.67,-205.482,-10.573
-6.64,-208.571,-10.47
-6.6,-211.378,-10.78
-6.57,-214.958,-10.94
-6.54,-217.766,-11.032
-6.51,-220.784,-11.249
-6.47,-223.767,-11.364
-6.44,-226.61,-11.513
-6.41,-229.277,-11.65
-6.38,-231.979,-11.822
-6.34,-234.717,-11.914
-6.31,-237.103,-12.017
-6.28,-239.384,-12.177
-6.25,-241.946,-12.315
-6.21,-244.508,-12.429
-6.18,-247.176,-12.613
-6.15,-250.194,-12.784
-6.12,-253.177,-12.933
-6.08,-256.09,-13.082
-6.05,-258.897,-13.197
-6.02,-261.284,-13.288
-5.99,-263.495,-13.403
-5.95,-265.636,-13.46
-5.92,-267.741,-13.575
-5.89,-269.952,-13.735
-5.86,-272.198,-13.838
-5.82,-274.339,-13.953
-5.79,-276.55,-14.102
-5.76,-278.761,-14.205
-5.73,-280.797,-14.331
-5.69,-282.797,-14.491
-5.66,-284.903,-14.617
-5.63,-287.079,-14.697
-5.6,-289.149,-14.778
-5.56,-291.115,-14.846
-5.53,-293.115,-14.938
-5.5,-295.081,-15.007
-5.47,-296.941,-15.133
-5.43,-298.695,-15.224
-5.4,-300.45,-15.339
-5.37,-302.135,-15.419
-5.34,-303.644,-15.488
-5.3,-305.083,-15.511
-5.27,-306.416,-15.591
-5.24,-307.785,-15.66
-5.21,-309.154,-15.671
-5.17,-310.347,-15.74
-5.14,-311.61,-15.74
-5.11,-312.769,-15.797
-5.08,-313.962,-15.877
-5.04,-315.19,-15.912
-5.01,-316.278,-15.992
-4.98,-317.366,-16.015
-4.94,-318.068,-16.152
-4.91,-318.84,-16.244
-4.88,-319.542,-16.29
-4.85,-320.244,-16.313
-4.81,-320.981,-16.29
-4.78,-321.648,-16.21
-4.75,-322.279,-16.221
-4.72,-322.841,-16.244
-4.68,-323.508,-16.336
-4.65,-324.034,-16.324
-4.62,-324.315,-16.416
-4.59,-325.438,-16.462
-4.55,-325.824,-16.37
-4.52,-326.245,-16.519
-4.49,-326.736,-16.473
-4.46,-327.228,-16.565
-4.42,-327.684,-16.565
-4.39,-328.07,-16.668
-4.36,-328.526,-16.679
-4.33,-329.018,-16.702
-4.29,-329.404,-16.691
-4.26,-329.79,-16.668
-4.23,-330.07,-16.656
-4.2,-330.527,-16.702
-4.16,-330.351,-16.599
-4.13,-330.597,-16.771
-4.1,-331.439,-16.714
-4.07,-331.58,-16.679
-4.03,-331.895,-16.691
-4.0,-332.106,-16.668
-3.97,-332.387,-16.691
-3.94,-332.527,-16.691
-3.9,-332.773,-16.656
-3.87,-332.983,-16.553
-3.84,-333.159,-16.473
-3.81,-333.334,-16.404
-3.77,-333.58,-16.37
-3.74,-333.51,-16.278
-3.71,-333.72,-16.324
-3.68,-333.861,-16.233
-3.64,-333.896,-16.244
-3.61,-334.036,-16.164
-3.58,-333.861,-16.198
-3.55,-334.106,-16.187
-3.51,-334.001,-16.106
-3.48,-334.142,-16.118
-3.45,-334.106,-15.98
-3.42,-334.106,-15.992
-3.38,-334.142,-15.866
-3.35,-334.036,-15.809
-3.32,-334.106,-15.728
-3.29,-333.896,-15.66
-3.25,-333.861,-15.637
-3.22,-333.685,-15.602
-3.19,-333.58,-15.58
-3.16,-333.334,-15.454
-3.12,-333.054,-15.419
-3.09,-332.808,-15.247
-3.06,-332.211,-15.144
-3.03,-331.65,-14.961
-2.99,-330.211,-14.697
-2.96,-329.088,-14.732
-2.93,-328.07,-14.56
-2.9,-326.315,-14.4
-2.86,-324.385,-14.285
-2.83,-322.314,-14.193
-2.8,-320.595,-14.045
-2.77,-318.629,-13.838
-2.73,-316.313,-13.632
-2.7,-313.681,-13.506
-2.67,-311.014,-13.38
-2.64,-308.382,-13.231
-2.6,-305.504,-13.094
-2.57,-302.556,-12.968
-2.54,-299.467,-12.819
-2.5,-296.204,-12.704
-2.47,-292.94,-12.578
-2.44,-289.781,-12.429
-2.41,-286.482,-12.292
-2.37,-283.218,-12.166
-2.34,-279.955,-12.028
-2.31,-276.866,-11.925
-2.28,-273.883,-11.753
-2.24,-270.865,-11.593
-2.21,-267.776,-11.456
-2.18,-264.583,-11.364
-2.15,-261.284,-11.261
-2.11,-257.915,-11.158
-2.08,-254.686,-10.974
-2.05,-251.352,-10.803
-2.02,-248.123,-10.631
-1.98,-244.824,-10.459
-1.95,-241.525,-10.356
-1.92,-238.261,-10.23
-1.89,-235.068,-10.047
-1.85,-231.769,-9.863
-1.82,-228.365,-9.726
-1.79,-225.031,-9.565
-1.76,-221.591,-9.382
-1.72,-218.222,-9.222
-1.69,-214.748,-9.038
-1.66,-211.203,-8.832
-1.63,-207.483,-8.718
-1.59,-203.973,-8.511
-1.56,-200.148,-8.328
-1.53,-196.393,-8.168
-1.5,-192.638,-7.973
-1.46,-188.742,-7.778
-1.43,-184.776,-7.595
-1.4,-180.775,-7.4
-1.37,-176.634,-7.24
-1.33,-172.423,-7.045
-1.3,-168.211,-6.839
-1.27,-163.824,-6.656
-1.24,-159.543,-6.449
-1.2,-155.156,-6.255
-1.17,-150.769,-6.094
-1.14,-146.382,-5.911
-1.11,-141.855,-5.751
-1.07,-137.433,-5.59
-1.04,-132.976,-5.384
-1.01,-128.448,-5.178
-0.98,-123.886,-4.949
-0.94,-119.324,-4.766
-0.91,-114.761,-4.594
-0.88,-110.164,-4.399
-0.85,-105.566,-4.239
-0.81,-100.934,-4.032
-0.78,-96.336,-3.826
-0.75,-91.704,-3.631
-0.72,-87.177,-3.471
-0.68,-82.579,-3.299
-0.65,-78.052,-3.196
-0.62,-73.524,-3.001
-0.59,-69.067,-2.852
-0.55,-64.47,-2.612
-0.52,-60.083,-2.486
-0.49,-55.45,-2.211
-0.46,-51.099,-2.085
-0.42,-46.22,-1.764
-0.39,-42.255,-1.902
-0.36,-37.727,-1.283
-0.33,-31.586,-1.306
-0.29,-28.497,-1.375
-0.26,-23.9,-0.768
-0.23,-18.53,-0.733
-0.2,-14.389,-0.642
-0.16,-10.283,-0.435
-0.13,-5.545,-0.286
-0.1,-1.263,-0.263
-0.07,3.159,-0.126
-0.03,7.686,-0.023
0.0,11.967,0.183
0.03,16.249,0.47
0.07,20.461,0.848
0.1,24.637,1.26
0.13,28.673,1.81
0.16,32.884,2.303
0.2,37.271,2.726
0.23,41.869,3.024
0.26,46.291,3.219
0.29,50.607,3.402
0.33,54.994,3.528
0.36,59.1,3.597
0.39,62.996,3.746
0.42,66.997,3.849
0.46,70.717,3.975
0.49,74.367,4.124
0.52,78.017,4.307
0.55,81.596,4.502
0.59,85.246,4.662
0.62,88.826,4.846
0.65,92.546,5.029
0.68,96.231,5.189
0.72,99.811,5.407
0.75,103.391,5.602
0.78,107.111,5.831
0.81,110.796,5.98
0.85,114.41,6.186
0.88,118.13,6.312
0.91,121.851,6.507
0.94,125.606,6.667
0.98,129.361,6.942
1.01,133.116,7.045
1.04,136.169,7.217
1.07,140.662,7.652
1.11,144.312,7.469
1.14,147.926,7.95
1.17,152.559,8.03
1.2,156.209,8.225
1.24,160.104,8.489
1.27,163.93,8.637
1.3,167.545,8.798
1.33,171.265,8.97
1.37,174.95,9.073
1.4,178.529,9.245
1.43,182.039,9.405
1.46,185.513,9.565
1.5,189.023,9.737
1.53,192.497,9.909
1.56,195.901,10.047
1.59,199.2,10.161
1.63,202.464,10.287
1.66,205.658,10.459
1.69,208.852,10.631
1.72,212.08,10.768
1.76,215.204,10.917
1.79,218.152,11.123
1.82,221.135,11.295
1.85,224.188,11.41
1.89,227.066,11.513
1.92,229.874,11.685
1.95,232.611,11.845
1.98,235.349,11.971
2.02,237.84,12.074
2.05,240.157,12.223
2.08,242.578,12.395
2.11,245.175,12.509
2.15,248.158,12.635
2.18,251.141,12.784
2.21,253.984,12.922
2.24,256.511,13.059
2.28,258.897,13.254
2.31,261.319,13.369
2.34,263.46,13.46
2.37,265.776,13.563
2.41,267.987,13.666
2.44,270.268,13.804
2.47,272.549,13.976
2.5,274.76,14.136
2.54,276.971,14.274
2.57,279.147,14.342
2.6,281.218,14.4
2.64,283.253,14.48
2.67,285.289,14.617
2.7,287.325,14.743
2.73,289.43,14.846
2.77,291.255,14.938
2.8,293.291,15.087
2.83,295.116,15.121
2.86,297.151,15.247
2.9,298.695,15.167
2.93,300.345,15.408
2.96,302.696,15.499
2.99,303.749,15.454
3.03,305.434,15.751
3.06,306.416,15.557
3.09,307.153,15.786
3.12,309.821,15.786
3.16,310.558,15.602
3.19,311.891,15.98
3.22,313.155,15.797
3.25,314.207,16.038
3.29,315.541,16.026
3.32,316.489,16.164
3.35,317.682,16.198
3.38,318.559,16.233
3.42,319.261,16.267
3.45,319.963,16.313
3.48,320.595,16.324
3.51,321.227,16.347
3.55,321.893,16.37
3.58,322.49,16.381
3.61,323.087,16.393
3.64,323.683,16.416
3.68,324.21,16.462
3.71,324.736,16.576
3.74,325.368,16.611
3.77,325.789,16.645
3.81,326.315,16.702
3.84,326.772,16.714
3.87,327.368,16.702
3.9,327.754,16.702
3.94,328.246,16.725
3.97,328.561,16.748
4.0,329.018,16.782
4.03,329.404,16.782
4.07,329.755,16.851
4.1,330.176,16.817
4.13,330.632,16.702
4.16,330.211,16.656
4.2,330.843,16.897
4.23,331.404,16.771
4.26,331.544,16.817
4.29,331.966,16.828
4.33,332.211,16.805
4.36,332.562,16.714
4.39,332.703,16.645
4.42,332.913,16.611
4.46,333.054,16.611
4.49,333.194,16.622
4.52,333.299,16.622
4.55,333.475,16.622
4.59,333.58,16.611
4.62,333.791,16.519
4.65,333.861,16.45
4.68,333.931,16.45
4.72,334.001,16.37
4.75,334.036,16.313
4.78,334.036,16.313
4.81,334.142,16.313
4.85,334.247,16.244
4.88,334.282,16.095
4.91,334.282,16.003
4.94,334.247,15.923
4.98,334.106,15.9
5.01,334.142,15.889
5.04,334.071,15.82
5.08,333.966,15.728
5.11,333.861,15.637
5.14,333.72,15.522
5.17,333.44,15.442
5.21,333.089,15.442
5.24,332.773,15.385
5.27,332.211,15.328
5.3,331.65,15.224
5.34,330.772,15.087
5.37,329.088,14.801
5.4,327.93,14.72
5.43,326.772,14.434
5.47,324.525,14.342
5.5,322.665,14.274
5.53,320.63,14.079
5.56,318.419,13.999
5.6,316.103,13.861
5.63,313.716,13.724
5.66,311.33,13.529
5.69,308.698,13.369
5.73,305.82,13.243
5.76,302.766,13.094
5.79,299.713,12.979
5.82,296.449,12.819
5.86,293.15,12.658
5.89,289.886,12.498
5.92,286.623,12.349
5.95,283.324,12.223
5.99,280.06,12.143
6.02,276.901,12.051
6.05,273.883,11.948
6.08,270.865,11.834
6.12,267.847,11.685
6.15,264.758,11.49
6.18,261.53,11.284
6.21,258.231,11.135
6.25,254.861,10.997
6.28,251.492,10.848
6.31,248.123,10.699
6.34,244.754,10.596
6.38,241.49,10.47
6.41,238.332,10.287
6.44,235.068,10.092
6.47,231.839,9.909
6.51,228.47,9.772
6.54,225.066,9.634
6.57,221.696,9.451
6.6,218.222,9.313
6.64,214.783,9.153
6.67,211.308,8.912
6.7,207.693,8.741
6.73,204.008,8.58
6.77,200.359,8.363
6.8,196.498,8.191
6.83,192.743,7.996
6.86,188.918,7.79
6.9,184.882,7.595
6.93,180.951,7.389
6.96,176.81,7.194
6.99,172.633,7.034
7.03,168.387,6.862
7.06,164.035,6.679
7.09,159.683,6.507
7.12,155.331,6.278
7.16,150.874,6.083
7.19,146.487,5.9
7.22,142.03,5.682
7.25,137.433,5.51
7.29,133.081,5.315
7.32,128.554,5.086
7.35,123.886,4.949
7.38,119.289,4.823
7.42,114.867,4.605
7.45,110.234,4.399
7.48,105.707,4.227
7.51,101.18,4.021
7.55,96.547,3.826
7.58,91.949,3.666
7.61,87.457,3.471
7.65,82.86,3.288
7.68,78.262,3.093
7.71,73.77,2.864
7.74,69.243,2.669
7.78,64.68,2.509
7.81,60.153,2.314
7.84,55.521,2.177
7.87,50.818,2.016
7.91,46.291,1.879
7.94,41.693,1.684
7.97,37.131,1.512
8.0,32.639,1.306
8.04,28.217,1.123
8.07,23.584,0.905
8.1,19.022,0.802
8.13,14.424,0.642
8.17,10.037,0.493
8.2,5.475,0.309
8.23,1.193,0.16
8.26,-3.51,0.034
8.3,-7.756,-0.023
8.33,-12.283,-0.344
8.36,-15.652,-0.355
8.39,-20.425,-1.26
8.43,-25.655,-1.26
8.46,-28.146,-1.833
8.49,-33.06,-2.6
8.52,-37.938,-2.749
8.56,-42.29,-3.047
8.59,-46.782,-3.162
8.62,-51.134,-3.265
8.65,-55.275,-3.356
8.69,-59.346,-3.505
8.72,-63.136,-3.643
8.75,-66.927,-3.861
8.78,-70.717,-3.987
8.82,-74.367,-4.147
8.85,-78.087,-4.296
8.88,-81.737,-4.456
8.91,-85.352,-4.674
8.95,-89.072,-4.88
8.98,-92.651,-5.086
9.01,-96.371,-5.258
9.04,-99.951,-5.396
9.08,-103.391,-5.636
9.11,-107.181,-5.797
9.14,-110.69,-5.968
9.17,-114.34,-6.186
9.21,-117.99,-6.358
9.24,-121.605,-6.553
9.27,-125.43,-6.759
9.3,-129.221,-6.896
9.34,-132.906,-7.045
9.37,-136.45,-7.228
9.4,-140.135,-7.435
9.43,-144.101,-7.675
9.47,-148.242,-7.881
9.5,-152.173,-8.111
9.53,-156.104,-8.305
9.56,-159.824,-8.454
9.6,-163.649,-8.592
9.63,-167.334,-8.729
9.66,-171.019,-8.89
9.69,-174.564,-9.061
9.73,-178.284,-9.199
9.76,-181.021,-9.29
9.79,-185.197,-9.794
9.82,-188.882,-9.634
9.86,-191.655,-9.955
9.89,-195.586,-10.161
9.92,-198.849,-10.173
9.95,-201.552,-10.333
9.99,-205.447,-10.642
10.02,-208.501,-10.562
10.05,-211.203,-10.917
10.08,-214.923,-10.997
10.12,-217.836,-11.089
10.15,-220.889,-11.249
10.18,-223.732,-11.387
10.22,-226.61,-11.524
10.25,-229.347,-11.673
10.28,-232.05,-11.811
10.31,-234.682,-11.971
10.35,-237.138,-12.086
10.38,-239.525,-12.2
10.41,-242.052,-12.326
10.44,-244.543,-12.498
10.48,-247.246,-12.681
10.51,-250.159,-12.876
10.54,-253.212,-13.036
10.57,-256.02,-13.174
10.61,-258.862,-13.311
10.64,-261.249,-13.346
10.67,-263.46,-13.46
10.7,-265.565,-13.518
10.74,-267.671,-13.621
10.77,-269.987,-13.724
10.8,-272.234,-13.827
10.83,-274.374,-13.999
10.87,-276.62,-14.113
10.9,-278.761,-14.216
10.93,-280.902,-14.308
10.96,-282.938,-14.4
11.0,-285.008,-14.526
11.03,-287.114,-14.652
11.06,-289.149,-14.778
11.09,-291.115,-14.892
11.13,-293.15,-15.007
11.16,-295.116,-15.075
11.19,-296.976,-15.167
11.22,-298.766,-15.247
11.26,-300.52,-15.328
11.29,-302.17,-15.408
11.32,-303.363,-15.476
11.35,-304.767,-15.602
11.39,-306.346,-15.648
11.42,-307.785,-15.706
11.45,-309.224,-15.786
11.48,-310.452,-15.797
11.52,-311.54,-15.9
11.55,-312.733,-15.923
11.58,-313.927,-15.958
11.61,-315.19,-16.026
11.65,-316.418,-16.049
11.68,-317.471,-16.129
11.71,-318.384,-16.164
11.74,-318.945,-16.198
11.78,-319.788,-16.221
11.81,-320.349,-16.21
11.84,-321.086,-16.278
11.87,-321.297,-16.244
11.91,-322.279,-16.439
11.94,-323.122,-16.267
11.97,-323.438,-16.393
12.0,-324.104,-16.427
12.04,-324.631,-16.507
12.07,-325.227,-16.53
12.1,-325.754,-16.542
12.13,-326.28,-16.576
12.17,-326.631,-16.599
12.2,-327.263,-16.645
12.23,-327.649,-16.668
12.26,-328.07,-16.737
12.3,-328.491,-16.737
12.33,-328.983,-16.725
12.36,-329.369,-16.714
12.39,-329.79,-16.679
12.43,-330.0,-16.702
12.46,-330.492,-16.725
12.49,-330.281,-16.645
12.52,-330.597,-16.828
12.56,-331.404,-16.737
12.59,-331.474,-16.748
12.62,-331.86,-16.748
12.66,-332.106,-16.702
12.69,-332.387,-16.691
12.72,-332.562,-16.633
12.75,-332.773,-16.622
12.79,-332.878,-16.588
12.82,-333.089,-16.542
12.85,-333.194,-16.485
12.88,-333.299,-16.485
12.92,-333.44,-16.416
12.95,-333.51,-16.416
12.98,-333.65,-16.359
13.01,-333.755,-16.301
13.05,-333.791,-16.255
13.08,-333.826,-16.244
13.11,-333.861,-16.221
13.14,-333.896,-16.175
13.18,-334.001,-16.106
13.21,-334.001,-16.038
13.24,-334.001,-15.992
13.27,-333.931,-15.912
13.31,-333.931,-15.877
13.34,-333.861,-15.843
13.37,-333.791,-15.774
13.4,-333.755,-15.694
13.44,-333.685,-15.568
13.47,-333.475,-15.488
13.5,-333.229,-15.442
13.53,-332.913,-15.385
13.57,-332.597,-15.316
13.6,-332.071,-15.167
13.63,-331.439,-15.11
13.66,-330.351,-14.881
13.7,-328.842,-14.732
13.73,-327.859,-14.629
13.76,-326.315,-14.377
13.79,-324.069,-14.297
13.83,-322.069,-14.216
13.86,-320.349,-14.125
13.89,-318.524,-13.941
13.92,-316.068,-13.747
13.96,-313.4,-13.655
13.99,-310.909,-13.518
14.02,-308.311,-13.334
14.05,-305.469,-13.208
14.09,-302.591,-13.036
14.12,-299.327,-12.933
14.15,-296.274,-12.773
14.18,-292.975,-12.613
14.22,-289.676,-12.509
14.25,-286.517,-12.349
14.28,-283.148,-12.2
14.31,-279.884,-12.097
14.35,-276.901,-11.971
14.38,-273.848,-11.822
14.41,-270.795,-11.696
14.44,-267.776,-11.547
14.48,-264.583,-11.421
14.51,-261.354,-11.261
14.54,-258.055,-11.1
14.57,-254.756,-10.952
14.61,-251.352,-10.803
14.64,-248.053,-10.677
14.67,-244.719,-10.562
14.7,-241.455,-10.39
14.74,-238.261,-10.23
14.77,-234.998,-10.058
14.8,-231.699,-9.898
14.83,-228.365,-9.749
14.87,-225.031,-9.623
14.9,-221.626,-9.462
14.93,-218.187,-9.29
14.96,-214.713,-9.107
15.0,-211.203,-8.947
15.03,-207.553,-8.798
15.06,-203.868,-8.615
15.09,-200.148,-8.431
15.13,-196.393,-8.225
15.16,-192.567,-8.03
15.19,-188.812,-7.813
15.23,-184.882,-7.561
15.26,-180.811,-7.377
15.29,-176.669,-7.24
15.32,-172.528,-7.057
15.36,-168.317,-6.85
15.39,-163.93,-6.679
15.42,-159.648,-6.472
15.45,-155.261,-6.266
15.49,-150.839,-6.06
15.52,-146.523,-5.865
15.55,-142.03,-5.67
15.58,-137.468,-5.487
15.62,-132.976,-5.35
15.65,-128.413,-5.178
15.68,-123.851,-4.972
15.71,-119.324,-4.8
15.75,-114.832,-4.571
15.78,-110.164,-4.376
15.81,-105.672,-4.216
15.84,-100.969,-4.067
15.88,-96.407,-3.906
15.91,-91.809,-3.712
15.94,-87.282,-3.517
15.97,-82.719,-3.311
16.01,-78.333,-3.093
16.04,-73.63,-2.875
16.07,-69.102,-2.749
16.1,-64.505,-2.566
16.14,-60.048,-2.429
16.17,-55.38,-2.199
16.2,-51.028,-2.062
16.23,-46.15,-1.787
16.27,-42.5,-1.879
16.3,-37.341,-1.146
16.33,-31.726,-1.398
16.36,-28.813,-1.214
16.4,-23.795,-0.699
16.43,-18.53,-0.745
16.46,-14.494,-0.664
16.49,-10.283,-0.401
16.53,-5.475,-0.263
16.56,-1.123,-0.241
16.59,3.299,-0.103
16.62,7.791,0.011
16.66,12.038,0.183
16.69,16.249,0.493
16.72,20.496,0.859
16.75,24.567,1.283
16.79,28.603,1.833
16.82,32.779,2.314
16.85,37.166,2.704
16.88,41.763,3.001
16.92,46.185,3.219
16.95,50.607,3.345
16.98,54.819,3.494
17.01,58.925,3.631
17.05,62.996,3.746
17.08,66.856,3.861
17.11,70.682,3.998
17.14,74.297,4.124
17.18,77.841,4.261
17.21,81.526,4.422
17.24,85.141,4.639
17.27,88.756,4.846
17.31,92.581,5.018
17.34,96.161,5.189
17.37,99.776,5.396
17.4,103.25,5.602
17.44,106.97,5.842
17.47,110.585,6.026
17.5,114.235,6.243
17.53,117.92,6.358
17.57,121.71,6.553
17.6,125.536,6.656
17.63,129.326,6.942
17.66,132.835,6.976
17.7,136.169,7.332
17.73,140.837,7.538
17.76,143.961,7.561
17.8,148.102,8.111
17.83,152.664,8.007
17.86,156.279,8.214
17.89,160.104,8.363
17.93,163.824,8.569
17.96,167.615,8.729
17.99,171.194,8.901
18.02,174.809,9.096
18.06,178.424,9.245
18.09,181.898,9.336
18.12,185.513,9.531
18.15,189.128,9.657
18.19,192.392,9.817
18.22,195.761,9.978
18.25,199.025,10.161
18.28,202.219,10.333
18.32,205.588,10.493
18.35,208.746,10.642
18.38,211.905,10.814
18.41,215.028,10.963
18.45,218.117,11.1
18.48,221.03,11.238
18.51,223.978,11.398
18.54,226.996,11.501
18.58,229.944,11.57
18.61,232.681,11.673
18.64,235.208,11.834
18.67,237.7,11.983
18.71,239.981,12.166
18.74,242.473,12.338
18.77,244.965,12.521
18.8,247.807,12.739
18.84,250.896,12.876
18.87,253.773,13.002
18.9,256.371,13.082
18.93,258.862,13.243
18.97,261.319,13.369
19.0,263.495,13.449
19.03,265.741,13.575
19.06,267.987,13.678
19.1,270.338,13.77
19.13,272.585,13.85
19.16,274.76,14.01
19.19,276.936,14.136
19.23,279.147,14.205
19.26,281.148,14.285
19.29,283.113,14.4
19.32,285.114,14.514
19.36,287.254,14.629
19.39,289.185,14.732
19.42,291.08,14.904
19.45,293.045,15.007
19.49,294.975,15.121
19.52,296.906,15.19
19.55,298.766,15.339
19.58,300.591,15.362
19.62,302.31,15.488
19.65,303.889,15.442
19.68,305.363,15.58
19.71,306.451,15.454
19.75,307.083,15.683
19.78,309.575,15.854
19.81,310.312,15.683
19.84,311.856,16.049
19.88,313.19,15.786
19.91,314.137,16.026
19.94,315.366,16.026
19.97,316.383,16.152
20.01,317.506,16.164
20.04,318.279,16.221
20.07,319.051,16.267
20.1,319.823,16.244
20.14,320.49,16.198
20.17,321.051,16.267
20.2,321.648,16.324
20.23,322.35,16.37
20.27,322.911,16.416
20.3,323.438,16.496
20.33,324.139,16.542
20.37,324.701,16.53
20.4,325.192,16.565
20.43,325.789,16.576
20.46,326.245,16.611
20.5,326.736,16.633
20.53,327.228,16.645
20.56,327.649,16.725
20.59,328.14,16.714
20.63,328.526,16.725
20.66,329.053,16.691
20.69,329.369,16.714
20.72,329.72,16.771
20.76,330.106,16.759
20.79,330.421,16.748
20.82,330.176,16.725
20.85,330.913,16.874
20.89,331.474,16.668
20.92,331.58,16.714
20.95,332.001,16.656
20.98,332.211,16.633
21.02,332.492,16.576
21.05,332.632,16.622
21.08,332.808,16.645
21.11,333.054,16.611
21.15,333.264,16.496
21.18,333.334,16.473
21.21,333.475,16.496
21.24,333.615,16.496
21.28,333.685,16.519
21.31,333.791,16.519
21.34,333.931,16.462
21.37,334.001,16.347
21.41,334.142,16.267
21.44,334.177,16.152
21.47,334.142,16.152
21.5,334.177,16.106
21.54,334.106,16.095
21.57,334.212,16.026
21.6,334.247,15.877
21.63,334.106,15.82
21.67,334.036,15.774
21.7,334.001,15.774
21.73,333.896,15.728
21.76,333.826,15.66
21.8,333.65,15.602
21.83,333.475,15.465
21.86,333.159,15.362
21.89,332.843,15.247
21.93,332.352,15.087
21.96,331.685,15.03
21.99,330.632,14.858
22.02,328.807,14.709
22.06,327.859,14.743
22.09,326.701,14.434
22.12,324.525,14.319
22.15,322.63,14.182
22.19,320.7,14.079
22.22,318.91,13.918
22.25,316.418,13.678
22.28,313.751,13.598
22.32,311.154,13.506
22.35,308.592,13.38
22.38,305.75,13.243
22.41,302.837,13.082
22.45,299.783,12.887
22.48,296.449,12.773
22.51,293.396,12.635
22.54,290.202,12.498
22.58,286.974,12.338
22.61,283.499,12.177
22.64,280.095,12.063
22.67,276.971,11.948
22.71,273.918,11.811
22.74,270.9,11.696
22.77,267.847,11.604
22.81,264.618,11.478
22.84,261.424,11.364
22.87,258.195,11.226
22.9,254.932,11.055
22.94,251.633,10.871
22.97,248.299,10.734
23.0,245.0,10.596
23.03,241.701,10.436
23.07,238.332,10.299
23.1,235.068,10.15
23.13,231.839,9.955
23.16,228.575,9.772
23.2,225.241,9.577
23.23,221.837,9.416
23.26,218.327,9.313
23.29,214.958,9.119
23.33,211.343,8.947
23.36,207.799,8.775
23.39,204.219,8.534
23.42,200.464,8.305
23.46,196.568,8.122
23.49,192.743,7.95
23.52,188.707,7.767
23.55,184.671,7.618
23.59,180.74,7.48
23.62,176.704,7.32
23.65,172.668,7.091
23.68,168.422,6.885
23.72,164.175,6.679
23.75,159.894,6.449
23.78,155.437,6.301
23.81,151.155,6.117
23.85,146.628,5.934
23.88,142.171,5.751
23.91,137.784,5.499
23.94,133.186,5.327
23.98,128.694,5.132
24.01,124.097,4.949
24.04,119.534,4.788
24.07,115.042,4.571
24.11,110.41,4.399
24.14,105.917,4.239
24.17,101.425,4.009
24.2,96.722,3.815
24.24,92.09,3.654
24.27,87.563,3.46
24.3,82.965,3.288
24.33,78.403,3.116
24.37,73.84,2.967
24.4,69.278,2.784
24.43,64.856,2.555
24.46,60.223,2.348
24.5,55.626,2.188
24.53,51.064,1.993
24.56,46.431,1.856
24.59,41.974,1.673
24.63,37.306,1.501
24.66,32.849,1.283
24.69,28.357,1.1
24.72,23.795,0.882
24.76,19.302,0.71
24.79,14.705,0.538
24.82,10.178,0.435
24.85,5.721,0.298
24.89,1.263,0.206
24.92,-3.369,0.046
24.95,-7.721,-0.034
24.98,-12.108,-0.332
25.02,-16.319,-0.504
25.05,-20.706,-1.031
25.08,-24.321,-1.191
25.11,-28.006,-2.073
25.15,-34.077,-2.463
25.18,-37.131,-2.451
25.21,-41.869,-3.219
25.24,-46.922,-3.07
25.28,-50.923,-3.345
25.31,-55.31,-3.448
25.34,-59.276,-3.494
25.38,-62.961,-3.62
25.41,-66.962,-3.803
25.44,-70.682,-3.895
25.47,-74.191,-4.101
25.51,-77.666,-4.296
25.54,-81.386,-4.548
25.57,-85.246,-4.674
25.6,-88.861,-4.846
25.64,-92.546,-5.029
25.67,-96.266,-5.178
25.7,-99.811,-5.396
25.73,-103.426,-5.625
25.77,-107.04,-5.785
25.8,-110.62,-5.98
25.83,-114.2,-6.14
25.86,-117.815,-6.323
25.9,-121.394,-6.507
25.93,-125.15,-6.724
25.96,-128.835,-6.931
25.99,-132.66,-7.08
26.03,-136.205,-7.228
26.06,-139.925,-7.435
26.09,-143.996,-7.629
26.12,-148.102,-7.836
26.16,-152.103,-8.03
26.19,-156.033,-8.248
26.22,-159.789,-8.42
26.25,-163.649,-8.615
26.29,-167.404,-8.741
26.32,-171.019,-8.912
26.35,-174.493,-9.061
26.38,-178.143,-9.222
26.42,-181.583,-9.302
26.45,-185.057,-9.577
26.48,-188.321,-9.611
26.51,-191.515,-9.909
26.55,-195.796,-10.115
26.58,-198.499,-9.978
26.61,-201.236,-10.379
26.64,-205.377,-10.585
26.68,-208.43,-10.516
26.71,-211.308,-10.848
26.74,-214.853,-10.986
26.77,-217.696,-11.043
26.81,-220.714,-11.238
26.84,-223.732,-11.307
26.87,-226.54,-11.41
26.9,-229.137,-11.559
26.94,-231.874,-11.742
26.97,-234.576,-11.856
27.0,-236.998,-12.005
27.03,-239.314,-12.189
27.07,-241.841,-12.326
27.1,-244.438,-12.441
27.13,-247.176,-12.578
27.16,-250.124,-12.761
27.2,-253.107,-12.91
27.23,-255.984,-13.071
27.26,-258.757,-13.243
27.29,-261.143,-13.357
27.33,-263.284,-13.483
27.36,-265.355,-13.518
27.39,-267.461,-13.632
27.42,-269.847,-13.792
27.46,-272.269,-13.861
27.49,-274.339,-13.964
27.52,-276.515,-14.125
27.55,-278.691,-14.251
27.59,-280.832,-14.308
27.62,-282.867,-14.388
27.65,-284.903,-14.526
27.68,-287.009,-14.64
27.72,-289.079,-14.743
27.75,-291.045,-14.846
27.78,-292.94,-14.938
27.81,-294.905,-15.064
27.85,-296.835,-15.156
27.88,-298.66,-15.213
27.91,-300.38,-15.316
27.95,-302.1,-15.385
27.98,-303.539,-15.476
28.01,-304.942,-15.545
28.04,-306.311,-15.614
28.08,-307.715,-15.706
28.11,-309.048,-15.751
28.14,-310.312,-15.763
28.17,-311.47,-15.797
28.21,-312.628,-15.877
28.24,-313.786,-15.946
28.27,-314.909,-15.992
28.3,-316.032,-16.061
28.34,-317.155,-16.118
28.37,-318.103,-16.106
28.4,-318.91,-16.141
28.43,-319.647,-16.152
28.47,-320.314,-16.175
28.5,-320.876,-16.198
28.53,-321.648,-16.267
28.56,-322.244,-16.267
28.6,-322.876,-16.324
28.63,-323.438,-16.324
28.66,-324.245,-16.393
28.69,-324.525,-16.29
28.73,-324.911,-16.519
28.76,-325.929,-16.53
28.79,-326.175,-16.553
28.82,-326.701,-16.702
28.86,-327.122,-16.702
28.89,-327.614,-16.748
28.92,-328.07,-16.748
28.95,-328.491,-16.759
28.99,-328.912,-16.771
29.02,-329.369,-16.748
29.05,-329.755,-16.714
29.08,-330.07,-16.691
29.12,-330.562,-16.645
29.15,-330.386,-16.507
29.18,-330.632,-16.668
29.21,-331.404,-16.622
29.25,-331.474,-16.588
29.28,-331.825,-16.668
29.31,-332.246,-16.599
29.34,-332.422,-16.588
29.38,-332.562,-16.588
29.41,-332.878,-16.576
29.44,-332.913,-16.53
29.47,-333.124,-16.542
29.51,-333.194,-16.519
29.54,-333.369,-16.542
29.57,-333.475,-16.439
29.6,-333.545,-16.439
29.64,-333.826,-16.37
29.67,-333.791,-16.29
29.7,-333.966,-16.244
29.73,-333.826,-16.21
29.77,-333.896,-16.255
29.8,-333.966,-16.187
29.83,-334.036,-16.187
29.86,-334.106,-16.061
29.9,-333.966,-16.003
29.93,-334.071,-15.946
29.96,-334.001,-15.832
29.99,-333.931,-15.74
30.03,-333.896,-15.66
30.06,-333.755,-15.648
30.09,-333.685,-15.58
30.12,-333.51,-15.476
30.16,-333.299,-15.408
30.19,-332.983,-15.362
30.22,-332.703,-15.305
30.25,-332.106,-15.179
30.29,-331.474,-15.087
30.32,-330.351,-14.812
30.35,-329.088,-14.743
30.39,-328.21,-14.537
30.42,-326.561,-14.308
30.45,-324.49,-14.216
30.48,-322.314,-14.102
30.52,-320.454,-14.033
30.55,-318.419,-13.85
30.58,-316.032,-13.747
30.61,-313.541,-13.632
30.65,-311.049,-13.472
30.68,-308.487,-13.277
30.71,-305.644,-13.105
30.74,-302.626,-12.979
30.78,-299.432,-12.853
30.81,-296.169,-12.75
30.84,-292.905,-12.59
30.87,-289.606,-12.452
30.91,-286.307,-12.292
30.94,-283.043,-12.12
30.97,-279.814,-11.983
31.0,-276.585,-11.914
31.04,-273.637,-11.788
31.07,-270.549,-11.673
31.1,-267.496,-11.547
31.13,-264.407,-11.375
31.17,-261.179,-11.215
31.2,-257.88,-11.1
31.23,-254.651,-10.94
31.26,-251.387,-10.768
31.3,-247.983,-10.665
31.33,-244.789,-10.539
31.36,-241.595,-10.379
31.39,-238.367,-10.23
31.43,-235.138,-10.081
31.46,-231.909,-9.886
31.49,-228.575,-9.737
31.52,-225.241,-9.588
31.56,-221.837,-9.428
31.59,-218.398,-9.268
31.62,-214.958,-9.084
31.65,-211.449,-8.89
31.69,-207.834,-8.683
31.72,-204.219,-8.477
31.75,-200.499,-8.294
31.78,-196.603,-8.133
31.82,-192.813,-7.962
31.85,-188.918,-7.79
31.88,-184.917,-7.629
31.91,-180.916,-7.458
31.95,-176.81,-7.251
31.98,-172.668,-7.034
32.01,-168.422,-6.85
32.04,-164.175,-6.667
32.08,-159.824,-6.449
32.11,-155.367,-6.266
32.14,-150.945,-6.106
32.17,-146.558,-5.9
32.21,-142.101,-5.693
32.24,-137.573,-5.499
32.27,-133.046,-5.338
32.3,-128.484,-5.178
32.34,-123.991,-4.972
32.37,-119.464,-4.788
32.4,-114.867,-4.605
32.43,-110.304,-4.387
32.47,-105.707,-4.216
32.5,-101.144,-3.998
32.53,-96.547,-3.803
32.56,-91.914,-3.62
32.6,-87.422,-3.471
32.63,-82.93,-3.23
32.66,-78.368,-3.082
32.69,-73.805,-2.864
32.73,-69.313,-2.715
32.76,-64.575,-2.532
32.79,-60.048,-2.451
32.82,-55.45,-2.234
32.86,-51.028,-2.154
32.89,-46.326,-1.776
32.92,-42.22,-1.89
32.96,-38.078,-1.306
32.99,-31.761,-1.191
33.02,-28.462,-1.386
33.05,-24.075,-0.813
33.09,-18.671,-0.756
33.12,-14.424,-0.63
33.15,-10.318,-0.435
33.18,-5.615,-0.241
33.22,-1.334,-0.195
33.25,3.053,-0.046
33.28,7.581,0.046
33.31,11.897,0.229
33.35,16.144,0.515
33.38,20.425,0.894
33.41,24.532,1.329
33.44,28.638,1.856
33.48,32.744,2.348
33.51,37.096,2.795
33.54,41.728,3.059
33.57,46.255,3.219
33.61,50.607,3.345
33.64,54.959,3.46
33.67,58.995,3.574
33.7,62.891,3.712
33.74,66.786,3.849
33.77,70.541,3.987
33.8,74.226,4.101
33.83,77.806,4.273
33.87,81.421,4.468
33.9,85.036,4.685
33.93,88.686,4.869
33.96,92.336,5.063
34.0,96.021,5.247
34.03,99.706,5.418
34.06,103.426,5.579
34.09,106.97,5.739
34.13,110.655,5.934
34.16,114.34,6.163
34.19,117.885,6.335
34.22,121.5,6.621
34.26,125.36,6.759
34.29,129.15,6.954
34.32,132.941,7.057
34.35,135.994,7.206
34.39,140.521,7.629
34.42,144.241,7.503
34.45,147.961,7.962
34.48,152.489,8.065
34.52,156.244,8.259
34.55,160.21,8.443
34.58,163.895,8.569
34.61,167.545,8.741
34.65,171.194,8.912
34.68,174.879,9.05
34.71,178.389,9.233
34.74,181.934,9.359
34.78,185.338,9.531
34.81,188.812,9.691
34.84,192.287,9.852
34.87,195.691,9.966
34.91,198.955,10.15
34.94,202.289,10.31
34.97,205.518,10.459
35.0,208.746,10.642
35.04,211.905,10.757
35.07,214.888,10.917
35.1,217.941,11.055
35.13,220.959,11.226
35.17,223.837,11.398
35.2,226.715,11.57
35.23,229.558,11.73
35.26,232.295,11.868
35.3,235.103,11.971
35.33,237.665,12.074
35.36,240.016,12.2
35.39,242.508,12.349
35.43,245.035,12.487
35.46,247.772,12.716
35.49,250.861,12.876
35.53,253.809,12.968
35.56,256.3,13.059
35.59,258.862,13.162
35.62,261.179,13.288
35.66,263.319,13.392
35.69,265.495,13.529
35.72,267.706,13.666
35.75,269.917,13.861
35.79,272.374,13.918
35.82,274.585,14.022
35.85,276.726,14.148
35.88,278.937,14.274
35.92,280.867,14.434
35.95,282.973,14.583
35.98,284.973,14.697
36.01,287.254,14.789
36.05,289.36,14.801
36.08,291.36,14.869
36.11,293.185,14.961
36.14,295.01,15.098
36.18,296.87,15.156
36.21,298.695,15.293
36.24,300.38,15.305
36.27,302.1,15.431
36.31,303.644,15.408
36.34,305.153,15.568
36.37,306.241,15.419
36.4,306.943,15.671
36.44,309.435,15.797
36.47,310.242,15.648
36.5,311.751,15.969
36.53,312.944,15.786
36.57,314.032,16.015
36.6,315.366,15.935
36.63,316.243,16.141
36.66,317.366,16.175
36.7,318.138,16.221
36.73,318.91,16.255
36.76,319.612,16.301
36.79,320.314,16.301
36.83,320.981,16.301
36.86,321.542,16.381
36.89,322.174,16.45
36.92,322.876,16.439
36.96,323.438,16.496
36.99,324.034,16.542
37.02,324.666,16.565
37.05,325.192,16.53
37.09,325.754,16.565
37.12,326.28,16.565
37.15,326.701,16.611
37.18,327.263,16.588
37.22,327.544,16.702
37.25,328.07,16.817
37.28,328.596,16.748
37.31,329.018,16.702
37.35,329.404,16.668
37.38,329.72,16.691
37.41,330.106,16.748
37.44,330.492,16.714
37.48,330.246,16.679
37.51,330.772,16.874
37.54,331.439,16.714
37.57,331.58,16.725
37.61,331.895,16.691
37.64,332.176,16.691
37.67,332.492,16.633
37.7,332.527,16.645
37.74,332.808,16.668
37.77,333.018,16.588
37.8,333.194,16.553
37.83,333.334,16.473
37.87,333.475,16.45
37.9,333.58,16.427
37.93,333.72,16.404
37.97,333.72,16.393
38.0,333.826,16.404
38.03,334.001,16.37
38.06,334.106,16.233
38.1,334.071,16.141
38.13,334.036,16.152
38.16,334.177,16.152
38.19,334.142,16.118
38.23,334.071,16.095
38.26,334.142,16.084
38.29,334.071,15.969
38.32,334.071,15.912
38.36,333.966,15.82
38.39,333.896,15.728
38.42,333.791,15.625
38.45,333.685,15.511
38.49,333.44,15.396
38.52,333.124,15.328
38.55,332.843,15.179
38.58,332.246,15.041
38.62,331.65,14.961
38.65,330.843,14.823
38.68,328.912,14.629
38.71,327.473,14.675
38.75,326.456,14.445
38.78,324.385,14.274
38.81,322.525,14.251
38.84,320.595,14.079
38.88,318.524,13.93
38.91,316.138,13.747
38.94,313.506,13.666
38.97,311.014,13.598
39.01,308.487,13.426
39.04,305.679,13.266
39.07,302.731,13.094
39.1,299.678,12.865
39.14,296.449,12.693
39.17,293.185,12.475
39.2,289.746,12.361
39.23,286.482,12.303
39.27,283.113,12.189
39.3,279.744,12.131
39.33,276.796,11.994
39.36,273.743,11.811
39.4,270.654,11.685
39.43,267.636,11.57
39.46,264.513,11.456
39.49,261.354,11.318
39.53,258.09,11.169
39.56,254.791,11.02
39.59,251.492,10.871
39.62,248.228,10.699
39.66,245.035,10.551
39.69,241.806,10.367
39.72,238.437,10.195
39.75,235.033,10.092
39.79,231.839,9.966
39.82,228.575,9.794
39.85,225.206,9.623
39.88,221.872,9.451
39.92,218.573,9.279
39.95,215.028,9.119
39.98,211.414,8.993
40.01,207.974,8.775
40.05,204.254,8.557
40.08,200.499,8.351
40.11,196.638,8.145
40.14,192.813,7.962
40.18,188.953,7.79
40.21,184.952,7.606
40.24,180.916,7.446
40.27,176.775,7.297
40.31,172.704,7.148
40.34,168.773,6.965
40.37,164.667,6.667
40.4,160.245,6.472
40.44,155.928,6.255
40.47,151.366,6.037
40.5,146.838,5.888
40.54,142.381,5.693
40.57,137.749,5.499
40.6,133.186,5.315
40.63,128.694,5.075
40.67,124.097,4.88
40.7,119.604,4.72
40.73,115.007,4.571
40.76,110.445,4.41
40.8,105.952,4.204
40.83,101.39,4.021
40.86,96.863,3.803
40.89,92.23,3.563
40.93,87.633,3.414
40.96,83.07,3.265
40.99,78.473,3.093
41.02,73.946,2.956
41.06,69.418,2.784
41.09,64.891,2.589
41.12,60.364,2.429
41.15,55.942,2.211
41.19,51.309,1.982
41.22,46.782,1.833
41.25,42.149,1.661
41.28,37.517,1.478
41.32,32.919,1.306
41.35,28.392,1.146
41.38,23.83,0.928
41.41,19.337,0.722
41.45,14.81,0.515
41.48,10.248,0.412
41.51,5.826,0.241
41.54,1.439,0.126
41.58,-3.194,-0.023
41.61,-7.545,-0.08
41.64,-11.967,-0.355
41.67,-16.144,-0.584
41.71,-20.636,-1.042
41.74,-23.795,-1.18
41.77,-28.427,-2.257
41.8,-33.937,-2.222
41.84,-36.674,-2.577
41.87,-41.974,-3.127
41.9,-46.536,-3.059
41.93,-50.783,-3.368
41.97,-55.205,-3.379
42.0,-58.96,-3.517
42.03,-62.82,-3.712
42.06,-66.856,-3.826
42.1,-70.506,-3.941
42.13,-74.121,-4.135
42.16,-77.701,-4.307
42.19,-81.316,-4.468
42.23,-84.966,-4.651
42.26,-88.615,-4.846
42.29,-92.336,-4.995
42.32,-95.88,-5.178
42.36,-99.46,-5.384
42.39,-103.004,-5.59
42.42,-106.654,-5.797
42.45,-110.374,-5.968
42.49,-113.989,-6.117
42.52,-117.604,-6.301
42.55,-121.324,-6.438
42.58,-124.974,-6.667
42.62,-128.694,-6.873
42.65,-132.414,-7.08
42.68,-135.889,-7.263
42.71,-139.609,-7.492
42.75,-143.539,-7.71
42.78,-147.716,-7.881
42.81,-151.857,-8.042
42.84,-155.893,-8.214
42.88,-159.648,-8.363
42.91,-163.403,-8.58
42.94,-167.053,-8.763
42.97,-170.844,-8.935
43.01,-174.423,-9.061
43.04,-178.108,-9.222
43.07,-181.512,-9.313
43.11,-185.197,-9.52
43.14,-188.181,-9.462
43.17,-191.69,-9.898
43.2,-195.831,-9.955
43.24,-198.253,-9.989
43.27,-201.236,-10.344
43.3,-205.237,-10.493
43.33,-208.36,-10.47
43.37,-211.238,-10.78
43.4,-214.642,-10.894
43.43,-217.415,-11.066
43.46,-220.573,-11.272
43.5,-223.592,-11.387
43.53,-226.434,-11.513
43.56,-229.102,-11.662
43.59,-231.839,-11.799
43.63,-234.541,-11.914
43.66,-237.103,-11.994
43.69,-239.42,-12.143
43.72,-241.876,-12.292
43.76,-244.403,-12.441
43.79,-247.141,-12.601
43.82,-250.053,-12.784
43.85,-253.001,-12.933
43.89,-255.774,-13.082
43.92,-258.582,-13.266
43.95,-261.108,-13.323
43.98,-263.109,-13.472
44.02,-265.285,-13.586
44.05,-267.531,-13.632
44.08,-269.847,-13.724
44.11,-271.953,-13.838
44.15,-274.199,-13.964
44.18,-276.34,-14.102
44.21,-278.586,-14.216
44.24,-280.656,-14.308
44.28,-282.657,-14.4
44.31,-284.727,-14.468
44.34,-286.693,-14.56
44.37,-288.658,-14.675
44.41,-290.834,-14.801
44.44,-292.87,-14.915
44.47,-294.905,-15.041
44.5,-296.765,-15.121
44.54,-298.45,-15.224
44.57,-300.134,-15.362
44.6,-301.854,-15.431
44.63,-303.398,-15.499
44.67,-304.907,-15.568
44.7,-306.206,-15.648
44.73,-307.504,-15.74
44.76,-308.803,-15.763
44.8,-310.031,-15.763
44.83,-311.33,-15.774
44.86,-312.558,-15.809
44.89,-313.716,-15.9
44.93,-314.874,-15.958
44.96,-315.927,-16.049
44.99,-317.05,-16.118
45.02,-317.892,-16.152
45.06,-318.735,-16.187
45.09,-319.577,-16.175
45.12,-320.244,-16.198
45.15,-321.016,-16.244
45.19,-321.507,-16.233
45.22,-322.244,-16.336
45.25,-322.841,-16.255
45.28,-323.508,-16.324
45.32,-323.964,-16.221
45.35,-324.28,-16.404
45.38,-325.473,-16.439
45.41,-325.684,-16.393
45.45,-326.175,-16.565
45.48,-326.631,-16.553
45.51,-327.122,-16.656
45.54,-327.614,-16.599
45.58,-328.035,-16.645
45.61,-328.456,-16.656
45.64,-328.983,-16.679
45.68,-329.263,-16.691
45.71,-329.649,-16.748
45.74,-329.965,-16.759
45.77,-330.492,-16.794
45.81,-330.421,-16.622
45.84,-330.562,-16.748
45.87,-331.404,-16.668
45.9,-331.474,-16.668
45.94,-331.755,-16.759
45.97,-332.001,-16.737
46.0,-332.317,-16.725
46.03,-332.492,-16.679
46.07,-332.738,-16.622
46.1,-332.878,-16.53
46.13,-333.018,-16.553
46.16,-333.194,-16.462
46.2,-333.264,-16.485
46.23,-333.44,-16.416
46.26,-333.475,-16.393
46.29,-333.65,-16.381
46.33,-333.755,-16.267
46.36,-333.791,-16.198
46.39,-333.826,-16.152
46.42,-333.861,-16.118
46.46,-333.931,-16.118
46.49,-333.931,-16.072
46.52,-333.931,-16.072
46.55,-334.036,-15.946
46.59,-334.001,-15.832
46.62,-333.931,-15.763
46.65,-333.861,-15.694
46.68,-333.791,-15.671
46.72,-333.72,-15.614
46.75,-333.615,-15.58
46.78,-333.405,-15.499
46.81,-333.194,-15.442
46.85,-332.948,-15.35
46.88,-332.632,-15.224
46.91,-332.106,-15.121
46.94,-331.474,-15.053
46.98,-330.421,-14.858
47.01,-328.877,-14.663
47.04,-327.684,-14.652
47.07,-326.491,-14.365
47.11,-324.35,-14.159
47.14,-322.209,-14.09
47.17,-320.454,-14.033
47.2,-318.7,-13.85
47.24,-316.243,-13.655
47.27,-313.47,-13.563
47.3,-310.838,-13.426
47.33,-308.311,-13.254
47.37,-305.504,-13.128
47.4,-302.591,-12.991
47.43,-299.538,-12.842
47.46,-296.344,-12.704
47.5,-293.045,-12.555
47.53,-289.851,-12.406
47.56,-286.412,-12.235
47.59,-282.903,-12.12
47.63,-279.744,-12.028
47.66,-276.796,-11.902
47.69,-273.743,-11.811
47.72,-270.76,-11.742
47.76,-267.812,-11.582
47.79,-264.583,-11.444
47.82,-261.354,-11.307
47.85,-258.231,-11.089
47.89,-254.756,-10.906
47.92,-251.387,-10.78
47.95,-248.088,-10.654
47.98,-244.719,-10.539
48.02,-241.525,-10.436
48.05,-238.472,-10.276
48.08,-235.243,-10.104
48.12,-231.909,-9.932
48.15,-228.61,-9.749
48.18,-225.241,-9.577
48.21,-221.837,-9.394
48.25,-218.327,-9.245
48.28,-214.958,-9.061
48.31,-211.414,-8.855
48.34,-207.764,-8.729
48.38,-204.149,-8.557
48.41,-200.464,-8.363
48.44,-196.638,-8.191
48.47,-192.813,-7.996
48.51,-188.918,-7.813
48.54,-184.952,-7.629
48.57,-180.916,-7.446
48.6,-176.845,-7.251
48.64,-172.739,-7.034
48.67,-168.457,-6.85
48.7,-164.211,-6.701
48.73,-159.859,-6.507
48.77,-155.507,-6.301
48.8,-151.155,-6.106
48.83,-146.733,-5.911
48.86,-142.276,-5.705
48.9,-137.854,-5.499
48.93,-133.327,-5.327
48.96,-128.764,-5.155
48.99,-124.237,-4.949
49.03,-119.675,-4.777
49.06,-115.112,-4.582
49.09,-110.515,-4.376
49.12,-105.988,-4.181
49.16,-101.39,-3.975
49.19,-96.828,-3.803
49.22,-92.125,-3.62
49.25,-87.563,-3.471
49.29,-82.965,-3.276
49.32,-78.403,-3.127
49.35,-73.911,-2.933
49.38,-69.348,-2.784
49.42,-64.751,-2.566
49.45,-60.364,-2.451
49.48,-55.731,-2.211
49.51,-51.309,-2.108
49.55,-46.501,-1.776
49.58,-42.43,-1.913
49.61,-38.078,-1.306
49.64,-32.007,-1.214
49.68,-28.778,-1.283
49.71,-24.216,-0.699
49.74,-18.741,-0.745
49.77,-14.459,-0.687
49.81,-10.388,-0.481
49.84,-5.685,-0.309
49.87,-1.404,-0.229
49.9,3.018,-0.08
49.94,7.475,0.011
49.97,11.792,0.195
50.0,16.039,0.481
50.03,20.285,0.859
50.07,24.356,1.272
50.1,28.392,1.821
50.13,32.603,2.325
50.16,36.99,2.738
50.2,41.553,3.013
50.23,46.15,3.139
50.26,50.397,3.288
50.29,54.713,3.448
50.33,58.749,3.551
50.36,62.68,3.677
50.39,66.646,3.849
50.42,70.401,3.975
50.46,74.016,4.124
50.49,77.631,4.296
50.52,81.245,4.491
50.55,84.966,4.674
50.59,88.686,4.857
50.62,92.3,5.063
50.65,95.95,5.235
50.69,99.495,5.407
50.72,103.215,5.567
50.75,106.935,5.728
50.78,110.48,5.9
50.82,114.095,6.152
50.85,117.78,6.312
50.88,121.359,6.564
50.91,125.185,6.724
50.95,128.835,6.976
50.98,132.695,7.08
51.01,135.818,7.228
51.04,140.381,7.618
51.08,144.031,7.492
51.11,147.681,8.007
51.14,152.278,8.099
51.17,156.033,8.271
51.21,159.929,8.466
51.24,163.789,8.569
51.27,167.439,8.718
51.3,171.054,8.878
51.34,174.669,9.038
51.37,178.214,9.233
51.4,181.723,9.394
51.43,185.233,9.565
51.47,188.918,9.737
51.5,192.462,9.863
51.53,195.691,9.989
51.56,198.885,10.184
51.6,202.148,10.333
51.63,205.342,10.505
51.66,208.536,10.688
51.69,211.729,10.837
51.73,214.923,10.952
51.76,217.976,11.055
51.79,220.889,11.226
51.82,223.872,11.375
51.86,226.855,11.501
51.89,229.628,11.696
51.92,232.365,11.868
51.95,235.103,11.983
51.99,237.56,12.086
52.02,240.016,12.2
52.05,242.473,12.326
52.08,245.0,12.475
52.12,247.772,12.693
52.15,250.79,12.865
52.18,253.668,13.002
52.21,256.371,13.071
52.25,258.827,13.162
52.28,261.214,13.266
52.31,263.39,13.403
52.34,265.601,13.552
52.38,267.776,13.724
52.41,270.023,13.896
52.44,272.339,13.999
52.47,274.55,14.102
52.51,276.796,14.193
52.54,278.902,14.285
52.57,280.972,14.388
52.6,282.903,14.526
52.64,285.008,14.64
52.67,287.079,14.778
52.7,289.114,14.881
52.73,291.08,14.961
52.77,293.045,15.064
52.8,294.8,15.121
52.83,296.8,15.236
52.86,298.169,15.247
52.9,300.204,15.557
52.93,302.38,15.465
52.96,303.433,15.499
52.99,305.328,15.637
53.03,306.171,15.431
53.06,306.873,15.751
53.09,309.435,15.843
53.12,310.242,15.671
53.16,311.646,16.015
53.19,312.944,15.877
53.22,313.962,16.118
53.26,315.295,16.061
53.29,316.208,16.141
53.32,317.296,16.187
53.35,318.208,16.221
53.39,318.98,16.255
53.42,319.717,16.267
53.45,320.349,16.255
53.48,320.981,16.29
53.52,321.507,16.324
53.55,322.139,16.416
53.58,322.771,16.462
53.61,323.332,16.553
53.65,323.929,16.622
53.68,324.525,16.679
53.71,325.157,16.622
53.74,325.684,16.611
53.78,326.245,16.611
53.81,326.631,16.565
53.84,327.087,16.668
53.87,327.614,16.691
53.91,328.0,16.737
53.94,328.421,16.771
53.97,328.983,16.748
54.0,329.333,16.748
54.04,329.755,16.691
54.07,329.965,16.748
54.1,330.421,16.737
54.13,330.07,16.702
54.17,330.667,16.989
54.2,331.369,16.805
54.23,331.509,16.817
54.26,331.931,16.737
54.3,332.106,16.702
54.33,332.457,16.668
54.36,332.597,16.622
54.39,332.773,16.633
54.43,332.913,16.633
54.46,333.089,16.633
54.49,333.299,16.588
54.52,333.44,16.53
54.56,333.475,16.519
54.59,333.685,16.462
54.62,333.72,16.416
54.65,333.826,16.416
54.69,333.896,16.381
54.72,333.966,16.324
54.75,334.106,16.21
54.78,334.036,16.141
54.82,334.071,16.141
54.85,334.142,16.084
54.88,334.036,16.049
54.91,334.036,16.038
54.95,334.001,16.026
54.98,334.036,15.946
55.01,333.931,15.832
55.04,333.791,15.786
55.08,333.755,15.728
55.11,333.545,15.625
55.14,333.369,15.511
55.17,333.054,15.431
55.21,332.597,15.396
55.24,332.211,15.259
55.27,331.615,15.121
55.3,330.632,14.961
55.34,328.912,14.766
55.37,327.684,14.766
55.4,326.596,14.549
55.43,324.49,14.388
55.47,322.595,14.274
55.5,320.63,14.079
55.53,318.77,13.93
55.56,316.418,13.712
55.6,313.751,13.586
55.63,311.295,13.472
55.66,308.592,13.323
55.7,305.609,13.254
55.73,302.766,13.082
55.76,299.608,12.899
55.79,296.344,12.761
55.83,293.08,12.635
55.86,289.886,12.521
55.89,286.833,12.441
55.92,283.534,12.292
55.96,280.095,12.177
55.99,276.936,12.074
56.02,273.883,11.948
56.05,270.935,11.799
56.09,267.812,11.662
56.12,264.653,11.513
56.15,261.459,11.375
56.18,258.125,11.226
56.22,254.826,11.1
56.25,251.527,10.917
56.28,248.264,10.734
56.31,244.965,10.573
56.35,241.736,10.436
56.38,238.472,10.31
56.41,235.173,10.195
56.44,231.874,10.058
56.48,228.61,9.875
56.51,225.346,9.657
56.54,221.977,9.474
56.57,218.573,9.279
56.61,215.028,9.096
56.64,211.484,8.97
56.67,207.904,8.786
56.7,204.184,8.615
56.74,200.569,8.397
56.77,196.849,8.122
56.8,192.918,7.881
56.83,189.093,7.732
56.87,185.233,7.561
56.9,181.302,7.389
56.93,177.09,7.228
56.96,172.844,7.091
57.0,168.562,6.942
57.03,164.386,6.701
57.06,160.069,6.461
57.09,155.717,6.243
57.13,151.331,6.071
57.16,146.838,5.9
57.19,142.416,5.716
57.22,137.924,5.567
57.26,133.397,5.407
57.29,128.905,5.189
57.32,124.377,4.972
57.35,119.815,4.8
57.39,115.182,4.628
57.42,110.69,4.445
57.45,106.128,4.273
57.48,101.53,4.101
57.52,96.863,3.918
57.55,92.371,3.723
57.58,87.808,3.482
57.61,83.211,3.265
57.65,78.543,3.093
57.68,74.051,2.933
57.71,69.383,2.784
57.74,64.996,2.589
57.78,60.434,2.348
57.81,55.872,2.188
57.84,51.309,1.97
57.87,46.677,1.833
57.91,42.079,1.673
57.94,37.517,1.524
57.97,32.954,1.34
58.0,28.462,1.168
58.04,23.97,0.939
58.07,19.443,0.768
58.1,14.951,0.55
58.13,10.493,0.401
58.17,5.896,0.229
58.2,1.544,0.172
58.23,-3.123,0.023
58.27,-7.44,0.011
58.3,-11.967,-0.378
58.33,-15.688,-0.344
58.36,-19.829,-1.157
58.4,-25.549,-1.375
58.43,-28.041,-1.695
58.46,-32.568,-2.577
58.49,-37.622,-2.692
58.53,-41.939,-3.024
58.56,-46.361,-3.162
58.59,-50.748,-3.299
58.62,-54.854,-3.414
58.66,-59.03,-3.597
58.69,-62.961,-3.643
58.72,-66.786,-3.792
58.75,-70.541,-3.849
58.79,-74.086,-4.055
58.82,-77.701,-4.239
58.85,-81.316,-4.445
58.88,-85.036,-4.662
58.92,-88.791,-4.869
58.95,-92.3,-5.086
58.98,-95.985,-5.315
59.01,-99.6,-5.418
59.05,-103.075,-5.613
59.08,-106.83,-5.797
59.11,-110.445,-5.98
59.14,-114.024,-6.175
59.18,-117.709,-6.323
59.21,-121.289,-6.507
59.24,-125.044,-6.679
59.27,-128.764,-6.839
59.31,-132.449,-7.045
59.34,-135.959,-7.263
59.37,-139.679,-7.492
59.4,-143.75,-7.698
59.44,-147.926,-7.859
59.47,-151.857,-8.042
59.5,-155.858,-8.237
59.53,-159.578,-8.397
59.57,-163.403,-8.615
59.6,-167.123,-8.729
59.63,-170.738,-8.89
59.66,-174.213,-9.004
59.7,-177.933,-9.187
59.73,-180.811,-9.187
59.76,-184.636,-9.68
59.79,-188.672,-9.611
59.83,-191.409,-9.817
59.86,-195.235,-10.138
59.89,-198.534,-10.104
59.92,-201.236,-10.299
59.96,-205.237,-10.573
59.99,-208.395,-10.447
60.02,-211.028,-10.803
60.05,-214.607,-10.952
60.09,-217.555,-11.055
60.12,-220.538,-11.238
60.15,-223.346,-11.387
60.18,-226.224,-11.559
60.22,-229.172,-11.673
60.25,-231.839,-11.799
60.28,-234.471,-11.948
60.31,-236.963,-12.074
60.35,-239.349,-12.223
60.38,-241.876,-12.361
60.41,-244.403,-12.487
60.44,-247.07,-12.635
60.48,-249.948,-12.807
60.51,-252.931,-12.968
60.54,-255.739,-13.128
60.57,-258.546,-13.3
60.61,-260.968,-13.38
60.64,-263.109,-13.506
60.67,-265.25,-13.552
60.7,-267.426,-13.621
60.74,-269.742,-13.701
60.77,-271.988,-13.792
60.8,-274.129,-13.953
60.84,-276.34,-14.113
60.87,-278.516,-14.251
60.9,-280.621,-14.354
60.93,-282.587,-14.48
60.97,-284.622,-14.64
61.0,-286.798,-14.732
61.03,-288.974,-14.812
61.06,-290.939,-14.915
61.1,-292.87,-15.041
61.13,-294.835,-15.121
61.16,-296.66,-15.213
61.19,-298.52,-15.305
61.23,-300.31,-15.373
61.26,-302.029,-15.408
61.29,-303.539,-15.476
61.32,-304.907,-15.58
61.36,-306.276,-15.671
61.39,-307.68,-15.694
61.42,-309.013,-15.717
61.45,-310.242,-15.763
61.49,-311.435,-15.797
61.52,-312.558,-15.877
61.55,-313.786,-15.946
61.58,-314.909,-16.003
61.62,-316.068,-16.095
61.65,-317.085,-16.152
61.68,-318.033,-16.175
61.71,-318.735,-16.21
61.75,-319.507,-16.244
61.78,-320.068,-16.255
61.81,-320.876,-16.301
61.84,-321.086,-16.267
61.88,-322.069,-16.427
61.91,-322.911,-16.278
61.94,-323.192,-16.404
61.97,-323.964,-16.45
62.01,-324.385,-16.519
62.04,-325.087,-16.519
62.07,-325.578,-16.519
62.1,-326.105,-16.588
62.14,-326.491,-16.656
62.17,-327.052,-16.714
62.2,-327.509,-16.725
62.23,-327.93,-16.759
62.27,-328.316,-16.759
62.3,-328.842,-16.771
62.33,-329.158,-16.737
62.36,-329.509,-16.84
62.4,-329.93,-16.782
62.43,-330.316,-16.817
62.46,-330.351,-16.679
62.49,-330.702,-16.725
62.53,-331.334,-16.599
62.56,-331.58,-16.622
62.59,-331.895,-16.576
62.62,-331.966,-16.622
62.66,-332.317,-16.645
62.69,-332.422,-16.633
62.72,-332.738,-16.645
62.75,-332.808,-16.565
62.79,-332.983,-16.599
62.82,-333.124,-16.519
62.85,-333.264,-16.507
62.88,-333.369,-16.462
62.92,-333.475,-16.45
62.95,-333.65,-16.381
62.98,-333.65,-16.336
63.01,-333.861,-16.278
63.05,-333.826,-16.187
63.08,-333.861,-16.198
63.11,-333.896,-16.152
63.14,-333.861,-16.164
63.18,-333.931,-16.106
63.21,-333.896,-16.049
63.24,-333.896,-15.98
63.28,-333.861,-15.923
63.31,-333.896,-15.832
63.34,-333.826,-15.717
63.37,-333.72,-15.66
63.41,-333.58,-15.602
63.44,-333.44,-15.511
63.47,-333.194,-15.431
63.5,-332.948,-15.362
63.54,-332.668,-15.247
63.57,-332.106,-15.133
63.6,-331.509,-15.018
63.63,-330.351,-14.823
63.67,-328.842,-14.755
63.7,-327.895,-14.686
63.73,-326.421,-14.434
63.76,-324.315,-14.342
63.8,-322.385,-14.193
63.83,-320.525,-14.067
63.86,-318.559,-13.93
63.89,-316.173,-13.77
63.93,-313.506,-13.666
63.96,-310.909,-13.563
63.99,-308.241,-13.437
64.02,-305.504,-13.323
64.06,-302.696,-13.105
64.09,-299.678,-12.91
64.12,-296.449,-12.761
64.15,-293.15,-12.624
64.19,-289.851,-12.487
64.22,-286.588,-12.338
64.25,-283.253,-12.223
64.28,-280.095,-12.074
64.32,-276.936,-11.925
64.35,-273.813,-11.822
64.38,-270.83,-11.708
64.41,-267.671,-11.616
64.45,-264.548,-11.513
64.48,-261.354,-11.364
64.51,-258.16,-11.192
64.54,-254.826,-11.009
64.58,-251.562,-10.848
64.61,-248.264,-10.688
64.64,-245.035,-10.528
64.67,-241.806,-10.379
64.71,-238.507,-10.23
64.74,-235.278,-10.058
64.77,-231.979,-9.886
64.8,-228.645,-9.714
64.84,-225.241,-9.554
64.87,-221.802,-9.416
64.9,-218.292,-9.29
64.93,-214.818,-9.13
64.97,-211.308,-8.981
65.0,-207.764,-8.798
65.03,-204.149,-8.592
65.06,-200.464,-8.385
65.1,-196.674,-8.191
65.13,-192.848,-8.019
65.16,-189.023,-7.859
65.19,-185.127,-7.664
65.23,-181.126,-7.458
65.26,-176.985,-7.251
65.29,-172.879,-7.034
65.32,-168.633,-6.816
65.36,-164.351,-6.61
65.39,-159.894,-6.449
65.42,-155.577,-6.266
65.45,-151.12,-6.094
65.49,-146.733,-5.888
65.52,-142.346,-5.659
65.55,-137.854,-5.453
65.58,-133.292,-5.304
65.62,-128.729,-5.121
65.65,-124.062,-4.983
65.68,-119.464,-4.869
65.71,-114.972,-4.685
65.75,-110.445,-4.502
65.78,-105.847,-4.319
65.81,-101.32,-4.113
65.85,-96.828,-3.895
65.88,-92.16,-3.666
65.91,-87.563,-3.528
65.94,-82.965,-3.345
65.98,-78.473,-3.185
66.01,-73.875,-2.978
66.04,-69.418,-2.772
66.07,-64.751,-2.543
66.11,-60.364,-2.394
66.14,-55.626,-2.154
66.17,-51.204,-2.051
66.2,-46.361,-1.764
66.24,-42.606,-1.879
66.27,-37.727,-1.203
66.3,-31.866,-1.34
66.33,-28.989,-1.249
66.37,-24.075,-0.699
66.4,-18.706,-0.756
66.43,-14.565,-0.699
66.46,-10.388,-0.481
66.5,-5.756,-0.355
66.53,-1.474,-0.286
66.56,2.948,-0.092
66.59,7.405,0.023
66.63,11.722,0.183
66.66,15.933,0.493
66.69,20.215,0.859
66.72,24.356,1.26
66.76,28.392,1.821
66.79,32.674,2.28
66.82,37.025,2.681
66.85,41.588,2.967
66.89,46.115,3.139
66.92,50.362,3.311
66.95,54.643,3.46
66.98,58.679,3.586
67.02,62.61,3.735
67.05,66.541,3.883
67.08,70.296,4.032
67.11,74.086,4.147
67.15,77.701,4.296
67.18,81.421,4.445
67.21,85.106,4.594
67.24,88.721,4.766
67.28,92.336,4.96
67.31,95.95,5.166
67.34,99.46,5.361
67.37,103.145,5.579
67.41,106.865,5.728
67.44,110.445,5.888
67.47,114.024,6.152
67.5,117.78,6.335
67.54,121.465,6.553
67.57,125.29,6.69
67.6,129.01,6.965
67.63,132.695,7.022
67.67,135.854,7.263
67.7,140.556,7.561
67.73,143.89,7.469
67.76,147.681,8.042
67.8,152.383,8.053
67.83,156.104,8.225
67.86,159.964,8.42
67.89,163.649,8.58
67.93,167.299,8.729
67.96,171.054,8.89
67.99,174.669,9.05
68.02,178.319,9.199
68.06,181.758,9.325
68.09,185.127,9.554
68.12,188.637,9.737
68.15,192.146,9.886
68.19,195.586,10.001
68.22,198.92,10.161
68.25,202.184,10.321
68.28,205.518,10.482
68.32,208.746,10.631
68.35,211.8,10.78
68.38,214.748,10.963
68.42,217.836,11.135
68.45,220.854,11.295
68.48,223.872,11.375
68.51,226.75,11.547
68.55,229.593,11.685
68.58,232.33,11.799
68.61,234.998,11.971
68.64,237.63,12.051
68.68,240.016,12.177
68.71,242.438,12.338
68.74,245.035,12.498
68.77,247.948,12.681
68.81,250.966,12.807
68.84,253.703,12.956
68.87,256.195,13.105
68.9,258.687,13.254
68.94,261.108,13.369
68.97,263.249,13.46
69.0,265.53,13.563
69.03,267.741,13.678
69.07,270.023,13.804
69.1,272.234,13.918
69.13,274.515,14.045
69.16,276.831,14.102
69.2,278.972,14.193
69.23,280.937,14.331
69.26,282.973,14.468
69.29,285.008,14.571
69.33,287.114,14.697
69.36,289.114,14.789
69.39,291.01,14.892
69.42,292.94,14.972
69.46,294.94,15.11
69.49,296.8,15.179
69.52,298.59,15.305
69.55,300.31,15.339
69.59,302.029,15.476
69.62,303.503,15.454
69.65,305.048,15.648
69.68,306.206,15.454
69.72,306.943,15.683
69.75,309.505,15.763
69.78,310.136,15.637
69.81,311.646,16.026
69.85,312.944,15.797
69.88,313.997,16.049
69.91,315.366,15.992
69.94,316.243,16.106
69.98,317.401,16.152
70.01,318.173,16.21
70.04,318.945,16.244
70.07,319.682,16.278
70.11,320.279,16.301
70.14,320.946,16.381
70.17,321.683,16.359
70.2,322.244,16.381
70.24,322.876,16.393
70.27,323.367,16.473
70.3,324.069,16.519
70.33,324.596,16.553
70.37,325.122,16.622
70.4,325.684,16.668
70.43,326.21,16.668
70.46,326.736,16.633
70.5,327.158,16.588
70.53,327.614,16.656
70.56,328.07,16.656
70.59,328.421,16.702
70.63,328.877,16.794
70.66,329.263,16.817
70.69,329.755,16.748
70.72,330.035,16.725
70.76,330.351,16.759
70.79,330.176,16.691
70.82,330.737,16.851
70.86,331.299,16.771
70.89,331.474,16.828
70.92,331.895,16.771
70.95,332.106,16.714
70.99,332.422,16.679
71.02,332.562,16.622
71.05,332.773,16.611
71.08,332.948,16.553
71.12,333.054,16.553
71.15,333.264,16.53
71.18,333.405,16.473
71.21,333.51,16.462
71.25,333.65,16.427
71.28,333.72,16.416
71.31,333.861,16.359
71.34,333.896,16.301
71.38,333.931,16.29
71.41,333.966,16.255
71.44,334.071,16.187
71.47,333.966,16.187
71.51,334.071,16.175
71.54,334.106,16.084
71.57,334.071,16.003
71.6,334.071,15.9
71.64,334.071,15.774
71.67,333.931,15.694
71.7,333.896,15.66
71.73,333.791,15.591
71.77,333.545,15.557
71.8,333.299,15.499
71.83,333.054,15.419
71.86,332.703,15.316
71.9,332.176,15.213
71.93,331.72,15.075
71.96,330.632,14.835
71.99,329.053,14.675
72.03,327.93,14.675
72.06,326.631,14.434
72.09,324.631,14.297
72.12,322.63,14.171
72.16,320.665,14.079
72.19,318.7,13.918
72.22,316.278,13.735
72.25,313.821,13.575
72.29,311.259,13.414
72.32,308.557,13.311
72.35,305.75,13.197
72.38,302.731,13.059
72.42,299.678,12.899
72.45,296.555,12.716
72.48,293.256,12.555
72.51,289.957,12.475
72.55,286.693,12.372
72.58,283.534,12.189
72.61,280.2,12.051
72.64,277.042,11.971
72.68,273.953,11.891
72.71,270.935,11.742
72.74,267.917,11.616
72.77,264.758,11.467
72.81,261.494,11.307
72.84,258.16,11.169
72.87,254.897,11.009
72.9,251.598,10.848
72.94,248.299,10.699
72.97,245.0,10.551
73.0,241.736,10.402
73.03,238.402,10.264
73.07,235.138,10.173
73.1,231.944,9.989
73.13,228.61,9.84
73.16,225.311,9.691
73.2,222.012,9.474
73.23,218.643,9.302
73.26,215.239,9.061
73.29,211.519,8.89
73.33,207.939,8.729
73.36,204.324,8.523
73.39,200.534,8.34
73.43,196.709,8.179
73.46,192.953,7.973
73.49,189.023,7.767
73.52,185.092,7.606
73.56,181.056,7.423
73.59,176.88,7.297
73.62,172.844,7.091
73.65,168.597,6.896
73.69,164.351,6.713
73.72,160.104,6.472
73.75,155.647,6.289
73.78,151.366,6.083
73.82,146.838,5.888
73.85,142.346,5.728
73.88,137.889,5.522
73.91,133.362,5.338
73.95,128.764,5.189
73.98,124.307,4.972
74.01,119.815,4.731
74.04,115.182,4.559
74.08,110.62,4.376
74.11,106.058,4.204
74.14,101.39,4.044
74.17,96.758,3.895
74.21,92.195,3.757
74.24,87.738,3.528
74.27,83.176,3.322
74.3,78.613,3.127
74.34,74.121,2.933
74.37,69.559,2.784
74.4,65.137,2.566
74.43,60.434,2.417
74.47,55.907,2.245
74.5,51.344,2.005
74.53,46.747,1.799
74.56,42.114,1.592
74.6,37.411,1.432
74.63,32.919,1.272
74.66,28.357,1.088
74.69,23.795,0.928
74.73,19.337,0.71
74.76,14.845,0.515
74.79,10.283,0.367
74.82,5.931,0.252
74.86,1.439,0.103
74.89,-3.159,0.069
74.92,-7.475,-0.08
74.95,-11.792,-0.241
74.99,-16.109,-0.596
75.02,-20.285,-0.882
75.05,-24.286,-1.432
75.08,-28.497,-1.821
75.12,-31.691,-2.291
75.15,-37.868,-3.036
75.18,-41.974,-2.658
75.21,-45.659,-3.311
75.25,-51.099,-3.345
75.28,-54.959,-3.402
75.31,-59.1,-3.62
75.34,-62.996,-3.689
75.38,-66.646,-3.815
75.41,-70.401,-4.032
75.44,-74.191,-4.124
75.47,-77.736,-4.296
75.51,-81.386,-4.445
75.54,-84.93,-4.685
75.57,-88.651,-4.892
75.6,-92.371,-5.063
75.64,-96.021,-5.224
75.67,-99.67,-5.396
75.7,-103.285,-5.567
75.73,-106.935,-5.739
75.77,-110.445,-5.945
75.8,-114.024,-6.175
75.83,-117.639,-6.369
75.86,-121.219,-6.575
75.9,-124.904,-6.793
75.93,-128.764,-6.965
75.96,-132.59,-7.102
76.0,-136.029,-7.263
76.03,-139.679,-7.503
76.06,-143.715,-7.71
76.09,-147.856,-7.893
76.13,-151.962,-8.065
76.16,-155.893,-8.237
76.19,-159.648,-8.385
76.22,-163.474,-8.5
76.26,-167.123,-8.66
76.29,-170.738,-8.844
76.32,-174.283,-9.016
76.35,-177.827,-9.164
76.39,-181.302,-9.336
76.42,-184.846,-9.485
76.45,-188.181,-9.668
76.48,-191.866,-9.852
76.52,-194.533,-9.921
76.55,-198.499,-10.344
76.58,-201.517,-10.127
76.61,-204.745,-10.631
76.65,-208.501,-10.573
76.68,-211.203,-10.837
76.71,-214.748,-10.997
76.74,-217.696,-11.089
76.78,-220.644,-11.295
76.81,-223.486,-11.456
76.84,-226.259,-11.616
76.87,-229.102,-11.742
76.91,-231.909,-11.788
76.94,-234.471,-11.891
76.97,-237.068,-12.005
77.0,-239.455,-12.097
77.04,-241.806,-12.235
77.07,-244.368,-12.418
77.1,-247.07,-12.601
77.13,-249.983,-12.796
77.17,-253.072,-12.968
77.2,-255.879,-13.094
77.23,-258.722,-13.22
77.26,-261.179,-13.266
77.3,-263.214,-13.369
77.33,-265.39,-13.506
77.36,-267.461,-13.621
77.39,-269.742,-13.735
77.43,-271.953,-13.873
77.46,-274.164,-14.01
77.49,-276.34,-14.113
77.52,-278.516,-14.205
77.56,-280.621,-14.319
77.59,-282.622,-14.4
77.62,-284.727,-14.468
77.65,-286.693,-14.571
77.69,-288.728,-14.686
77.72,-290.623,-14.732
77.75,-292.589,-14.904
77.78,-294.73,-15.007
77.82,-296.66,-15.098
77.85,-298.555,-15.213
77.88,-300.24,-15.259
77.91,-301.889,-15.35
77.95,-303.468,-15.419
77.98,-304.872,-15.499
78.01,-306.276,-15.591
78.04,-307.539,-15.683
78.08,-308.908,-15.751
78.11,-310.136,-15.786
78.14,-311.33,-15.843
78.17,-312.593,-15.923
78.21,-313.857,-15.946
78.24,-315.05,-15.992
78.27,-316.173,-16.061
78.3,-317.155,-16.129
78.34,-318.068,-16.198
78.37,-318.875,-16.198
78.4,-319.577,-16.198
78.43,-320.244,-16.233
78.47,-320.876,-16.244
78.5,-321.472,-16.267
78.53,-322.139,-16.301
78.57,-322.701,-16.37
78.6,-323.262,-16.427
78.63,-323.929,-16.473
78.66,-324.525,-16.485
78.7,-325.157,-16.439
78.73,-325.227,-16.416
78.76,-326.07,-16.599
78.79,-326.701,-16.496
78.83,-327.017,-16.645
78.86,-327.544,-16.668
78.89,-327.895,-16.725
78.92,-328.351,-16.748
78.96,-328.807,-16.771
78.99,-329.228,-16.771
79.02,-329.614,-16.771
79.05,-329.895,-16.771
79.09,-330.386,-16.782
79.12,-330.281,-16.668
79.15,-330.316,-16.828
79.18,-331.334,-16.759
79.22,-331.474,-16.633
79.25,-331.79,-16.656
79.28,-331.966,-16.599
79.31,-332.246,-16.656
79.35,-332.422,-16.633
79.38,-332.632,-16.645
79.41,-332.843,-16.553
79.44,-332.948,-16.519
79.48,-333.089,-16.485
79.51,-333.229,-16.485
79.54,-333.369,-16.45
79.57,-333.44,-16.404
79.61,-333.58,-16.359
79.64,-333.615,-16.301
79.67,-333.685,-16.255
79.7,-333.791,-16.221
79.74,-333.755,-16.21
79.77,-333.791,-16.187
79.8,-333.896,-16.141
79.83,-333.931,-16.038
79.87,-333.896,-15.958
79.9,-333.896,-15.912
79.93,-333.896,-15.832
79.96,-333.791,-15.763
80.0,-333.755,-15.683
80.03,-333.615,-15.637
80.06,-333.545,-15.625
80.09,-333.369,-15.499
80.13,-333.124,-15.442
80.16,-332.913,-15.35
80.19,-332.562,-15.236
80.22,-332.071,-15.133
80.26,-331.474,-14.984
80.29,-330.527,-14.904
80.32,-329.053,-14.675
80.35,-327.614,-14.629
80.39,-326.421,-14.457
80.42,-324.35,-14.285
80.45,-322.314,-14.159
80.48,-320.349,-14.033
80.52,-318.559,-13.896
80.55,-316.138,-13.678
80.58,-313.47,-13.621
80.61,-310.979,-13.518
80.65,-308.452,-13.357
80.68,-305.539,-13.208
80.71,-302.661,-13.059
80.74,-299.643,-12.865
80.78,-296.309,-12.716
80.81,-293.045,-12.59
80.84,-289.781,-12.429
80.87,-286.552,-12.257
80.91,-283.218,-12.154
80.94,-280.06,-12.017
80.97,-276.971,-11.891
81.01,-273.848,-11.788
81.04,-270.865,-11.685
81.07,-267.812,-11.524
81.1,-264.583,-11.421
81.14,-261.424,-11.295
81.17,-258.16,-11.112
81.2,-254.826,-10.94
81.23,-251.492,-10.803
81.27,-248.123,-10.688
81.3,-244.93,-10.539
81.33,-241.56,-10.402
81.36,-238.297,-10.299
81.4,-235.103,-10.115
81.43,-231.804,-9.966
81.46,-228.575,-9.772
81.49,-225.241,-9.588
81.53,-221.872,-9.405
81.56,-218.398,-9.256
81.59,-214.923,-9.096
81.62,-211.378,-8.912
81.66,-207.799,-8.741
81.69,-204.079,-8.557
81.72,-200.359,-8.374
81.75,-196.638,-8.145
81.79,-192.743,-8.007
81.82,-188.953,-7.836
81.85,-184.952,-7.664
81.88,-180.986,-7.48
81.92,-176.88,-7.274
81.95,-172.739,-7.068
81.98,-168.562,-6.873
82.01,-164.316,-6.633
82.05,-159.964,-6.438
82.08,-155.542,-6.278
82.11,-151.225,-6.094
82.14,-146.768,-5.888
82.18,-142.311,-5.693
82.21,-137.854,-5.51
82.24,-133.362,-5.315
82.27,-128.799,-5.109
82.31,-124.342,-4.914
82.34,-119.71,-4.743
82.37,-115.147,-4.605
82.4,-110.62,-4.41
82.44,-105.988,-4.261
82.47,-101.495,-4.055
82.5,-96.898,-3.838
82.53,-92.3,-3.62
82.57,-87.738,-3.471
82.6,-83.176,-3.276
82.63,-78.543,-3.139
82.66,-74.016,-2.944
82.7,-69.453,-2.795
82.73,-64.856,-2.577
82.76,-60.469,-2.429
82.79,-55.801,-2.177
82.83,-51.274,-2.085
82.86,-46.606,-1.776
82.89,-42.255,-1.867
82.92,-38.289,-1.409
82.96,-31.937,-1.134
82.99,-28.392,-1.42
83.02,-24.321,-0.813
83.05,-18.811,-0.745
83.09,-14.424,-0.676
83.12,-10.458,-0.481
83.15,-5.826,-0.218
83.18,-1.369,-0.206
83.22,2.983,-0.069
83.25,7.475,0.034
83.28,11.792,0.218
83.31,16.039,0.493
83.35,20.25,0.871
83.38,24.391,1.283
83.41,28.392,1.821
83.44,32.358,2.337
83.48,36.815,2.761
83.51,41.377,3.001
83.54,45.834,3.185
83.58,50.256,3.311
83.61,54.643,3.391
83.64,58.714,3.494
83.67,62.645,3.62
83.71,66.576,3.769
83.74,70.261,3.929
83.77,73.84,4.113
83.8,77.42,4.273
83.84,81.0,4.468
83.87,84.615,4.708
83.9,88.44,4.903
83.93,92.195,5.029
83.97,95.74,5.224
84.0,99.425,5.396
84.03,103.11,5.579
84.06,106.83,5.728
84.1,110.48,5.911
84.13,114.13,6.117
84.16,117.744,6.289
84.19,121.359,6.507
84.23,125.114,6.724
84.26,128.87,6.919
84.29,132.625,7.137
84.32,136.38,7.286
84.36,139.995,7.458
84.39,143.89,7.675
84.42,147.997,7.847
84.45,151.962,8.053
84.49,155.788,8.248
84.52,159.613,8.443
84.55,163.474,8.603
84.58,167.369,8.741
84.62,171.054,8.867
84.65,174.634,9.027
84.68,178.249,9.176
84.71,181.863,9.348
84.75,185.268,9.531
84.78,188.742,9.703
84.81,192.322,9.852
84.84,195.621,9.932
84.88,198.814,10.081
84.91,202.043,10.218
84.94,205.167,10.379
84.97,208.395,10.585
85.01,211.659,10.699
85.04,214.677,10.906
85.07,217.766,11.089
85.1,220.854,11.226
85.14,223.732,11.398
85.17,226.645,11.559
85.2,229.382,11.753
85.23,232.26,11.914
85.27,234.962,12.028
85.3,237.56,12.143
85.33,240.051,12.2
85.36,242.438,12.315
85.4,245.0,12.464
85.43,247.737,12.624
85.46,250.72,12.796
85.49,253.633,12.922
85.53,256.16,13.059
85.56,258.722,13.22
85.59,261.214,13.288
85.62,263.39,13.357
85.66,265.601,13.495
85.69,267.741,13.632
85.72,270.058,13.781
85.75,272.304,13.907
85.79,274.62,14.033
85.82,276.866,14.102
85.85,279.042,14.193
85.88,281.007,14.274
85.92,282.903,14.377
85.95,285.043,14.526
85.98,287.289,14.617
86.01,289.185,14.697
86.05,291.045,14.869
86.08,293.045,14.915
86.11,294.975,15.007
86.15,296.8,15.098
86.18,298.555,15.236
86.21,300.24,15.27
86.24,301.924,15.431
86.28,303.328,15.431
86.31,304.837,15.66
86.34,305.995,15.454
86.37,306.732,15.671
86.41,309.189,15.797
86.44,309.856,15.694
86.47,311.47,15.992
86.5,312.558,15.854
86.54,313.611,16.164
86.57,315.05,16.061
86.6,316.103,16.152
86.63,317.261,16.118
86.67,318.103,16.152
86.7,318.84,16.198
86.73,319.647,16.244
86.76,320.349,16.198
86.8,320.981,16.255
86.83,321.683,16.301
86.86,322.279,16.313
86.89,322.981,16.313
86.93,323.402,16.404
86.96,324.069,16.507
86.99,324.596,16.542
87.02,325.192,16.565
87.06,325.719,16.565
87.09,326.28,16.519
87.12,326.736,16.507
87.15,327.193,16.542
87.19,327.544,16.656
87.22,328.0,16.702
87.25,328.421,16.714
87.28,328.912,16.725
87.32,329.333,16.714
87.35,329.614,16.725
87.38,329.965,16.782
87.41,330.316,16.737
87.45,330.07,16.748
87.48,330.737,16.908
87.51,331.264,16.771
87.54,331.474,16.817
87.58,331.86,16.725
87.61,332.141,16.645
87.64,332.422,16.611
87.67,332.492,16.622
87.71,332.738,16.645
87.74,332.913,16.633
87.77,333.018,16.656
87.8,333.229,16.622
87.84,333.334,16.588
87.87,333.58,16.485
87.9,333.65,16.416
87.93,333.72,16.37
87.97,333.755,16.359
88.0,333.931,16.29
88.03,333.826,16.278
88.06,333.861,16.324
88.1,334.071,16.221
88.13,334.071,16.118
88.16,334.071,16.026
88.19,334.001,16.003
88.23,334.106,15.958
88.26,334.071,15.889
88.29,333.966,15.843
88.32,333.931,15.763
88.36,333.861,15.66
88.39,333.755,15.534
88.42,333.615,15.442
88.45,333.334,15.385
88.49,333.054,15.316
88.52,332.668,15.27
88.55,332.211,15.19
88.59,331.685,15.075
88.62,330.597,14.812
88.65,329.053,14.732
88.68,328.316,14.64
88.72,326.772,14.354
88.75,324.49,14.331
88.78,322.63,14.239
88.81,320.805,14.148
88.85,318.945,13.918
88.88,316.348,13.747
88.91,313.751,13.666
88.94,311.365,13.495
88.98,308.733,13.346
89.01,305.89,13.197
89.04,302.907,13.048
89.07,299.854,12.899
89.11,296.73,12.727
89.14,293.501,12.544
89.17,290.202,12.406
89.2,286.938,12.303
89.24,283.64,12.223
89.27,280.411,12.154
89.3,277.182,12.028
89.33,274.059,11.891
89.37,271.005,11.753
89.4,267.987,11.604
89.43,264.864,11.456
89.46,261.67,11.318
89.5,258.441,11.181
89.53,255.072,11.043
89.56,251.738,10.929
89.59,248.439,10.78
89.63,245.21,10.585
89.66,241.911,10.413
89.69,238.647,10.264
89.72,235.384,10.138
89.76,232.085,9.978
89.79,228.751,9.817
89.82,225.417,9.646
89.85,222.083,9.474
89.89,218.678,9.29
89.92,215.309,9.061
89.95,211.694,8.855
89.98,208.009,8.706
90.02,204.395,8.534
90.05,200.604,8.34
90.08,196.638,8.156
90.11,192.848,7.985
90.15,189.058,7.778
90.18,185.197,7.606
90.21,181.161,7.446
90.24,177.09,7.263
90.28,173.019,7.022
90.31,168.668,6.873
90.34,164.421,6.679
90.37,160.139,6.449
90.41,155.788,6.243
90.44,151.366,6.071
90.47,146.838,5.911
90.5,142.381,5.751
90.54,137.924,5.579
90.57,133.362,5.407
90.6,128.835,5.212
90.63,124.377,5.018
90.67,119.92,4.788
90.7,115.358,4.548
90.73,110.76,4.365
90.76,106.163,4.193
90.8,101.566,4.032
90.83,96.898,3.826
90.86,92.3,3.643
90.89,87.633,3.482
90.93,83.141,3.322
90.96,78.683,3.104
90.99,74.086,2.944
91.02,69.559,2.772
91.06,65.031,2.577
91.09,60.469,2.417
91.12,55.942,2.234
91.16,51.344,2.028
91.19,46.922,1.81
91.22,42.325,1.604
91.25,37.622,1.42
91.29,33.13,1.272
91.32,28.532,1.1
91.35,23.935,0.939
91.38,19.337,0.779
91.42,14.81,0.653
91.45,10.353,0.458
91.48,5.896,0.344
91.51,1.439,0.172
91.55,-2.983,0.069
91.58,-7.51,-0.103
91.61,-11.722,-0.241
91.64,-16.144,-0.607
91.68,-20.145,-0.894
91.71,-24.602,-1.455
91.74,-27.795,-1.661
91.77,-32.603,-2.669
91.81,-38.113,-2.577
91.84,-41.132,-2.875
91.87,-46.536,-3.265
91.9,-50.783,-3.139
91.94,-54.819,-3.494
91.97,-59.065,-3.517
92.0,-62.82,-3.597
92.03,-66.646,-3.769
92.07,-70.576,-3.883
92.1,-74.016,-4.021
92.13,-77.525,-4.25
92.16,-81.105,-4.433
92.2,-84.895,-4.662
92.23,-88.615,-4.834
92.26,-92.195,-5.04
92.29,-95.915,-5.201
92.33,-99.53,-5.361
92.36,-103.04,-5.51
92.39,-106.584,-5.728
92.42,-110.304,-5.923
92.46,-113.849,-6.083
92.49,-117.464,-6.312
92.52,-121.149,-6.507
92.55,-124.834,-6.736
92.59,-128.624,-6.931
92.62,-132.449,-7.068
92.65,-135.959,-7.24
92.68,-139.644,-7.412
92.72,-143.68,-7.641
92.75,-147.891,-7.836
92.78,-151.822,-8.053
92.81,-155.717,-8.225
92.85,-159.543,-8.397
92.88,-163.333,-8.546
92.91,-167.088,-8.729
92.94,-170.668,-8.855
92.98,-174.283,-9.061
93.01,-177.933,-9.164
93.04,-181.548,-9.382
93.07,-184.952,-9.439
93.11,-188.531,-9.703
93.14,-191.62,-9.646
93.17,-194.884,-10.115
93.2,-199.06,-10.104
93.24,-200.885,-10.138
93.27,-205.132,-10.699
93.3,-208.43,-10.425
93.33,-211.133,-10.837
93.37,-214.713,-10.906
93.4,-217.625,-10.997
93.43,-220.538,-11.181
93.46,-223.557,-11.387
93.5,-226.329,-11.524
93.53,-229.172,-11.673
93.56,-231.769,-11.788
93.59,-234.436,-11.925
93.63,-236.998,-11.96
93.66,-239.244,-12.086
93.69,-241.666,-12.292
93.73,-244.263,-12.452
93.76,-246.895,-12.578
93.79,-249.808,-12.784
93.82,-252.826,-12.933
93.86,-255.704,-13.071
93.89,-258.582,-13.174
93.92,-261.003,-13.243
93.95,-263.144,-13.38
93.99,-265.285,-13.506
94.02,-267.461,-13.609
94.05,-269.777,-13.689
94.08,-271.988,-13.804
94.12,-274.164,-13.93
94.15,-276.34,-14.079
94.18,-278.516,-14.193
94.21,-280.692,-14.297
94.25,-282.622,-14.434
94.28,-284.763,-14.549
94.31,-286.833,-14.64
94.34,-288.974,-14.72
94.38,-290.904,-14.812
94.41,-292.799,-14.927
94.44,-294.8,-15.064
94.47,-296.695,-15.144
94.51,-298.59,-15.213
94.54,-300.24,-15.27
94.57,-301.819,-15.385
94.6,-303.503,-15.419
94.64,-304.837,-15.488
94.67,-306.241,-15.58
94.7,-307.504,-15.648
94.73,-308.803,-15.706
94.77,-310.136,-15.728
94.8,-311.295,-15.763
94.83,-312.453,-15.854
94.86,-313.681,-15.958
94.9,-314.874,-16.015
94.93,-316.032,-16.095
94.96,-317.085,-16.141
94.99,-317.963,-16.198
95.03,-318.77,-16.267
95.06,-319.472,-16.301
95.09,-320.244,-16.267
95.12,-320.981,-16.221
95.16,-321.542,-16.21
95.19,-322.174,-16.255
95.22,-322.771,-16.301
95.25,-323.438,-16.324
95.29,-323.964,-16.37
95.32,-324.701,-16.393
95.35,-324.771,-16.301
95.38,-325.438,-16.542
95.42,-326.28,-16.485
95.45,-326.456,-16.588
95.48,-327.052,-16.679
95.51,-327.473,-16.668
95.55,-327.895,-16.737
95.58,-328.351,-16.771
95.61,-328.842,-16.748
95.64,-329.158,-16.725
95.68,-329.614,-16.771
95.71,-329.86,-16.748
95.74,-330.457,-16.828
95.77,-330.386,-16.702
95.81,-330.457,-16.828
95.84,-331.439,-16.771
95.87,-331.474,-16.622
95.9,-331.86,-16.691
95.94,-332.036,-16.553
95.97,-332.317,-16.622
96.0,-332.492,-16.565
96.03,-332.597,-16.588
96.07,-332.808,-16.553
96.1,-332.913,-16.542
96.13,-333.194,-16.507
96.17,-333.264,-16.404
96.2,-333.334,-16.404
96.23,-333.44,-16.37
96.26,-333.545,-16.324
96.3,-333.615,-16.313
96.33,-333.755,-16.233
96.36,-333.791,-16.164
96.39,-333.861,-16.072
96.43,-333.896,-16.015
96.46,-333.861,-16.015
96.49,-333.931,-15.958
96.52,-333.896,-15.9
96.56,-333.966,-15.866
96.59,-333.931,-15.786
96.62,-333.861,-15.728
96.65,-333.791,-15.671
96.69,-333.72,-15.591
96.72,-333.58,-15.534
96.75,-333.405,-15.522
96.78,-333.159,-15.488
96.82,-332.878,-15.431
96.85,-332.668,-15.328
96.88,-332.211,-15.156
96.91,-331.58,-15.041
96.95,-330.562,-14.858
96.98,-329.053,-14.709
97.01,-327.93,-14.606
97.04,-326.596,-14.365
97.08,-324.525,-14.274
97.11,-322.42,-14.136
97.14,-320.56,-14.022
97.17,-318.665,-13.873
97.21,-316.173,-13.747
97.24,-313.646,-13.632
97.27,-311.119,-13.472
97.3,-308.347,-13.357
97.34,-305.644,-13.208
97.37,-302.626,-13.071
97.4,-299.608,-12.956
97.43,-296.484,-12.75
97.47,-293.15,-12.601
97.5,-289.957,-12.441
97.53,-286.623,-12.28
97.56,-283.359,-12.154
97.6,-280.13,-12.005
97.63,-276.936,-11.891
97.66,-273.883,-11.788
97.69,-270.9,-11.662
97.73,-267.847,-11.524
97.76,-264.653,-11.444
97.79,-261.459,-11.318
97.82,-258.231,-11.158
97.86,-254.897,-10.986
97.89,-251.527,-10.883
97.92,-248.334,-10.711
97.95,-245.105,-10.528
97.99,-241.771,-10.39
98.02,-238.472,-10.241
98.05,-235.208,-10.092
98.08,-231.944,-9.921
98.12,-228.645,-9.737
98.15,-225.276,-9.588
98.18,-221.907,-9.394
98.21,-218.398,-9.256
98.25,-214.923,-9.096
98.28,-211.414,-8.924
98.31,-207.834,-8.752
98.34,-204.254,-8.534
98.38,-200.534,-8.328
98.41,-196.779,-8.133
98.44,-192.918,-7.927
98.47,-188.988,-7.755
98.51,-185.057,-7.584
98.54,-180.986,-7.423
98.57,-176.845,-7.286
98.6,-172.704,-7.102
98.64,-168.527,-6.908
98.67,-164.316,-6.69
98.7,-159.999,-6.472
98.74,-155.577,-6.266
98.77,-151.225,-6.094
98.8,-146.803,-5.9
98.83,-142.311,-5.728
98.87,-137.889,-5.522
98.9,-133.327,-5.327
98.93,-128.729,-5.155
98.96,-124.202,-4.972
99.0,-119.569,-4.8
99.03,-114.972,-4.651
99.06,-110.41,-4.445
99.09,-105.917,-4.25
99.13,-101.285,-4.044
99.16,-96.758,-3.883
99.19,-92.16,-3.677
99.22,-87.598,-3.528
99.26,-82.965,-3.379
99.29,-78.438,-3.242
99.32,-73.946,-3.024
99.35,-69.453,-2.852
99.39,-64.891,-2.6
99.42,-60.434,-2.451
99.45,-55.801,-2.188
99.48,-51.379,-2.073
99.52,-46.606,-1.764
99.55,-42.325,-1.913
99.58,-38.289,-1.42
99.61,-32.042,-1.214
99.65,-28.603,-1.432
99.68,-24.461,-0.779
99.71,-18.987,-0.722
99.74,-14.6,-0.676
99.78,-10.529,-0.527
99.81,-5.931,-0.321
99.84,-1.509,-0.263
99.87,2.843,-0.103
99.91,7.37,0.011
99.94,11.687,0.195
99.97,15.933,0.47
100.0,20.215,0.859
100.04,24.286,1.249
100.07,28.357,1.799
100.1,32.463,2.303
100.13,36.885,2.704
100.17,41.518,2.99
100.2,45.905,3.196
100.23,50.327,3.334
100.26,54.678,3.402
100.3,58.679,3.482
100.33,62.68,3.608
100.36,66.47,3.78
100.39,70.261,3.964
100.43,73.911,4.135
100.46,77.56,4.33
100.49,81.245,4.502
100.52,84.966,4.639
100.56,88.545,4.811
100.59,92.09,5.018
100.62,95.775,5.224
100.65,99.53,5.373
100.69,103.11,5.556
100.72,106.689,5.739
100.75,110.41,5.911
100.78,113.989,6.117
100.82,117.639,6.278
100.85,121.254,6.495
100.88,125.114,6.69
100.91,128.835,6.896
100.95,132.835,7.091
100.98,135.854,7.16
101.01,140.17,7.675
101.04,144.276,7.469
101.08,147.61,7.87
101.11,152.278,8.076
101.14,156.139,8.179
101.17,159.859,8.466
101.21,163.684,8.626
101.24,167.369,8.786
101.27,170.949,8.924
101.31,174.634,9.061
101.34,178.143,9.233
101.37,181.758,9.348
101.4,185.162,9.52
101.44,188.742,9.691
101.47,192.181,9.852
101.5,195.586,10.001
101.53,198.955,10.127
101.57,202.289,10.23
101.6,205.412,10.402
101.63,208.641,10.596
101.66,211.8,10.734
101.7,214.783,10.906
101.73,217.801,11.055
101.76,220.749,11.215
101.79,223.767,11.307
101.83,226.61,11.467
101.86,229.312,11.696
101.89,232.155,11.868
101.92,234.857,12.04
101.96,237.524,12.177
101.99,239.946,12.246
102.02,242.403,12.349
102.05,245.0,12.498
102.09,247.807,12.67
102.12,250.826,12.865
102.15,253.668,13.025
102.18,256.265,13.14
102.22,258.722,13.311
102.25,261.143,13.38
102.28,263.354,13.403
102.31,265.53,13.518
102.35,267.706,13.632
102.38,269.987,13.804
102.41,272.269,13.953
102.44,274.48,14.136
102.48,276.726,14.274
102.51,278.937,14.331
102.54,280.902,14.411
102.57,282.903,14.526
102.61,284.973,14.64
102.64,287.114,14.766
102.67,289.114,14.869
102.7,291.045,14.972
102.74,292.94,15.098
102.77,294.905,15.121
102.8,296.695,15.247
102.83,298.555,15.247
102.87,299.854,15.328
102.9,302.415,15.557
102.93,303.644,15.27
102.96,304.942,15.706
103.0,306.1,15.442
103.03,306.802,15.763
103.06,309.435,15.786
103.09,310.031,15.671
103.13,311.61,16.003
103.16,312.769,15.843
103.19,313.786,16.095
103.22,315.085,16.095
103.26,316.103,16.221
103.29,317.261,16.221
103.32,318.138,16.21
103.35,318.91,16.255
103.39,319.647,16.278
103.42,320.314,16.278
103.45,320.946,16.347
103.48,321.577,16.381
103.52,322.279,16.416
103.55,322.876,16.439
103.58,323.402,16.496
103.61,324.034,16.542
103.65,324.596,16.576
103.68,325.087,16.656
103.71,325.684,16.702
103.74,326.175,16.702
103.78,326.631,16.714
103.81,327.122,16.748
103.84,327.579,16.748
103.88,327.965,16.782
103.91,328.386,16.828
103.94,328.877,16.805
103.97,329.298,16.805
104.01,329.72,16.725
104.04,330.07,16.668
104.07,330.386,16.633
104.1,330.141,16.588
104.14,330.772,16.748
104.17,331.299,16.645
104.2,331.369,16.771
104.23,331.825,16.805
104.27,332.071,16.748
104.3,332.387,16.679
104.33,332.492,16.668
104.36,332.738,16.702
104.4,332.913,16.668
104.43,333.054,16.645
104.46,333.229,16.622
104.49,333.405,16.542
104.53,333.51,16.496
104.56,333.65,16.439
104.59,333.72,16.416
104.62,333.755,16.45
104.66,333.826,16.439
104.69,333.861,16.473
104.72,333.931,16.427
104.75,333.966,16.347
104.79,334.071,16.244
104.82,334.142,16.152
104.85,334.106,16.038
104.88,334.036,15.992
104.92,333.966,15.98
104.95,333.931,15.969
104.98,333.896,15.912
105.01,333.826,15.854
105.05,333.755,15.728
105.08,333.615,15.614
105.11,333.405,15.511
105.14,333.089,15.431
105.18,332.738,15.373
105.21,332.317,15.259
105.24,331.615,15.167
105.27,330.807,15.007
105.31,329.193,14.743
105.34,327.859,14.778
105.37,326.877,14.503
105.4,324.666,14.308
105.44,322.701,14.297
105.47,320.77,14.136
105.5,318.665,14.01
105.53,316.348,13.804
105.57,313.892,13.655
105.6,311.365,13.518
105.63,308.803,13.369
105.66,305.925,13.22
105.7,303.012,13.059
105.73,299.818,12.956
105.76,296.625,12.807
105.79,293.431,12.59
105.83,289.957,12.498
105.86,286.833,12.372
105.89,283.464,12.257
105.92,280.27,12.166
105.96,277.182,12.063
105.99,274.023,11.96
106.02,271.146,11.799
106.05,268.092,11.616
106.09,264.899,11.467
106.12,261.775,11.318
106.15,258.441,11.158
106.18,255.107,11.02
106.22,251.703,10.906
106.25,248.404,10.757
106.28,245.14,10.596
106.32,241.876,10.425
106.35,238.612,10.287
106.38,235.419,10.115
106.41,232.12,9.978
106.45,228.786,9.852
106.48,225.487,9.646
106.51,222.012,9.508
106.54,218.643,9.336
106.58,215.134,9.13
106.61,211.624,8.924
106.64,208.009,8.741
106.67,204.324,8.58
106.71,200.71,8.397
106.74,196.814,8.237
106.77,193.024,8.065
106.8,189.304,7.836
106.84,185.373,7.595
106.87,181.337,7.412
106.9,177.231,7.24
106.93,173.125,7.034
106.97,168.773,6.862
107.0,164.456,6.69
107.03,160.175,6.472
107.06,155.753,6.255
107.1,151.331,6.094
107.13,146.909,5.923
107.16,142.557,5.728
107.19,138.029,5.556
107.23,133.467,5.396
107.26,128.94,5.201
107.29,124.413,4.983
107.32,119.885,4.777
107.36,115.288,4.594
107.39,110.725,4.376
107.42,106.058,4.181
107.45,101.425,4.067
107.49,96.828,3.895
107.52,92.195,3.723
107.55,87.703,3.54
107.58,83.246,3.322
107.62,78.648,3.104
107.65,74.156,2.921
107.68,69.559,2.761
107.71,65.067,2.589
107.75,60.504,2.406
107.78,55.872,2.268
107.81,51.309,2.085
107.84,46.817,1.902
107.88,42.29,1.673
107.91,37.622,1.489
107.94,33.06,1.329
107.97,28.603,1.191
108.01,24.04,0.985
108.04,19.478,0.859
108.07,14.986,0.653
108.1,10.529,0.504
108.14,6.036,0.309
108.17,1.649,0.206
108.2,-2.983,0.011
108.23,-7.3,0.0
108.27,-11.792,-0.378
108.3,-15.793,-0.378
108.33,-19.478,-1.031
108.36,-25.479,-1.512
108.4,-28.322,-1.627
108.43,-32.323,-2.589
108.46,-37.622,-2.726
108.49,-41.974,-2.99
108.53,-46.396,-3.127
108.56,-50.748,-3.23
108.59,-54.854,-3.311
108.62,-58.96,-3.494
108.66,-62.891,-3.563
108.69,-66.611,-3.746
108.72,-70.401,-3.861
108.75,-73.981,-4.044
108.79,-77.701,-4.204
108.82,-81.386,-4.399
108.85,-85.071,-4.605
108.89,-88.651,-4.823
108.92,-92.3,-5.052
108.95,-95.985,-5.235
108.98,-99.67,-5.384
109.02,-103.215,-5.533
109.05,-106.795,-5.705
109.08,-110.445,-5.888
109.11,-114.024,-6.083
109.15,-117.604,-6.301
109.18,-121.219,-6.518
109.21,-124.904,-6.724
109.24,-128.694,-6.896
109.28,-132.449,-7.057
109.31,-135.924,-7.206
109.34,-139.679,-7.469
109.37,-143.75,-7.664
109.41,-147.926,-7.847
109.44,-151.927,-8.03
109.47,-155.858,-8.237
109.5,-159.578,-8.374
109.54,-163.368,-8.569
109.57,-167.088,-8.672
109.6,-170.668,-8.924
109.63,-174.178,-9.061
109.67,-177.898,-9.279
109.7,-181.021,-9.222
109.73,-184.39,-9.634
109.76,-188.812,-9.714
109.8,-191.444,-9.703
109.83,-195.164,-10.173
109.86,-198.674,-10.104
109.89,-201.376,-10.321
109.93,-205.377,-10.608
109.96,-208.466,-10.505
109.99,-211.238,-10.825
110.02,-214.783,-10.929
110.06,-217.661,-11.02
110.09,-220.679,-11.215
110.12,-223.557,-11.352
110.15,-226.329,-11.49
110.19,-229.137,-11.65
110.22,-231.839,-11.765
110.25,-234.436,-11.914
110.28,-236.963,-12.04
110.32,-239.349,-12.177
110.35,-241.806,-12.326
110.38,-244.403,-12.498
110.41,-247.07,-12.635
110.45,-250.018,-12.83
110.48,-253.036,-12.979
110.51,-255.774,-13.128
110.54,-258.652,-13.288
110.58,-261.143,-13.334
110.61,-263.249,-13.414
110.64,-265.425,-13.495
110.67,-267.531,-13.598
110.71,-269.742,-13.701
110.74,-271.918,-13.792
110.77,-273.988,-13.918
110.8,-276.234,-14.056
110.84,-278.375,-14.193
110.87,-280.621,-14.365
110.9,-282.692,-14.445
110.93,-284.692,-14.606
110.97,-286.798,-14.732
111.0,-288.834,-14.812
111.03,-290.799,-14.904
111.06,-292.834,-14.984
111.1,-294.765,-15.121
111.13,-296.73,-15.247
111.16,-298.485,-15.316
111.19,-300.204,-15.431
111.23,-301.924,-15.465
111.26,-303.398,-15.499
111.29,-304.907,-15.568
111.32,-306.206,-15.66
111.36,-307.539,-15.74
111.39,-308.873,-15.774
111.42,-310.136,-15.809
111.46,-311.4,-15.866
111.49,-312.593,-15.889
111.52,-313.786,-15.98
111.55,-314.98,-16.015
111.59,-316.173,-16.072
111.62,-317.155,-16.141
111.65,-318.033,-16.187
111.68,-318.84,-16.164
111.72,-319.577,-16.164
111.75,-320.209,-16.175
111.78,-320.946,-16.255
111.81,-321.367,-16.21
111.85,-321.718,-16.37
111.88,-322.946,-16.439
111.91,-323.262,-16.439
111.94,-324.034,-16.53
111.98,-324.561,-16.439
112.01,-325.087,-16.507
112.04,-325.648,-16.485
112.07,-326.175,-16.542
112.11,-326.561,-16.53
112.14,-327.052,-16.633
112.17,-327.509,-16.656
112.2,-327.93,-16.725
112.24,-328.351,-16.725
112.27,-328.807,-16.748
112.3,-329.193,-16.759
112.33,-329.614,-16.759
112.37,-329.93,-16.759
112.4,-330.351,-16.794
112.43,-330.246,-16.668
112.46,-330.386,-16.817
112.5,-331.264,-16.737
112.53,-331.404,-16.668
112.56,-331.72,-16.714
112.59,-331.895,-16.668
112.63,-332.211,-16.691
112.66,-332.422,-16.679
112.69,-332.632,-16.668
112.72,-332.773,-16.599
112.76,-332.948,-16.553
112.79,-333.124,-16.496
112.82,-333.229,-16.45
112.85,-333.299,-16.439
112.89,-333.405,-16.439
112.92,-333.44,-16.416
112.95,-333.58,-16.393
112.98,-333.72,-16.324
113.02,-333.755,-16.244
113.05,-333.791,-16.164
113.08,-333.826,-16.118
113.11,-333.896,-16.038
113.15,-333.861,-15.992
113.18,-333.861,-15.98
113.21,-333.861,-15.923
113.24,-333.791,-15.889
113.28,-333.791,-15.843
113.31,-333.755,-15.751
113.34,-333.72,-15.637
113.37,-333.58,-15.545
113.41,-333.405,-15.499
113.44,-333.194,-15.408
113.47,-332.983,-15.305
113.5,-332.632,-15.213
113.54,-332.176,-15.098
113.57,-331.58,-14.984
113.6,-330.421,-14.801
113.63,-328.983,-14.732
113.67,-327.965,-14.697
113.7,-326.596,-14.457
113.73,-324.42,-14.342
113.76,-322.314,-14.205
113.8,-320.595,-14.102
113.83,-318.7,-13.907
113.86,-316.173,-13.781
113.9,-313.541,-13.689
113.93,-311.049,-13.552
113.96,-308.417,-13.38
113.99,-305.644,-13.243
114.03,-302.766,-13.059
114.06,-299.713,-12.887
114.09,-296.59,-12.739
114.12,-293.256,-12.59
114.16,-289.957,-12.487
114.19,-286.728,-12.315
114.22,-283.324,-12.2
114.25,-280.06,-12.097
114.29,-277.007,-11.983
114.32,-273.953,-11.856
114.35,-270.9,-11.788
114.38,-267.847,-11.662
114.42,-264.583,-11.513
114.45,-261.319,-11.387
114.48,-258.16,-11.238
114.51,-254.967,-11.066
114.55,-251.808,-10.906
114.58,-248.615,-10.711
114.61,-245.245,-10.573
114.64,-241.946,-10.425
114.68,-238.612,-10.276
114.71,-235.313,-10.115
114.74,-231.944,-9.966
114.77,-228.61,-9.817
114.81,-225.276,-9.623
114.84,-221.872,-9.462
114.87,-218.573,-9.29
114.9,-215.099,-9.119
114.94,-211.484,-8.993
114.97,-207.904,-8.821
115.0,-204.254,-8.569
115.03,-200.464,-8.363
115.07,-196.744,-8.168
115.1,-192.883,-7.973
115.13,-189.058,-7.801
115.16,-185.162,-7.618
115.2,-181.021,-7.48
115.23,-177.02,-7.286
115.26,-172.809,-7.068
115.29,-168.597,-6.885
115.33,-164.386,-6.633
115.36,-159.964,-6.427
115.39,-155.577,-6.266
115.42,-151.19,-6.094
115.46,-146.733,-5.934
115.49,-142.311,-5.762
115.52,-137.924,-5.556
115.55,-133.362,-5.35
115.59,-128.87,-5.144
115.62,-124.307,-4.949
115.65,-119.64,-4.8
115.68,-115.112,-4.628
115.72,-110.41,-4.502
115.75,-105.952,-4.319
115.78,-101.32,-4.078
115.81,-96.652,-3.918
115.85,-92.195,-3.666
115.88,-87.527,-3.471
115.91,-82.965,-3.288
115.94,-78.438,-3.127
115.98,-73.875,-2.933
116.01,-69.383,-2.772
116.04,-64.716,-2.555
116.07,-60.329,-2.44
116.11,-55.696,-2.188
116.14,-51.274,-2.073
116.17,-46.466,-1.764
116.2,-42.641,-1.902
116.24,-37.973,-1.237
116.27,-32.007,-1.317
116.3,-28.954,-1.317
116.33,-24.251,-0.745
116.37,-18.916,-0.779
116.4,-14.81,-0.687
116.43,-10.634,-0.458
116.47,-5.861,-0.321
116.5,-1.614,-0.252
116.53,2.737,-0.08
116.56,7.265,0.034
