Trigger_Date,2023/08/01
Trigger_Time,T 00:05:40.077 PDT
Samples_Per_Cycle,512
Microseconds_Per_Sample,32.535
Time (ms),Voltage (V),Current (A)
-16.66,-11.336,-0.344
-16.63,-14.74,-0.321
-16.59,-19.408,-1.203
-16.56,-24.707,-1.214
-16.53,-27.304,-1.673
-16.5,-32.323,-2.28
-16.46,-37.411,-2.177
-16.43,-41.798,-2.28
-16.4,-46.255,-2.303
-16.36,-50.537,-2.348
-16.33,-54.643,-2.36
-16.3,-58.644,-2.417
-16.27,-62.469,-2.463
-16.23,-66.295,-2.52
-16.2,-69.98,-2.555
-16.17,-73.665,-2.635
-16.14,-77.35,-2.726
-16.1,-81.035,-2.818
-16.07,-84.72,-2.933
-16.04,-88.44,-3.036
-16.01,-92.055,-3.116
-15.97,-95.775,-3.208
-15.94,-99.319,-3.265
-15.91,-102.864,-3.334
-15.88,-106.374,-3.425
-15.84,-109.953,-3.528
-15.81,-113.463,-3.631
-15.78,-117.007,-3.757
-15.75,-120.657,-3.849
-15.71,-124.342,-3.952
-15.68,-128.027,-4.055
-15.65,-131.853,-4.158
-15.62,-135.362,-4.181
-15.58,-138.872,-4.33
-15.55,-142.838,-4.445
-15.52,-146.838,-4.594
-15.49,-150.909,-4.685
-15.45,-154.875,-4.777
-15.42,-158.525,-4.834
-15.39,-162.28,-4.995
-15.36,-165.895,-4.995
-15.32,-169.475,-5.109
-15.29,-172.879,-5.132
-15.26,-176.529,-5.327
-15.23,-179.652,-5.178
-15.19,-182.916,-5.522
-15.16,-187.444,-5.51
-15.13,-190.076,-5.441
-15.1,-193.445,-5.728
-15.06,-196.744,-5.705
-15.03,-200.394,-5.877
-15.0,-203.201,-5.739
-14.97,-206.36,-6.049
-14.93,-209.799,-5.98
-14.9,-212.747,-6.117
-14.87,-215.8,-6.186
-14.84,-218.889,-6.232
-14.8,-221.591,-6.255
-14.77,-224.469,-6.381
-14.74,-227.347,-6.427
-14.71,-230.014,-6.507
-14.67,-232.576,-6.61
-14.64,-235.173,-6.644
-14.61,-237.454,-6.656
-14.58,-239.946,-6.759
-14.54,-242.543,-6.828
-14.51,-245.21,-6.942
-14.48,-248.018,-7.057
-14.45,-250.685,-7.183
-14.41,-253.493,-7.286
-14.38,-256.265,-7.343
-14.35,-258.617,-7.332
-14.32,-260.793,-7.343
-14.28,-262.863,-7.435
-14.25,-265.215,-7.48
-14.22,-267.531,-7.492
-14.19,-269.637,-7.584
-14.15,-271.812,-7.675
-14.12,-274.094,-7.698
-14.09,-276.129,-7.721
-14.06,-278.094,-7.755
-14.02,-280.165,-7.801
-13.99,-282.201,-7.881
-13.96,-284.306,-7.95
-13.92,-286.272,-7.985
-13.89,-288.062,-8.042
-13.86,-289.781,-8.099
-13.83,-291.536,-8.133
-13.79,-293.185,-8.156
-13.76,-294.835,-8.191
-13.73,-296.379,-8.202
-13.7,-297.853,-8.248
-13.66,-299.222,-8.317
-13.63,-300.626,-8.351
-13.6,-301.959,-8.42
-13.57,-303.363,-8.5
-13.53,-304.872,-8.546
-13.5,-306.241,-8.557
-13.47,-307.434,-8.603
-13.44,-308.698,-8.66
-13.4,-309.996,-8.683
-13.37,-311.119,-8.672
-13.34,-312.172,-8.683
-13.31,-313.225,-8.752
-13.27,-314.243,-8.786
-13.24,-315.225,-8.752
-13.21,-315.997,-8.729
-13.18,-316.629,-8.729
-13.14,-317.296,-8.763
-13.11,-317.857,-8.798
-13.08,-318.665,-8.798
-13.05,-318.875,-8.729
-13.01,-319.788,-8.89
-12.98,-320.595,-8.729
-12.95,-320.946,-8.809
-12.92,-321.577,-8.809
-12.88,-321.964,-8.867
-12.85,-322.56,-8.924
-12.82,-322.981,-8.924
-12.79,-323.543,-8.924
-12.75,-323.894,-8.912
-12.72,-324.385,-8.912
-12.69,-324.771,-8.912
-12.66,-325.157,-8.935
-12.62,-325.613,-8.901
-12.59,-325.964,-8.981
-12.56,-326.28,-8.958
-12.53,-326.736,-9.016
-12.49,-326.666,-8.89
-12.46,-326.772,-8.981
-12.43,-327.719,-8.947
-12.4,-327.824,-8.832
-12.36,-328.07,-8.958
-12.33,-328.386,-8.924
-12.3,-328.596,-8.947
-12.27,-328.772,-8.912
-12.23,-328.947,-8.935
-12.2,-329.228,-8.901
-12.17,-329.369,-8.855
-12.14,-329.509,-8.821
-12.1,-329.579,-8.821
-12.07,-329.684,-8.844
-12.04,-329.79,-8.832
-12.01,-329.895,-8.821
-11.97,-330.0,-8.786
-11.94,-330.07,-8.763
-11.91,-330.106,-8.718
-11.88,-330.141,-8.637
-11.84,-330.176,-8.615
-11.81,-330.211,-8.58
-11.78,-330.176,-8.557
-11.75,-330.246,-8.534
-11.71,-330.176,-8.5
-11.68,-330.176,-8.466
-11.65,-330.106,-8.454
-11.61,-330.0,-8.466
-11.58,-329.93,-8.431
-11.55,-329.825,-8.374
-11.52,-329.614,-8.351
-11.48,-329.439,-8.294
-11.45,-329.158,-8.202
-11.42,-328.737,-8.156
-11.39,-328.421,-8.065
-11.35,-327.649,-7.996
-11.32,-326.947,-7.962
-11.29,-325.403,-7.778
-11.26,-324.139,-7.87
-11.22,-323.473,-7.71
-11.19,-321.437,-7.458
-11.16,-319.156,-7.423
-11.13,-317.12,-7.286
-11.09,-315.12,-7.183
-11.06,-312.663,-7.011
-11.03,-309.821,-6.988
-11.0,-307.294,-6.988
-10.96,-304.872,-6.942
-10.93,-302.17,-6.896
-10.9,-299.397,-6.805
-10.87,-296.625,-6.69
-10.83,-293.607,-6.575
-10.8,-290.378,-6.507
-10.77,-287.114,-6.484
-10.74,-283.885,-6.438
-10.7,-280.692,-6.346
-10.67,-277.393,-6.278
-10.64,-274.304,-6.232
-10.61,-271.497,-6.14
-10.57,-268.584,-6.083
-10.54,-265.741,-6.014
-10.51,-262.653,-5.957
-10.48,-259.599,-5.854
-10.44,-256.371,-5.728
-10.41,-252.896,-5.682
-10.38,-249.667,-5.625
-10.35,-246.439,-5.487
-10.31,-243.175,-5.407
-10.28,-240.016,-5.338
-10.25,-236.787,-5.247
-10.22,-233.594,-5.178
-10.18,-230.435,-5.098
-10.15,-227.171,-4.983
-10.12,-223.837,-4.892
-10.09,-220.503,-4.811
-10.05,-217.134,-4.674
-10.02,-213.519,-4.559
-9.99,-209.869,-4.468
-9.96,-206.325,-4.376
-9.92,-202.78,-4.273
-9.89,-199.025,-4.193
-9.86,-195.235,-4.135
-9.83,-191.479,-4.032
-9.79,-187.689,-3.872
-9.76,-183.794,-3.735
-9.73,-179.828,-3.62
-9.7,-175.757,-3.54
-9.66,-171.616,-3.448
-9.63,-167.404,-3.356
-9.6,-163.193,-3.219
-9.57,-158.736,-3.116
-9.53,-154.524,-3.001
-9.5,-150.102,-2.864
-9.47,-145.68,-2.795
-9.44,-141.328,-2.704
-9.4,-136.801,-2.589
-9.37,-132.309,-2.509
-9.34,-127.817,-2.406
-9.3,-123.289,-2.291
-9.27,-118.867,-2.177
-9.24,-114.305,-2.062
-9.21,-109.813,-1.993
-9.17,-105.215,-1.925
-9.14,-100.688,-1.867
-9.11,-96.126,-1.776
-9.08,-91.634,-1.684
-9.04,-87.036,-1.615
-9.01,-82.649,-1.501
-8.98,-78.192,-1.363
-8.95,-73.735,-1.283
-8.91,-69.243,-1.18
-8.88,-64.716,-1.123
-8.85,-60.258,-1.042
-8.82,-55.872,-0.951
-8.78,-51.274,-0.836
-8.75,-46.957,-0.722
-8.72,-42.149,-0.584
-8.69,-38.605,-0.722
-8.65,-33.2,-0.183
-8.62,-27.831,-0.619
-8.59,-24.883,-0.55
-8.56,-19.864,-0.218
-8.52,-14.951,-0.309
-8.49,-10.985,-0.241
-8.46,-6.633,-0.092
-8.43,-1.93,-0.126
-8.39,2.246,-0.115
-8.36,6.598,0.023
-8.33,11.055,0.218
-8.3,15.302,0.447
-8.26,19.513,0.825
-8.23,23.689,1.237
-8.2,27.866,1.718
-8.17,32.288,2.062
-8.13,36.745,2.28
-8.1,41.447,2.394
-8.07,45.905,2.406
-8.04,50.256,2.44
-8.0,54.573,2.451
-7.97,58.539,2.463
-7.94,62.434,2.497
-7.91,66.26,2.566
-7.87,70.015,2.6
-7.84,73.56,2.658
-7.81,77.174,2.772
-7.78,80.93,2.875
-7.74,84.65,2.967
-7.71,88.44,3.07
-7.68,92.125,3.196
-7.65,95.67,3.288
-7.61,99.284,3.368
-7.58,102.899,3.448
-7.55,106.444,3.517
-7.52,110.059,3.608
-7.48,113.744,3.677
-7.45,117.323,3.769
-7.42,120.868,3.895
-7.39,124.518,4.032
-7.35,128.203,4.124
-7.32,132.063,4.193
-7.29,135.783,4.239
-7.26,139.223,4.342
-7.22,143.118,4.491
-7.19,147.049,4.582
-7.16,151.085,4.697
-7.13,154.945,4.811
-7.09,158.701,4.88
-7.06,162.491,4.949
-7.03,166.176,5.018
-6.99,169.791,5.075
-6.96,173.335,5.144
-6.93,176.81,5.201
-6.9,180.179,5.315
-6.86,183.618,5.43
-6.83,187.057,5.544
-6.8,190.532,5.602
-6.77,193.901,5.659
-6.73,197.13,5.716
-6.7,200.394,5.842
-6.67,203.622,5.934
-6.64,206.781,6.026
-6.6,209.94,6.129
-6.57,212.993,6.209
-6.54,216.046,6.278
-6.51,219.17,6.346
-6.47,222.118,6.381
-6.44,224.995,6.461
-6.41,227.908,6.495
-6.38,230.611,6.53
-6.34,233.173,6.633
-6.31,235.629,6.69
-6.28,237.981,6.724
-6.25,240.402,6.805
-6.21,243.034,6.885
-6.18,245.561,6.954
-6.15,248.334,7.091
-6.12,251.317,7.217
-6.08,253.879,7.263
-6.05,256.441,7.343
-6.02,258.897,7.332
-5.99,261.003,7.343
-5.95,263.214,7.446
-5.92,265.53,7.492
-5.89,267.706,7.549
-5.86,269.847,7.652
-5.82,272.163,7.744
-5.79,274.304,7.79
-5.76,276.305,7.847
-5.73,278.375,7.893
-5.69,280.376,7.95
-5.66,282.411,7.996
-5.63,284.412,8.088
-5.6,286.412,8.111
-5.56,288.097,8.202
-5.53,289.816,8.271
-5.5,291.501,8.305
-5.47,293.115,8.271
-5.43,294.8,8.259
-5.4,296.344,8.237
-5.37,297.853,8.317
-5.34,299.187,8.351
-5.3,300.626,8.523
-5.27,301.959,8.511
-5.24,303.714,8.649
-5.21,304.451,8.363
-5.17,305.75,8.752
-5.14,307.996,8.534
-5.11,308.487,8.626
-5.08,310.487,8.729
-5.04,311.189,8.557
-5.01,312.383,8.821
-4.98,313.47,8.672
-4.95,314.348,8.809
-4.91,315.295,8.729
-4.88,315.962,8.786
-4.85,316.594,8.809
-4.82,317.296,8.878
-4.78,317.928,8.867
-4.75,318.629,8.89
-4.72,319.296,8.832
-4.69,319.893,8.809
-4.65,320.454,8.821
-4.62,321.016,8.878
-4.59,321.542,8.901
-4.55,322.069,8.924
-4.52,322.525,8.947
-4.49,322.981,9.004
-4.46,323.543,8.981
-4.42,323.929,8.97
-4.39,324.455,8.912
-4.36,324.701,8.981
-4.33,325.227,9.038
-4.29,325.648,8.981
-4.26,326.105,9.119
-4.23,326.491,9.061
-4.2,326.701,9.084
-4.16,326.807,8.947
-4.13,327.052,9.038
-4.1,327.859,9.027
-4.07,327.93,8.97
-4.03,328.21,9.084
-4.0,328.491,9.038
-3.97,328.702,9.084
-3.94,329.018,9.016
-3.9,329.123,9.004
-3.87,329.298,8.981
-3.84,329.509,8.912
-3.81,329.684,8.901
-3.77,329.79,8.89
-3.74,329.895,8.912
-3.71,330.035,8.89
-3.68,330.141,8.855
-3.64,330.281,8.775
-3.61,330.246,8.706
-3.58,330.316,8.729
-3.55,330.351,8.683
-3.51,330.351,8.706
-3.48,330.351,8.683
-3.45,330.316,8.729
-3.42,330.281,8.752
-3.38,330.316,8.718
-3.35,330.351,8.615
-3.32,330.246,8.58
-3.29,330.176,8.557
-3.25,330.106,8.489
-3.22,330.0,8.454
-3.19,329.86,8.385
-3.16,329.544,8.363
-3.12,329.263,8.305
-3.09,328.912,8.214
-3.06,328.456,8.133
-3.03,327.859,8.065
-2.99,327.052,7.996
-2.96,325.929,7.927
-2.93,324.771,7.87
-2.9,322.806,7.698
-2.86,321.016,7.698
-2.83,319.717,7.538
-2.8,317.577,7.343
-2.77,315.155,7.286
-2.73,312.558,7.206
-2.7,309.926,7.183
-2.67,307.434,7.137
-2.64,304.942,7.091
-2.6,302.38,7.011
-2.57,299.573,6.919
-2.54,296.765,6.782
-2.51,293.642,6.701
-2.47,290.483,6.644
-2.44,287.325,6.541
-2.41,284.096,6.461
-2.38,280.797,6.381
-2.34,277.498,6.358
-2.31,274.55,6.266
-2.28,271.602,6.163
-2.24,268.619,6.117
-2.21,265.601,6.094
-2.18,262.617,6.037
-2.15,259.599,5.934
-2.11,256.441,5.831
-2.08,253.107,5.739
-2.05,249.843,5.67
-2.02,246.684,5.59
-1.98,243.526,5.441
-1.95,240.227,5.35
-1.92,236.928,5.304
-1.89,233.734,5.224
-1.85,230.47,5.144
-1.82,227.277,5.052
-1.79,223.978,4.914
-1.76,220.679,4.788
-1.72,217.204,4.685
-1.69,213.8,4.571
-1.66,210.22,4.513
-1.63,206.641,4.433
-1.59,202.956,4.33
-1.56,199.236,4.261
-1.53,195.515,4.158
-1.5,191.76,4.021
-1.46,187.9,3.872
-1.43,184.004,3.769
-1.4,180.003,3.631
-1.37,175.862,3.54
-1.33,171.756,3.437
-1.3,167.474,3.322
-1.27,163.193,3.23
-1.24,158.876,3.104
-1.2,154.489,3.001
-1.17,150.172,2.91
-1.14,145.68,2.818
-1.11,141.328,2.749
-1.07,136.906,2.646
-1.04,132.379,2.532
-1.01,127.992,2.44
-0.98,123.43,2.314
-0.94,118.973,2.188
-0.91,114.445,2.039
-0.88,109.883,1.959
-0.85,105.286,1.902
-0.81,100.758,1.833
-0.78,96.126,1.787
-0.75,91.493,1.764
-0.72,87.001,1.707
-0.68,82.719,1.569
-0.65,78.403,1.432
-0.62,73.981,1.306
-0.59,69.489,1.203
-0.55,65.031,1.123
-0.52,60.539,1.042
-0.49,55.977,0.962
-0.46,51.485,0.871
-0.42,47.063,0.733
-0.39,42.43,0.619
-0.36,37.868,0.515
-0.33,33.27,0.47
-0.29,28.778,0.401
-0.26,24.216,0.344
-0.23,19.618,0.309
-0.2,15.126,0.298
-0.16,10.844,0.241
-0.13,6.528,0.16
-0.1,2.036,0.08
-0.07,-2.316,0.046
-0.03,-6.703,-0.092
0.0,-11.02,-0.252
0.03,-15.337,-0.573
0.07,-19.618,-0.882
0.1,-23.689,-1.352
0.13,-27.936,-1.81
0.16,-32.568,-2.199
0.2,-37.025,-2.245
0.23,-42.009,-2.509
0.26,-46.045,-2.108
0.29,-49.905,-2.543
0.33,-55.977,-2.44
0.36,-58.293,-2.108
0.39,-62.434,-2.726
0.42,-66.786,-2.429
0.46,-69.98,-2.635
0.49,-73.946,-2.715
0.52,-77.49,-2.704
0.55,-80.894,-2.795
0.59,-84.79,-2.944
0.62,-88.545,-2.978
0.65,-92.195,-3.116
0.68,-95.81,-3.219
0.72,-99.425,-3.345
0.75,-103.004,-3.414
0.78,-106.514,-3.517
0.81,-110.059,-3.586
0.85,-113.638,-3.689
0.88,-117.253,-3.78
0.91,-120.868,-3.895
0.94,-124.448,-4.009
0.98,-128.098,-4.124
1.01,-131.923,-4.216
1.04,-135.397,-4.261
1.07,-138.942,-4.365
1.11,-143.048,-4.456
1.14,-147.049,-4.548
1.17,-150.98,-4.674
1.2,-154.91,-4.777
1.24,-158.56,-4.846
1.27,-162.21,-4.949
1.3,-165.895,-5.006
1.33,-169.44,-5.086
1.37,-173.09,-5.144
1.4,-176.669,-5.189
1.43,-180.074,-5.258
1.46,-183.443,-5.396
1.5,-186.847,-5.487
1.53,-190.321,-5.613
1.56,-193.34,-5.556
1.59,-196.288,-5.785
1.63,-200.569,-5.854
1.66,-203.166,-5.705
1.69,-206.57,-6.106
1.72,-209.238,-5.9
1.76,-212.677,-6.392
1.79,-216.397,-6.106
1.82,-218.362,-6.278
1.85,-221.802,-6.472
1.89,-224.68,-6.358
1.92,-227.382,-6.507
1.95,-230.19,-6.553
1.98,-232.506,-6.621
2.02,-234.962,-6.724
2.05,-237.454,-6.724
2.08,-239.876,-6.793
2.11,-242.403,-6.896
2.15,-245.105,-6.976
2.18,-247.878,-7.08
2.21,-250.685,-7.16
2.24,-253.423,-7.263
2.28,-256.195,-7.366
2.31,-258.687,-7.332
2.34,-260.757,-7.4
2.38,-262.898,-7.458
2.41,-265.179,-7.492
2.44,-267.355,-7.538
2.47,-269.531,-7.606
2.51,-271.672,-7.687
2.54,-273.883,-7.767
2.57,-275.989,-7.824
2.6,-278.024,-7.859
2.64,-280.165,-7.87
2.67,-282.236,-7.87
2.7,-284.236,-7.904
2.73,-286.131,-7.985
2.77,-287.956,-8.053
2.8,-289.571,-8.122
2.83,-291.29,-8.168
2.86,-292.94,-8.214
2.9,-294.449,-8.259
2.93,-296.098,-8.294
2.96,-297.607,-8.317
2.99,-299.011,-8.374
3.03,-300.415,-8.454
3.06,-301.889,-8.5
3.09,-303.398,-8.534
3.12,-304.872,-8.534
3.16,-306.171,-8.569
3.19,-307.399,-8.603
3.22,-308.627,-8.603
3.25,-309.856,-8.637
3.29,-310.944,-8.66
3.32,-312.067,-8.718
3.35,-313.12,-8.763
3.38,-314.102,-8.775
3.42,-315.015,-8.752
3.45,-315.681,-8.752
3.48,-316.454,-8.729
3.51,-317.05,-8.752
3.55,-317.647,-8.798
3.58,-318.314,-8.855
3.61,-318.98,-8.89
3.64,-319.612,-8.878
3.68,-320.244,-8.867
3.71,-320.876,-8.844
3.74,-321.367,-8.867
3.77,-321.928,-8.867
3.81,-322.455,-8.89
3.84,-322.876,-8.935
3.87,-323.402,-8.993
3.9,-323.824,-8.958
3.94,-324.315,-9.004
3.97,-324.701,-8.993
4.0,-325.157,-8.981
4.03,-325.543,-8.935
4.07,-325.929,-9.016
4.1,-326.28,-8.981
4.13,-326.631,-9.073
4.16,-326.772,-8.901
4.2,-326.666,-9.061
4.23,-327.684,-9.05
4.26,-327.473,-8.924
4.29,-328.035,-9.073
4.33,-328.316,-8.924
4.36,-328.491,-9.05
4.39,-328.737,-8.993
4.42,-328.947,-9.027
4.46,-329.158,-8.935
4.49,-329.298,-8.947
4.52,-329.474,-8.89
4.55,-329.614,-8.867
4.59,-329.72,-8.821
4.62,-329.825,-8.798
4.65,-329.895,-8.786
4.69,-330.0,-8.786
4.72,-330.07,-8.763
4.75,-330.141,-8.729
4.78,-330.141,-8.672
4.82,-330.141,-8.637
4.85,-330.211,-8.626
4.88,-330.211,-8.603
4.91,-330.211,-8.58
4.95,-330.176,-8.546
4.98,-330.141,-8.534
5.01,-330.106,-8.523
5.04,-330.035,-8.511
5.08,-329.965,-8.489
5.11,-329.825,-8.466
5.14,-329.614,-8.431
5.17,-329.439,-8.34
5.21,-329.193,-8.248
5.24,-328.877,-8.145
5.27,-328.421,-8.053
5.3,-327.754,-7.973
5.34,-327.087,-7.904
5.37,-325.789,-7.71
5.4,-323.999,-7.698
5.43,-323.262,-7.721
5.47,-321.542,-7.48
5.5,-319.156,-7.492
5.53,-317.05,-7.377
5.56,-314.804,-7.251
5.6,-312.383,-7.114
5.63,-309.75,-7.068
5.66,-307.364,-7.034
5.69,-305.013,-6.942
5.73,-302.345,-6.85
5.76,-299.397,-6.805
5.79,-296.484,-6.724
5.82,-293.466,-6.644
5.86,-290.413,-6.541
5.89,-287.184,-6.438
5.92,-283.99,-6.381
5.95,-280.832,-6.312
5.99,-277.533,-6.266
6.02,-274.445,-6.243
6.05,-271.567,-6.186
6.08,-268.689,-6.106
6.12,-265.706,-6.026
6.15,-262.653,-5.945
6.18,-259.459,-5.877
6.21,-256.265,-5.797
6.25,-253.036,-5.67
6.28,-249.702,-5.602
6.31,-246.509,-5.522
6.34,-243.28,-5.453
6.38,-240.121,-5.361
6.41,-236.998,-5.235
6.44,-233.769,-5.132
6.47,-230.54,-5.052
6.51,-227.136,-4.995
6.54,-223.872,-4.937
6.57,-220.468,-4.823
6.6,-217.029,-4.731
6.64,-213.589,-4.639
6.67,-210.115,-4.479
6.7,-206.5,-4.365
6.73,-202.885,-4.273
6.77,-199.2,-4.181
6.8,-195.41,-4.113
6.83,-191.69,-4.009
6.86,-187.83,-3.906
6.9,-183.759,-3.792
6.93,-179.582,-3.654
6.96,-175.616,-3.574
6.99,-171.581,-3.448
7.03,-167.194,-3.345
7.06,-162.842,-3.288
7.09,-158.665,-3.185
7.13,-154.454,-3.047
7.16,-150.032,-2.944
7.19,-145.645,-2.818
7.22,-141.328,-2.704
7.26,-136.871,-2.589
7.29,-132.344,-2.497
7.32,-127.817,-2.394
7.35,-123.254,-2.303
7.39,-118.692,-2.234
7.42,-114.235,-2.096
7.45,-109.848,-1.97
7.48,-105.251,-1.902
7.52,-100.793,-1.81
7.55,-96.266,-1.753
7.58,-91.879,-1.661
7.61,-87.352,-1.558
7.65,-82.755,-1.443
7.68,-78.227,-1.409
7.71,-73.77,-1.317
7.74,-69.278,-1.249
7.78,-64.821,-1.134
7.81,-60.469,-1.02
7.84,-55.907,-0.882
7.87,-51.379,-0.882
7.91,-46.992,-0.756
7.94,-42.5,-0.745
7.97,-37.938,-0.515
8.0,-33.376,-0.63
8.04,-29.796,-0.435
8.07,-23.549,-0.08
8.1,-19.443,-0.619
8.13,-16.039,-0.172
8.17,-10.423,-0.149
8.2,-6.036,-0.286
8.23,-2.316,-0.183
8.26,2.246,-0.023
8.3,6.668,-0.034
8.33,10.774,0.195
8.36,15.126,0.47
8.39,19.443,0.813
8.43,23.409,1.203
8.46,27.62,1.741
8.49,32.182,2.051
8.52,36.745,2.291
8.56,41.483,2.429
8.59,46.08,2.44
8.62,50.327,2.451
8.65,54.573,2.44
8.69,58.539,2.429
8.72,62.469,2.429
8.75,66.26,2.463
8.78,69.945,2.543
8.82,73.56,2.669
8.85,77.245,2.772
8.88,80.859,2.875
8.91,84.509,2.978
8.95,88.335,3.059
8.98,92.055,3.116
9.01,95.81,3.219
9.04,99.53,3.288
9.08,103.04,3.391
9.11,106.619,3.505
9.14,110.164,3.608
9.17,113.708,3.677
9.21,117.218,3.815
9.24,120.868,3.872
9.27,124.553,3.998
9.3,128.238,4.055
9.34,132.063,4.239
9.37,135.678,4.25
9.4,139.188,4.491
9.44,142.838,4.422
9.47,146.487,4.697
9.5,151.682,4.8
9.53,154.7,4.662
9.57,158.63,5.075
9.6,162.772,4.892
9.63,166.071,5.063
9.66,169.826,5.144
9.7,173.335,5.132
9.73,176.775,5.166
9.76,180.354,5.258
9.79,183.759,5.315
9.83,187.128,5.476
9.86,190.462,5.579
9.89,193.796,5.705
9.92,197.2,5.762
9.96,200.464,5.808
9.99,203.728,5.888
10.02,206.956,5.968
10.05,210.045,6.037
10.09,213.203,6.14
10.12,216.257,6.209
10.15,219.064,6.335
10.18,222.012,6.438
10.22,224.995,6.484
10.25,227.838,6.518
10.28,230.681,6.564
10.31,233.348,6.598
10.35,235.699,6.644
10.38,238.016,6.759
10.41,240.402,6.873
10.44,243.034,6.931
10.48,245.772,6.988
10.51,248.579,7.045
10.54,251.422,7.125
10.57,253.914,7.148
10.61,256.23,7.263
10.64,258.511,7.32
10.67,260.722,7.389
10.7,263.039,7.526
10.74,265.46,7.584
10.77,267.706,7.606
10.8,269.882,7.652
10.83,272.163,7.698
10.87,274.304,7.732
10.9,276.34,7.778
10.93,278.375,7.836
10.96,280.411,7.927
11.0,282.481,7.962
11.03,284.447,8.007
11.06,286.272,8.053
11.09,288.202,8.088
11.13,289.886,8.133
11.16,291.536,8.225
11.19,293.115,8.225
11.22,294.624,8.294
11.26,296.133,8.34
11.29,297.783,8.397
11.32,299.117,8.374
11.35,300.661,8.466
11.39,301.959,8.443
11.42,303.679,8.592
11.45,304.311,8.397
11.48,305.785,8.844
11.52,307.961,8.615
11.55,308.592,8.683
11.58,310.417,8.763
11.61,311.189,8.603
11.65,312.418,8.775
11.68,313.365,8.649
11.71,314.278,8.786
11.75,315.155,8.741
11.78,315.857,8.821
11.81,316.664,8.763
11.84,317.226,8.775
11.88,317.892,8.775
11.91,318.524,8.809
11.94,319.086,8.844
11.97,319.753,8.867
12.01,320.419,8.867
12.04,320.981,8.912
12.07,321.542,8.947
12.1,322.069,8.935
12.14,322.49,8.97
12.17,323.016,9.004
12.2,323.473,9.061
12.23,323.964,9.061
12.27,324.42,9.05
12.3,324.771,9.073
12.33,325.227,9.084
12.36,325.684,9.038
12.4,326.14,8.981
12.43,326.35,8.947
12.46,326.701,9.016
12.49,326.561,8.912
12.53,326.982,9.061
12.56,327.719,8.947
12.59,327.824,8.981
12.62,328.21,8.993
12.66,328.421,8.912
12.69,328.702,8.935
12.72,328.877,8.935
12.75,329.123,8.97
12.79,329.298,8.912
12.82,329.474,8.89
12.85,329.579,8.901
12.88,329.755,8.878
12.92,329.86,8.821
12.95,329.93,8.844
12.98,330.0,8.832
13.01,330.0,8.89
13.05,330.176,8.867
13.08,330.281,8.798
13.11,330.246,8.763
13.14,330.246,8.741
13.18,330.316,8.718
13.21,330.351,8.637
13.24,330.351,8.603
13.27,330.246,8.592
13.31,330.246,8.569
13.34,330.211,8.523
13.37,330.07,8.523
13.4,330.07,8.489
13.44,329.965,8.397
13.47,329.755,8.328
13.5,329.474,8.271
13.53,329.088,8.271
13.57,328.807,8.214
13.6,328.386,8.133
13.63,327.719,8.111
13.66,327.087,7.996
13.7,325.999,7.881
13.73,324.771,7.744
13.76,322.806,7.572
13.79,321.402,7.675
13.83,319.998,7.48
13.86,317.506,7.4
13.89,315.295,7.332
13.92,312.698,7.206
13.96,310.066,7.171
13.99,307.645,7.057
14.02,305.083,6.965
14.06,302.38,6.908
14.09,299.643,6.828
14.12,296.765,6.736
14.15,293.607,6.701
14.19,290.483,6.656
14.22,287.36,6.541
14.25,284.166,6.415
14.28,280.972,6.301
14.32,277.744,6.255
14.35,274.69,6.22
14.38,271.742,6.14
14.41,268.689,6.094
14.45,265.671,6.049
14.48,262.723,5.968
14.51,259.599,5.877
14.54,256.406,5.774
14.58,253.212,5.682
14.61,249.948,5.602
14.64,246.719,5.522
14.67,243.456,5.441
14.71,240.332,5.373
14.74,237.103,5.304
14.77,233.91,5.166
14.8,230.611,5.04
14.84,227.312,4.949
14.87,223.978,4.869
14.9,220.538,4.8
14.93,217.064,4.731
14.97,213.66,4.662
15.0,210.15,4.571
15.03,206.641,4.445
15.06,202.991,4.33
15.1,199.341,4.227
15.13,195.691,4.09
15.16,191.83,3.998
15.19,187.97,3.906
15.23,184.004,3.826
15.26,180.003,3.735
15.29,176.003,3.586
15.32,171.896,3.437
15.36,167.615,3.311
15.39,163.333,3.219
15.42,158.946,3.116
15.45,154.665,3.024
15.49,150.208,2.921
15.52,145.645,2.83
15.55,141.293,2.726
15.58,136.836,2.6
15.62,132.414,2.497
15.65,128.062,2.406
15.68,123.57,2.303
15.71,119.078,2.222
15.75,114.481,2.131
15.78,109.988,2.039
15.81,105.461,1.959
15.84,100.899,1.867
15.88,96.407,1.753
15.91,91.739,1.65
15.94,87.177,1.592
15.97,82.755,1.512
16.01,78.403,1.42
16.04,73.875,1.34
16.07,69.453,1.272
16.1,65.102,1.157
16.14,60.609,1.065
16.17,56.187,0.916
16.2,51.73,0.836
16.23,47.203,0.733
16.27,42.641,0.642
16.3,38.078,0.561
16.33,33.516,0.47
16.36,28.989,0.412
16.4,24.426,0.332
16.43,19.899,0.252
16.46,15.407,0.195
16.5,10.915,0.149
16.53,6.493,0.126
16.56,1.965,0.103
16.59,-2.351,0.103
16.63,-6.703,-0.057
16.66,-10.88,-0.206
16.69,-15.266,-0.55
16.72,-19.443,-0.825
16.76,-23.619,-1.34
16.79,-27.725,-1.718
16.82,-32.498,-2.165
16.85,-36.253,-2.016
16.89,-41.202,-2.658
16.92,-47.168,-2.314
16.95,-49.695,-2.268
16.98,-54.784,-2.738
17.02,-59.1,-2.303
17.05,-62.505,-2.509
17.08,-66.576,-2.555
17.11,-70.085,-2.497
17.15,-73.314,-2.623
17.18,-77.139,-2.772
17.21,-80.754,-2.83
17.24,-84.369,-2.99
17.28,-88.159,-3.07
17.31,-91.985,-3.196
17.34,-95.74,-3.242
17.37,-99.249,-3.311
17.41,-102.864,-3.402
17.44,-106.514,-3.471
17.47,-110.094,-3.528
17.5,-113.673,-3.608
17.54,-117.148,-3.723
17.57,-120.692,-3.826
17.6,-124.272,-3.918
17.63,-127.922,-4.021
17.67,-131.607,-4.147
17.7,-135.152,-4.273
17.73,-138.696,-4.399
17.76,-142.732,-4.548
17.8,-146.803,-4.617
17.83,-150.804,-4.697
17.86,-154.665,-4.8
17.89,-158.49,-4.834
17.93,-162.175,-4.937
17.96,-165.825,-4.983
17.99,-169.405,-5.086
18.02,-172.844,-5.144
18.06,-176.283,-5.292
18.09,-179.723,-5.327
18.12,-183.232,-5.441
18.15,-186.671,-5.43
18.19,-190.216,-5.625
18.22,-193.269,-5.499
18.25,-196.498,-5.842
18.28,-200.604,-5.774
18.32,-202.675,-5.831
18.35,-206.992,-6.243
18.38,-209.624,-5.865
18.41,-212.361,-6.301
18.45,-216.116,-6.186
18.48,-218.678,-6.255
18.51,-221.591,-6.427
18.54,-224.469,-6.507
18.58,-227.171,-6.518
18.61,-229.979,-6.587
18.64,-232.471,-6.587
18.67,-235.033,-6.644
18.71,-237.419,-6.667
18.74,-239.841,-6.77
18.77,-242.473,-6.896
18.81,-245.105,-6.965
18.84,-247.702,-7.08
18.87,-250.545,-7.194
18.9,-253.423,-7.217
18.94,-256.3,-7.32
18.97,-258.792,-7.297
19.0,-260.933,-7.32
19.03,-262.933,-7.366
19.07,-265.109,-7.458
19.1,-267.285,-7.526
19.13,-269.461,-7.572
19.16,-271.602,-7.629
19.2,-273.883,-7.721
19.23,-275.989,-7.732
19.26,-277.954,-7.79
19.29,-279.99,-7.881
19.33,-282.06,-7.962
19.36,-284.131,-8.007
19.39,-286.131,-8.065
19.42,-288.062,-8.099
19.46,-289.886,-8.122
19.49,-291.606,-8.133
19.52,-293.185,-8.145
19.55,-294.624,-8.202
19.59,-296.133,-8.259
19.62,-297.607,-8.317
19.65,-299.081,-8.363
19.68,-300.485,-8.397
19.72,-301.889,-8.431
19.75,-303.363,-8.466
19.78,-304.802,-8.466
19.81,-305.96,-8.511
19.85,-307.294,-8.534
19.88,-308.522,-8.58
19.91,-309.68,-8.66
19.94,-310.873,-8.729
19.98,-311.996,-8.741
20.01,-313.049,-8.786
20.04,-314.067,-8.763
20.07,-315.05,-8.741
20.11,-315.752,-8.752
20.14,-316.489,-8.786
20.17,-317.191,-8.798
20.2,-317.857,-8.786
20.24,-318.489,-8.809
20.27,-319.121,-8.798
20.3,-319.893,-8.786
20.33,-320.384,-8.752
20.37,-320.876,-8.775
20.4,-321.472,-8.832
20.43,-321.893,-8.89
20.46,-322.49,-8.947
20.5,-322.911,-8.958
20.53,-323.438,-8.993
20.56,-323.964,-8.947
20.59,-324.385,-8.947
20.63,-324.736,-8.935
20.66,-325.227,-8.935
20.69,-325.508,-8.935
20.72,-325.964,-9.016
20.76,-325.999,-8.912
20.79,-326.491,-9.084
20.82,-326.736,-8.844
20.85,-326.631,-8.958
20.89,-327.684,-8.958
20.92,-327.754,-8.867
20.95,-328.07,-8.993
20.98,-328.281,-8.912
21.02,-328.526,-8.947
21.05,-328.737,-8.935
21.08,-328.947,-8.958
21.12,-329.088,-8.901
21.15,-329.263,-8.912
21.18,-329.439,-8.867
21.21,-329.544,-8.867
21.25,-329.684,-8.832
21.28,-329.79,-8.798
21.31,-329.86,-8.763
21.34,-329.965,-8.729
21.38,-330.0,-8.683
21.41,-330.07,-8.66
21.44,-330.106,-8.637
21.47,-330.106,-8.637
21.51,-330.141,-8.603
21.54,-330.211,-8.557
21.57,-330.211,-8.489
21.6,-330.176,-8.431
21.64,-330.106,-8.408
21.67,-330.07,-8.431
21.7,-329.965,-8.431
21.73,-329.825,-8.454
21.77,-329.79,-8.431
21.8,-329.579,-8.374
21.83,-329.369,-8.317
21.86,-329.123,-8.248
21.9,-328.842,-8.156
21.93,-328.386,-8.076
21.96,-327.684,-8.007
21.99,-326.912,-7.996
22.03,-325.824,-7.836
22.06,-323.999,-7.698
22.09,-323.016,-7.778
22.12,-321.858,-7.458
22.16,-319.226,-7.343
22.19,-317.05,-7.343
22.22,-314.98,-7.263
22.25,-312.698,-7.16
22.29,-309.926,-7.068
22.32,-307.259,-7.068
22.35,-304.802,-6.999
22.38,-302.17,-6.896
22.42,-299.362,-6.805
22.45,-296.555,-6.679
22.48,-293.536,-6.575
22.51,-290.343,-6.53
22.55,-287.044,-6.507
22.58,-283.815,-6.449
22.61,-280.692,-6.346
22.64,-277.533,-6.255
22.68,-274.515,-6.175
22.71,-271.532,-6.14
22.74,-268.549,-6.106
22.77,-265.706,-6.026
22.81,-262.688,-5.934
22.84,-259.494,-5.865
22.87,-256.371,-5.716
22.9,-253.072,-5.613
22.94,-249.738,-5.556
22.97,-246.544,-5.453
23.0,-243.245,-5.384
23.03,-239.981,-5.327
23.07,-236.752,-5.27
23.1,-233.559,-5.212
23.13,-230.365,-5.144
23.16,-227.171,-5.063
23.2,-223.978,-4.949
23.23,-220.679,-4.8
23.26,-217.274,-4.651
23.29,-213.695,-4.548
23.33,-210.115,-4.433
23.36,-206.465,-4.387
23.39,-202.885,-4.296
23.43,-199.165,-4.181
23.46,-195.34,-4.09
23.49,-191.585,-3.987
23.52,-187.83,-3.838
23.56,-183.829,-3.769
23.59,-179.968,-3.689
23.62,-175.932,-3.608
23.65,-171.791,-3.528
23.69,-167.685,-3.368
23.72,-163.333,-3.242
23.75,-158.981,-3.127
23.78,-154.7,-2.978
23.82,-150.243,-2.83
23.85,-145.786,-2.772
23.88,-141.364,-2.692
23.91,-136.871,-2.612
23.95,-132.309,-2.543
23.98,-127.852,-2.44
24.01,-123.395,-2.337
24.04,-118.938,-2.222
24.08,-114.41,-2.131
24.11,-109.953,-2.016
24.14,-105.426,-1.925
24.17,-100.864,-1.821
24.21,-96.336,-1.741
24.24,-91.739,-1.627
24.27,-87.247,-1.546
24.3,-82.684,-1.478
24.34,-78.297,-1.409
24.37,-73.77,-1.306
24.4,-69.313,-1.272
24.43,-64.786,-1.191
24.47,-60.504,-1.146
24.5,-56.012,-0.962
24.53,-51.625,-0.916
24.56,-47.133,-0.733
24.6,-42.746,-0.722
24.63,-37.973,-0.493
24.66,-34.113,-0.768
24.69,-29.445,-0.229
24.73,-23.444,-0.435
24.76,-20.531,-0.515
24.79,-15.863,-0.034
24.82,-10.423,-0.195
24.86,-6.493,-0.229
24.89,-2.211,-0.115
24.92,2.597,-0.103
24.95,6.703,-0.069
24.99,10.88,0.183
25.02,15.231,0.435
25.05,19.443,0.756
25.08,23.373,1.203
25.12,27.655,1.718
25.15,32.112,2.028
25.18,36.674,2.257
25.21,41.412,2.36
25.25,45.94,2.325
25.28,50.186,2.348
25.31,54.503,2.394
25.34,58.539,2.394
25.38,62.399,2.486
25.41,66.225,2.543
25.44,69.945,2.589
25.47,73.524,2.669
25.51,77.209,2.715
25.54,80.824,2.784
25.57,84.544,2.921
25.6,88.264,3.059
25.64,91.949,3.208
25.67,95.67,3.322
25.7,99.284,3.379
25.73,102.864,3.448
25.77,106.374,3.482
25.8,109.953,3.551
25.83,113.498,3.643
25.87,117.183,3.792
25.9,120.798,3.895
25.93,124.518,4.021
25.96,128.133,4.113
26.0,132.028,4.227
26.03,135.608,4.227
26.06,139.293,4.365
26.09,142.416,4.353
26.13,147.014,4.834
26.16,151.576,4.571
26.19,154.489,4.788
26.22,158.911,4.972
26.26,162.491,4.857
26.29,165.965,5.052
26.32,169.756,5.075
26.35,173.195,5.109
26.39,176.564,5.235
26.42,180.214,5.338
26.45,183.653,5.396
26.48,187.022,5.487
26.52,190.356,5.567
26.55,193.831,5.636
26.58,197.235,5.682
26.61,200.464,5.774
26.65,203.763,5.865
26.68,206.921,5.934
26.71,209.904,6.071
26.74,212.993,6.163
26.78,215.941,6.197
26.81,218.959,6.278
26.84,221.942,6.335
26.87,224.89,6.392
26.91,227.698,6.495
26.94,230.505,6.553
26.97,233.067,6.61
27.0,235.454,6.656
27.04,237.84,6.736
27.07,240.367,6.793
27.1,242.999,6.805
27.13,245.561,6.919
27.17,248.439,7.045
27.2,251.387,7.137
27.23,253.844,7.194
27.26,256.23,7.354
27.3,258.722,7.4
27.33,260.898,7.412
27.36,263.214,7.458
27.39,265.495,7.48
27.43,267.636,7.572
27.46,269.847,7.664
27.49,272.093,7.732
27.52,274.164,7.824
27.56,276.199,7.859
27.59,278.235,7.859
27.62,280.341,7.916
27.65,282.341,7.95
27.69,284.306,7.996
27.72,286.201,8.019
27.75,288.132,8.065
27.78,289.851,8.088
27.82,291.536,8.156
27.85,293.185,8.156
27.88,294.8,8.225
27.91,296.309,8.259
27.95,297.888,8.328
27.98,299.152,8.351
28.01,300.696,8.443
28.04,301.994,8.397
28.08,303.644,8.534
28.11,304.311,8.282
28.14,305.82,8.729
28.18,307.855,8.42
28.21,308.171,8.603
28.24,310.066,8.718
28.27,310.838,8.534
28.31,312.137,8.763
28.34,313.225,8.649
28.37,314.137,8.763
28.4,315.225,8.752
28.44,316.138,8.741
28.47,316.348,8.741
28.5,317.331,8.912
28.53,318.103,8.706
28.57,318.594,8.855
28.6,319.437,8.798
28.63,319.717,8.832
28.66,320.665,8.844
28.7,320.946,8.786
28.73,321.648,8.89
28.76,322.139,8.809
28.79,322.63,8.901
28.83,323.157,8.832
28.86,323.473,8.97
28.89,324.104,8.924
28.92,324.455,8.924
28.96,324.911,8.97
28.99,325.227,8.912
29.02,325.719,8.97
29.05,326.105,8.924
29.09,326.421,8.981
29.12,326.807,8.97
29.15,326.596,8.901
29.18,327.052,9.084
29.22,327.789,8.947
29.25,327.93,8.935
29.28,328.21,8.935
29.31,328.421,8.97
29.35,328.772,8.947
29.38,328.912,8.935
29.41,329.123,8.924
29.44,329.404,8.855
29.48,329.509,8.798
29.51,329.579,8.821
29.54,329.755,8.821
29.57,329.825,8.844
29.61,330.0,8.832
29.64,330.035,8.821
29.67,330.141,8.844
29.7,330.211,8.775
29.74,330.246,8.763
29.77,330.316,8.718
29.8,330.281,8.683
29.83,330.316,8.672
29.87,330.386,8.626
29.9,330.316,8.615
29.93,330.351,8.592
29.96,330.316,8.534
30.0,330.246,8.466
30.03,330.176,8.42
30.06,330.141,8.363
30.09,329.965,8.34
30.13,329.79,8.305
30.16,329.439,8.294
30.19,329.158,8.294
30.22,328.912,8.202
30.26,328.456,8.099
30.29,327.895,8.03
30.32,327.087,7.939
30.35,325.929,7.859
30.39,324.771,7.778
30.42,322.841,7.606
30.45,321.086,7.687
30.49,319.858,7.549
30.52,317.577,7.354
30.55,315.26,7.274
30.58,312.874,7.102
30.62,310.347,7.057
30.65,307.785,7.022
30.68,305.223,6.965
30.71,302.626,6.919
30.75,299.678,6.816
30.78,296.695,6.713
30.81,293.607,6.621
30.84,290.518,6.495
30.88,287.395,6.392
30.91,284.131,6.335
30.94,280.902,6.289
30.97,277.744,6.232
31.01,274.69,6.197
31.04,271.672,6.152
31.07,268.794,6.071
31.1,265.916,5.957
31.14,262.933,5.877
31.17,259.74,5.785
31.2,256.476,5.728
31.23,253.142,5.682
31.27,249.808,5.625
31.3,246.579,5.567
31.33,243.42,5.453
31.36,240.367,5.315
31.4,237.103,5.201
31.43,233.91,5.109
31.46,230.646,5.04
31.49,227.347,4.96
31.53,224.083,4.869
31.56,220.679,4.788
31.59,217.239,4.685
31.62,213.835,4.571
31.66,210.255,4.433
31.69,206.606,4.365
31.72,203.026,4.284
31.75,199.376,4.17
31.79,195.656,4.09
31.82,191.866,3.998
31.85,188.11,3.838
31.88,184.145,3.746
31.92,180.144,3.597
31.95,176.108,3.46
31.98,171.931,3.356
32.01,167.72,3.265
32.05,163.333,3.196
32.08,158.946,3.139
32.11,154.63,3.059
32.14,150.208,2.956
32.18,145.821,2.83
32.21,141.504,2.704
32.24,136.977,2.577
32.27,132.59,2.463
32.31,128.062,2.348
32.34,123.465,2.257
32.37,118.903,2.199
32.4,114.375,2.131
32.44,109.918,2.016
32.47,105.391,1.925
32.5,100.864,1.833
32.53,96.266,1.764
32.57,91.704,1.684
32.6,87.212,1.604
32.63,82.755,1.535
32.66,78.403,1.443
32.7,74.051,1.306
32.73,69.559,1.203
32.76,65.137,1.111
32.8,60.645,1.008
32.83,56.152,0.916
32.86,51.66,0.802
32.89,47.168,0.722
32.93,42.535,0.653
32.96,38.113,0.573
32.99,33.586,0.458
33.02,29.024,0.424
33.06,24.461,0.367
33.09,19.969,0.344
33.12,15.512,0.252
33.15,11.055,0.206
33.19,6.703,0.126
33.22,2.316,0.069
33.25,-2.211,-0.034
33.28,-6.598,-0.092
33.32,-11.02,-0.321
33.35,-15.266,-0.573
33.38,-19.618,-0.939
33.41,-23.584,-1.317
33.45,-28.006,-1.833
33.48,-32.288,-1.993
33.51,-37.061,-2.348
33.54,-41.132,-2.085
33.58,-45.694,-2.589
33.61,-51.414,-2.337
33.64,-53.976,-2.222
33.67,-58.644,-2.692
33.71,-62.82,-2.337
33.74,-66.225,-2.577
33.77,-70.226,-2.623
33.8,-73.735,-2.681
33.84,-77.245,-2.795
33.87,-81.105,-2.875
33.9,-84.79,-2.933
33.93,-88.44,-3.024
33.97,-92.125,-3.07
34.0,-95.845,-3.196
34.03,-99.495,-3.276
34.06,-102.969,-3.391
34.1,-106.479,-3.494
34.13,-110.094,-3.563
34.16,-113.533,-3.643
34.19,-117.113,-3.757
34.23,-120.763,-3.792
34.26,-124.307,-3.918
34.29,-128.027,-4.032
34.32,-131.853,-4.124
34.36,-135.362,-4.181
34.39,-138.942,-4.319
34.42,-142.908,-4.433
34.45,-146.944,-4.525
34.49,-150.98,-4.639
34.52,-154.91,-4.708
34.55,-158.701,-4.8
34.58,-162.28,-4.914
34.62,-165.895,-5.006
34.65,-169.44,-5.075
34.68,-172.914,-5.155
34.71,-176.389,-5.224
34.75,-179.793,-5.315
34.78,-183.302,-5.407
34.81,-186.707,-5.487
34.84,-190.251,-5.602
34.88,-193.234,-5.567
34.91,-196.323,-5.774
34.94,-200.359,-5.888
34.97,-202.991,-5.613
35.01,-206.009,-6.06
35.04,-210.536,-6.014
35.07,-212.642,-5.865
35.1,-215.66,-6.346
35.14,-219.135,-6.197
35.17,-221.626,-6.266
35.2,-224.68,-6.346
35.24,-227.382,-6.358
35.27,-229.944,-6.449
35.3,-232.506,-6.541
35.33,-235.068,-6.61
35.37,-237.419,-6.656
35.4,-239.771,-6.701
35.43,-242.262,-6.828
35.46,-245.035,-6.931
35.5,-247.772,-7.011
35.53,-250.615,-7.114
35.56,-253.563,-7.194
35.59,-256.335,-7.263
35.63,-258.652,-7.32
35.66,-260.757,-7.377
35.69,-262.898,-7.435
35.72,-265.144,-7.469
35.76,-267.461,-7.48
35.79,-269.496,-7.526
35.82,-271.637,-7.618
35.85,-273.918,-7.687
35.89,-275.989,-7.721
35.92,-277.989,-7.801
35.95,-280.025,-7.87
35.98,-282.095,-7.985
36.02,-284.201,-7.996
36.05,-286.131,-8.03
36.08,-288.026,-8.088
36.11,-289.851,-8.099
36.15,-291.466,-8.133
36.18,-293.08,-8.191
36.21,-294.765,-8.225
36.24,-296.414,-8.237
36.28,-297.923,-8.248
36.31,-299.327,-8.271
36.34,-300.591,-8.305
36.37,-301.959,-8.363
36.41,-303.433,-8.385
36.44,-304.837,-8.42
36.47,-306.1,-8.489
36.5,-307.469,-8.511
36.54,-308.627,-8.557
36.57,-309.856,-8.603
36.6,-311.049,-8.637
36.63,-312.137,-8.683
36.67,-313.225,-8.752
36.7,-314.137,-8.752
36.73,-314.98,-8.752
36.76,-315.787,-8.729
36.8,-316.489,-8.672
36.83,-317.191,-8.683
36.86,-317.857,-8.649
36.89,-318.419,-8.718
36.93,-319.016,-8.798
36.96,-319.717,-8.832
36.99,-320.349,-8.832
37.02,-320.981,-8.844
37.06,-321.577,-8.809
37.09,-322.139,-8.798
37.12,-322.595,-8.798
37.15,-323.016,-8.821
37.19,-323.438,-8.878
37.22,-323.999,-8.901
37.25,-324.385,-8.924
37.28,-324.841,-8.912
37.32,-325.192,-8.912
37.35,-325.648,-8.901
37.38,-326.035,-8.901
37.41,-326.35,-8.901
37.45,-326.491,-8.89
37.48,-326.596,-8.878
37.51,-326.877,-8.901
37.55,-327.649,-8.935
37.58,-327.895,-8.832
37.61,-328.035,-8.935
37.64,-328.386,-8.912
37.68,-328.561,-8.924
37.71,-328.807,-8.912
37.74,-328.947,-8.89
37.77,-329.158,-8.867
37.81,-329.298,-8.867
37.84,-329.509,-8.867
37.87,-329.649,-8.798
37.9,-329.72,-8.763
37.94,-329.825,-8.752
37.97,-329.86,-8.752
38.0,-329.965,-8.741
38.03,-330.035,-8.683
38.07,-330.07,-8.672
38.1,-330.141,-8.637
38.13,-330.141,-8.637
38.16,-330.141,-8.615
38.2,-330.176,-8.592
38.23,-330.176,-8.557
38.26,-330.141,-8.523
38.29,-330.141,-8.489
38.33,-330.106,-8.466
38.36,-330.0,-8.454
38.39,-329.965,-8.397
38.42,-329.895,-8.328
38.46,-329.649,-8.271
38.49,-329.439,-8.225
38.52,-329.193,-8.191
38.55,-328.807,-8.122
38.59,-328.351,-8.088
38.62,-327.754,-8.019
38.65,-327.052,-7.962
38.68,-325.789,-7.79
38.72,-324.104,-7.71
38.75,-323.192,-7.744
38.78,-321.753,-7.435
38.81,-319.296,-7.377
38.85,-317.05,-7.332
38.88,-314.874,-7.251
38.91,-312.593,-7.102
38.94,-309.821,-6.999
38.98,-307.259,-6.999
39.01,-304.977,-6.942
39.04,-302.415,-6.816
39.07,-299.467,-6.77
39.11,-296.66,-6.69
39.14,-293.642,-6.587
39.17,-290.483,-6.518
39.2,-287.289,-6.427
39.24,-284.096,-6.289
39.27,-280.867,-6.175
39.3,-277.638,-6.117
39.33,-274.48,-6.117
39.37,-271.497,-6.083
39.4,-268.513,-6.049
39.43,-265.601,-5.991
39.46,-262.582,-5.945
39.5,-259.564,-5.842
39.53,-256.441,-5.693
39.56,-253.072,-5.625
39.59,-249.808,-5.579
39.63,-246.544,-5.487
39.66,-243.28,-5.441
39.69,-240.157,-5.361
39.72,-236.928,-5.235
39.76,-233.769,-5.144
39.79,-230.611,-4.995
39.82,-227.347,-4.869
39.86,-223.943,-4.788
39.89,-220.503,-4.731
39.92,-217.029,-4.674
39.95,-213.519,-4.594
39.99,-209.904,-4.502
40.02,-206.36,-4.41
40.05,-202.71,-4.296
40.08,-199.06,-4.193
40.12,-195.305,-4.101
40.15,-191.479,-4.032
40.18,-187.689,-3.941
40.21,-183.794,-3.838
40.25,-179.758,-3.746
40.28,-175.757,-3.62
40.31,-171.721,-3.471
40.34,-167.439,-3.322
40.38,-163.298,-3.196
40.41,-158.911,-3.082
40.44,-154.594,-2.978
40.47,-150.172,-2.875
40.51,-145.68,-2.784
40.54,-141.328,-2.669
40.57,-136.766,-2.577
40.6,-132.274,-2.497
40.64,-127.817,-2.406
40.67,-123.254,-2.291
40.7,-118.727,-2.211
40.73,-114.235,-2.131
40.77,-109.673,-2.062
40.8,-105.251,-1.982
40.83,-100.723,-1.867
40.86,-96.231,-1.776
40.9,-91.809,-1.615
40.93,-87.247,-1.524
40.96,-82.755,-1.432
40.99,-78.333,-1.363
41.03,-73.77,-1.294
41.06,-69.418,-1.214
41.09,-64.926,-1.1
41.12,-60.68,-1.02
41.16,-56.047,-0.871
41.19,-51.59,-0.848
41.22,-46.957,-0.71
41.25,-42.57,-0.699
41.29,-37.622,-0.515
41.32,-34.007,-0.768
41.35,-29.234,-0.16
41.38,-23.373,-0.401
41.42,-20.531,-0.47
41.45,-15.723,-0.092
41.48,-10.599,-0.229
41.51,-6.598,-0.252
41.55,-2.386,-0.115
41.58,2.316,-0.103
41.61,6.458,-0.057
41.64,10.774,0.195
41.68,15.231,0.458
41.71,19.478,0.768
41.74,23.479,1.214
41.77,27.866,1.695
41.81,32.217,2.005
41.84,36.78,2.257
41.87,41.483,2.36
41.9,45.975,2.383
41.94,50.151,2.451
41.97,54.433,2.509
42.0,58.434,2.486
42.03,62.364,2.497
42.07,66.225,2.497
42.1,70.015,2.52
42.13,73.595,2.589
42.17,77.28,2.704
42.2,80.894,2.818
42.23,84.474,2.967
42.26,88.264,3.059
42.3,91.949,3.127
42.33,95.67,3.23
42.36,99.319,3.311
42.39,102.864,3.391
42.43,106.374,3.54
42.46,110.094,3.654
42.49,113.638,3.746
42.52,117.253,3.849
42.56,120.903,3.918
42.59,124.588,3.998
42.62,128.238,4.09
42.65,132.028,4.193
42.69,135.643,4.25
42.72,139.293,4.353
42.75,142.311,4.41
42.78,147.189,4.88
42.82,151.401,4.571
42.85,154.454,4.892
42.88,159.087,4.972
42.91,162.596,4.846
42.95,166.211,5.063
42.98,169.966,5.098
43.01,173.265,5.189
43.04,176.74,5.35
43.08,180.354,5.373
43.11,183.653,5.43
43.14,187.093,5.476
43.17,190.392,5.602
43.21,193.901,5.682
43.24,197.165,5.716
43.27,200.394,5.865
43.3,203.693,5.957
43.34,206.851,6.003
43.37,210.01,6.094
43.4,213.168,6.129
43.43,216.011,6.175
43.47,218.784,6.301
43.5,221.872,6.415
43.53,224.855,6.507
43.56,227.873,6.61
43.6,230.786,6.633
43.63,233.348,6.656
43.66,235.699,6.69
43.69,237.981,6.736
43.73,240.402,6.828
43.76,243.034,6.908
43.79,245.631,6.999
43.82,248.404,7.137
43.86,251.352,7.183
43.89,253.914,7.171
43.92,256.371,7.263
43.95,258.722,7.309
43.99,260.898,7.4
44.02,263.214,7.503
44.05,265.601,7.549
44.08,267.706,7.618
44.12,269.917,7.687
44.15,272.269,7.687
44.18,274.409,7.732
44.21,276.41,7.79
44.25,278.445,7.847
44.28,280.376,7.939
44.31,282.411,8.053
44.34,284.377,8.122
44.38,286.201,8.179
44.41,288.202,8.202
44.44,289.992,8.202
44.47,291.676,8.214
44.51,293.185,8.237
44.54,294.765,8.294
44.57,296.274,8.363
44.61,297.888,8.385
44.64,299.222,8.443
44.67,300.766,8.397
44.7,301.503,8.454
44.74,303.995,8.741
44.77,304.346,8.282
44.8,305.995,8.935
44.83,308.136,8.443
44.87,308.452,8.775
44.9,310.522,8.706
44.93,311.049,8.637
44.96,312.418,8.752
45.0,313.295,8.592
45.03,314.207,8.718
45.06,315.015,8.718
45.09,315.752,8.786
45.13,316.489,8.821
45.16,317.191,8.855
45.19,317.928,8.821
45.22,318.7,8.775
45.26,319.226,8.763
45.29,319.858,8.798
45.32,320.384,8.844
45.35,320.911,8.97
45.39,321.577,8.993
45.42,322.034,9.073
45.45,322.701,9.016
45.48,323.157,8.924
45.52,323.613,8.89
45.55,323.999,8.901
45.58,324.385,8.947
45.61,324.806,9.004
45.65,325.262,9.038
45.68,325.684,9.004
45.71,326.07,9.061
45.74,326.456,8.993
45.78,326.877,8.981
45.81,326.631,8.878
45.84,327.017,9.096
45.87,327.824,9.004
45.91,327.824,9.027
45.94,328.246,9.05
45.97,328.386,9.027
46.0,328.737,9.05
46.04,328.947,8.981
46.07,329.193,8.947
46.1,329.298,8.935
46.13,329.544,8.924
46.17,329.579,8.901
46.2,329.755,8.935
46.23,329.825,8.89
46.26,329.965,8.901
46.3,330.07,8.832
46.33,330.176,8.798
46.36,330.211,8.775
46.39,330.211,8.763
46.43,330.316,8.763
46.46,330.316,8.729
46.49,330.281,8.718
46.52,330.281,8.741
46.56,330.316,8.66
46.59,330.316,8.637
46.62,330.316,8.569
46.65,330.246,8.534
46.69,330.211,8.511
46.72,330.106,8.466
46.75,329.93,8.443
46.78,329.79,8.385
46.82,329.544,8.328
46.85,329.228,8.259
46.88,328.877,8.214
46.92,328.456,8.122
46.95,327.824,8.065
46.98,327.122,7.962
47.01,326.035,7.893
47.05,324.736,7.813
47.08,322.771,7.664
47.11,321.297,7.721
47.14,320.068,7.526
47.18,317.506,7.423
47.21,315.225,7.4
47.24,312.698,7.24
47.27,310.066,7.217
47.31,307.504,7.148
47.34,305.048,7.034
47.37,302.521,6.919
47.4,299.678,6.816
47.44,296.765,6.759
47.47,293.747,6.656
47.5,290.553,6.575
47.53,287.254,6.53
47.57,284.061,6.461
47.6,280.832,6.358
47.63,277.673,6.243
47.66,274.55,6.175
47.7,271.497,6.186
47.73,268.584,6.163
47.76,265.671,6.083
47.79,262.723,5.968
47.83,259.564,5.888
47.86,256.371,5.819
47.89,253.107,5.716
47.92,249.878,5.636
47.96,246.719,5.522
47.99,243.385,5.453
48.02,240.121,5.407
48.05,236.998,5.327
48.09,233.769,5.224
48.12,230.505,5.155
48.15,227.242,5.075
48.18,223.978,4.926
48.22,220.609,4.8
48.25,217.134,4.697
48.28,213.625,4.628
48.31,210.15,4.525
48.35,206.535,4.422
48.38,202.885,4.33
48.41,199.236,4.239
48.44,195.48,4.113
48.48,191.655,4.021
48.51,187.794,3.918
48.54,183.934,3.803
48.57,179.863,3.7
48.61,175.827,3.563
48.64,171.475,3.46
48.67,167.299,3.368
48.7,163.193,3.253
48.74,158.946,3.116
48.77,154.7,3.001
48.8,150.313,2.887
48.83,145.821,2.807
48.87,141.504,2.726
48.9,136.977,2.6
48.93,132.484,2.52
48.96,128.027,2.383
49.0,123.535,2.257
49.03,119.008,2.165
49.06,114.41,2.073
49.09,109.848,2.016
49.13,105.356,1.947
49.16,100.758,1.89
49.19,96.231,1.81
49.23,91.774,1.661
49.26,87.177,1.592
49.29,82.86,1.489
49.32,78.473,1.386
49.36,74.016,1.294
49.39,69.524,1.237
49.42,65.067,1.18
49.45,60.574,1.134
49.49,56.187,1.02
49.52,51.66,0.905
49.55,47.203,0.825
49.58,42.676,0.664
49.62,38.078,0.596
49.65,33.516,0.493
49.68,29.059,0.435
49.71,24.391,0.355
49.75,19.934,0.309
49.78,15.442,0.172
49.81,11.02,0.137
49.84,6.528,0.08
49.88,2.106,0.115
49.91,-2.351,0.011
49.94,-6.563,-0.023
49.97,-11.16,-0.355
50.01,-14.635,-0.309
50.04,-18.987,-1.134
50.07,-24.637,-1.294
50.1,-27.339,-1.604
50.14,-32.182,-2.28
50.17,-37.271,-2.222
50.2,-41.833,-2.337
50.23,-46.255,-2.314
50.27,-50.432,-2.348
50.3,-54.573,-2.371
50.33,-58.574,-2.44
50.36,-62.399,-2.474
50.4,-66.19,-2.543
50.43,-69.804,-2.589
50.46,-73.489,-2.692
50.49,-77.174,-2.726
50.53,-80.824,-2.807
50.56,-84.544,-2.921
50.59,-88.335,-3.013
50.62,-91.949,-3.116
50.66,-95.74,-3.208
50.69,-99.319,-3.253
50.72,-102.829,-3.334
50.75,-106.339,-3.414
50.79,-109.953,-3.517
50.82,-113.463,-3.608
50.85,-117.078,-3.689
50.88,-120.622,-3.803
50.92,-124.272,-3.941
50.95,-127.957,-4.067
50.98,-131.712,-4.17
51.01,-135.222,-4.216
51.05,-138.696,-4.365
51.08,-142.557,-4.525
51.11,-146.628,-4.662
51.14,-150.699,-4.766
51.18,-154.63,-4.857
51.21,-158.42,-4.88
51.24,-162.21,-4.96
51.27,-165.895,-4.937
51.31,-169.405,-5.052
51.34,-172.844,-5.075
51.37,-176.353,-5.315
51.4,-179.723,-5.235
51.44,-182.776,-5.453
51.47,-187.268,-5.625
51.5,-190.216,-5.373
51.54,-192.883,-5.659
51.57,-196.674,-5.762
51.6,-200.359,-5.739
51.63,-202.991,-5.831
51.67,-206.535,-6.152
51.7,-209.799,-6.014
51.73,-212.537,-6.186
51.76,-215.765,-6.22
51.8,-218.748,-6.232
51.83,-221.556,-6.266
51.86,-224.469,-6.415
51.89,-227.382,-6.495
51.93,-230.119,-6.564
51.96,-232.576,-6.633
51.99,-234.998,-6.736
52.02,-237.349,-6.736
52.06,-239.63,-6.839
52.09,-242.297,-6.931
52.12,-245.105,-6.988
52.15,-247.737,-7.091
52.19,-250.58,-7.217
52.22,-253.352,-7.297
52.25,-256.055,-7.377
52.28,-258.582,-7.366
52.32,-260.652,-7.435
52.35,-262.793,-7.458
52.38,-265.039,-7.469
52.41,-267.215,-7.503
52.45,-269.391,-7.595
52.48,-271.532,-7.721
52.51,-273.848,-7.767
52.54,-275.954,-7.778
52.58,-277.919,-7.824
52.61,-280.025,-7.859
52.64,-282.13,-7.893
52.67,-284.096,-7.962
52.71,-285.956,-8.03
52.74,-287.921,-8.099
52.77,-289.746,-8.133
52.8,-291.325,-8.202
52.84,-292.94,-8.271
52.87,-294.589,-8.282
52.9,-296.133,-8.317
52.93,-297.678,-8.34
52.97,-299.152,-8.351
53.0,-300.485,-8.385
53.03,-301.889,-8.454
53.06,-303.363,-8.466
53.1,-304.767,-8.511
53.13,-306.065,-8.546
53.16,-307.294,-8.58
53.19,-308.592,-8.637
53.23,-309.785,-8.672
53.26,-310.838,-8.775
53.29,-312.102,-8.832
53.32,-313.225,-8.809
53.36,-314.102,-8.821
53.39,-315.085,-8.763
53.42,-315.752,-8.729
53.45,-316.418,-8.718
53.49,-317.05,-8.775
53.52,-317.717,-8.729
53.55,-318.489,-8.786
53.58,-318.84,-8.683
53.62,-319.366,-8.844
53.65,-320.49,-8.821
53.68,-320.805,-8.786
53.71,-321.437,-8.89
53.75,-321.928,-8.855
53.78,-322.42,-8.981
53.81,-322.841,-9.016
53.84,-323.402,-9.061
53.88,-323.894,-9.027
53.91,-324.35,-9.073
53.94,-324.771,-9.038
53.98,-325.157,-9.084
54.01,-325.613,-9.05
54.04,-326.035,-9.05
54.07,-326.315,-8.981
54.11,-326.701,-9.027
54.14,-326.736,-8.924
54.17,-326.736,-9.038
54.2,-327.719,-9.004
54.24,-327.859,-8.878
54.27,-328.14,-8.958
54.3,-328.386,-8.924
54.33,-328.632,-8.981
54.37,-328.842,-8.912
54.4,-329.053,-8.912
54.43,-329.193,-8.878
54.46,-329.333,-8.901
54.5,-329.474,-8.867
54.53,-329.614,-8.844
54.56,-329.649,-8.844
54.59,-329.755,-8.867
54.63,-329.825,-8.89
54.66,-330.0,-8.844
54.69,-330.07,-8.775
54.72,-330.106,-8.741
54.76,-330.141,-8.695
54.79,-330.176,-8.637
54.82,-330.176,-8.637
54.85,-330.176,-8.626
54.89,-330.211,-8.569
54.92,-330.176,-8.523
54.95,-330.176,-8.477
54.98,-330.106,-8.477
55.02,-330.035,-8.454
55.05,-329.93,-8.454
55.08,-329.79,-8.431
55.11,-329.684,-8.397
55.15,-329.439,-8.34
55.18,-329.228,-8.259
55.21,-328.877,-8.145
55.24,-328.421,-8.076
55.28,-327.719,-8.007
55.31,-327.017,-7.962
55.34,-325.543,-7.778
55.37,-324.174,-7.847
55.41,-323.894,-7.813
55.44,-322.139,-7.492
55.47,-319.366,-7.515
55.5,-317.261,-7.435
55.54,-315.015,-7.251
55.57,-312.628,-7.148
55.6,-309.891,-7.034
55.63,-307.329,-7.045
55.67,-304.942,-6.954
55.7,-302.205,-6.896
55.73,-299.503,-6.793
55.76,-296.59,-6.679
55.8,-293.642,-6.61
55.83,-290.483,-6.472
55.86,-287.289,-6.427
55.89,-284.026,-6.369
55.93,-280.832,-6.301
55.96,-277.638,-6.22
55.99,-274.48,-6.175
56.02,-271.532,-6.117
56.06,-268.619,-6.049
56.09,-265.776,-5.991
56.12,-262.688,-5.9
56.15,-259.529,-5.842
56.19,-256.3,-5.762
56.22,-253.036,-5.705
56.25,-249.808,-5.602
56.29,-246.544,-5.51
56.32,-243.35,-5.441
56.35,-240.227,-5.35
56.38,-237.068,-5.247
56.42,-233.804,-5.155
56.45,-230.54,-5.098
56.48,-227.206,-4.983
56.51,-223.907,-4.903
56.55,-220.538,-4.8
56.58,-217.099,-4.685
56.61,-213.554,-4.605
56.64,-210.08,-4.502
56.68,-206.43,-4.399
56.71,-202.78,-4.319
56.74,-199.095,-4.216
56.77,-195.305,-4.158
56.81,-191.585,-4.044
56.84,-187.724,-3.906
56.87,-183.794,-3.792
56.9,-179.863,-3.654
56.94,-175.792,-3.54
56.97,-171.581,-3.471
57.0,-167.369,-3.345
57.03,-163.052,-3.242
57.07,-158.771,-3.127
57.1,-154.454,-3.001
57.13,-150.032,-2.887
57.16,-145.75,-2.772
57.2,-141.364,-2.658
57.23,-136.836,-2.577
57.26,-132.309,-2.532
57.29,-127.817,-2.463
57.33,-123.325,-2.36
57.36,-118.797,-2.268
57.39,-114.34,-2.165
57.42,-109.883,-2.039
57.46,-105.391,-1.913
57.49,-100.829,-1.821
57.52,-96.301,-1.73
57.55,-91.704,-1.638
57.59,-87.036,-1.558
57.62,-82.649,-1.466
57.65,-78.122,-1.363
57.68,-73.7,-1.283
57.72,-69.208,-1.18
57.75,-64.751,-1.18
57.78,-60.364,-1.077
57.81,-55.942,-1.031
57.85,-51.414,-0.928
57.88,-47.168,-0.871
57.91,-42.43,-0.664
57.94,-38.815,-0.825
57.98,-33.797,-0.218
58.01,-28.076,-0.515
58.04,-25.058,-0.493
58.07,-20.11,-0.08
58.11,-14.775,-0.241
58.14,-10.809,-0.263
58.17,-6.493,-0.149
58.2,-1.825,-0.149
58.24,2.316,-0.137
58.27,6.598,0.023
58.3,10.915,0.183
58.33,15.126,0.435
58.37,19.373,0.813
58.4,23.479,1.226
58.43,27.725,1.73
58.46,32.217,2.073
58.5,36.745,2.268
58.53,41.483,2.406
58.56,46.045,2.406
58.6,50.362,2.406
58.63,54.608,2.417
58.66,58.574,2.417
58.69,62.329,2.486
58.73,66.154,2.577
58.76,69.945,2.646
58.79,73.489,2.738
58.82,77.315,2.818
58.86,80.965,2.864
58.89,84.615,2.978
58.92,88.264,3.093
58.95,92.02,3.185
58.99,95.67,3.276
59.02,99.284,3.379
59.05,102.829,3.471
59.08,106.479,3.528
59.12,110.059,3.586
59.15,113.673,3.654
59.18,117.288,3.746
59.21,120.938,3.826
59.25,124.518,3.941
59.28,128.343,4.055
59.31,131.958,4.193
59.34,135.924,4.284
59.38,138.731,4.239
59.41,143.329,4.72
59.44,147.47,4.399
59.47,150.488,4.8
59.51,155.402,4.88
59.54,158.876,4.823
59.57,162.526,5.063
59.6,166.351,5.04
59.64,169.72,5.075
59.67,173.265,5.166
59.7,176.81,5.212
59.73,180.179,5.361
59.77,183.688,5.453
59.8,187.057,5.556
59.83,190.567,5.693
59.86,194.041,5.705
59.9,197.375,5.739
59.93,200.604,5.808
59.96,203.798,5.854
59.99,206.921,5.934
60.03,210.08,6.037
60.06,213.098,6.106
60.09,215.941,6.232
60.12,219.029,6.346
60.16,222.012,6.358
60.19,224.925,6.438
60.22,227.768,6.518
60.25,230.505,6.575
60.29,233.208,6.644
60.32,235.699,6.667
60.35,238.016,6.724
60.38,240.402,6.793
60.42,242.999,6.873
60.45,245.631,6.954
60.48,248.369,7.057
60.51,251.317,7.171
60.55,253.914,7.206
60.58,256.371,7.297
60.61,258.722,7.354
60.64,260.828,7.412
60.68,263.039,7.503
60.71,265.425,7.538
60.74,267.601,7.561
60.77,269.812,7.629
60.81,272.128,7.71
60.84,274.164,7.778
60.87,276.199,7.824
60.91,278.059,7.916
60.94,280.235,7.973
60.97,282.306,7.973
61.0,284.412,8.03
61.04,286.307,8.053
61.07,288.132,8.099
61.1,289.746,8.145
61.13,291.536,8.179
61.17,293.045,8.145
61.2,294.695,8.259
61.23,296.133,8.237
61.26,297.993,8.328
61.3,298.871,8.179
61.33,300.52,8.534
61.36,302.31,8.374
61.39,303.468,8.534
61.43,304.276,8.397
61.46,305.925,8.832
61.49,307.925,8.557
61.52,308.557,8.683
61.56,310.347,8.729
61.59,310.979,8.649
61.62,312.418,8.729
61.65,313.295,8.603
61.69,314.172,8.741
61.72,314.98,8.718
61.75,315.787,8.729
61.78,316.489,8.729
61.82,317.12,8.763
61.85,317.647,8.798
61.88,318.419,8.878
61.91,319.051,8.901
61.95,319.647,8.97
61.98,320.314,8.97
62.01,320.981,8.947
62.04,321.542,8.89
62.08,322.034,8.924
62.11,322.56,8.924
62.14,322.946,8.981
62.17,323.543,8.947
62.21,323.929,8.935
62.24,324.385,9.004
62.27,324.771,9.027
62.3,325.192,9.038
62.34,325.684,9.004
62.37,326.035,9.016
62.4,326.315,9.05
62.43,326.701,9.073
62.47,326.561,8.981
62.5,326.912,9.176
62.53,327.719,9.084
62.56,327.859,9.05
62.6,328.281,9.016
62.63,328.386,8.935
62.66,328.737,8.947
62.69,328.877,8.924
62.73,329.123,8.924
62.76,329.298,8.878
62.79,329.474,8.912
62.82,329.614,8.855
62.86,329.755,8.832
62.89,329.86,8.821
62.92,329.965,8.844
62.95,330.07,8.809
62.99,330.106,8.844
63.02,330.176,8.821
63.05,330.246,8.798
63.08,330.316,8.763
63.12,330.351,8.649
63.15,330.386,8.603
63.18,330.351,8.58
63.21,330.316,8.58
63.25,330.316,8.592
63.28,330.281,8.534
63.31,330.211,8.557
63.35,330.246,8.489
63.38,330.141,8.408
63.41,329.965,8.385
63.44,329.755,8.328
63.48,329.544,8.305
63.51,329.263,8.214
63.54,328.842,8.156
63.57,328.421,8.111
63.61,327.859,8.042
63.64,327.017,7.927
63.67,325.999,7.87
63.7,324.596,7.71
63.74,322.665,7.652
63.77,321.507,7.721
63.8,319.963,7.469
63.83,317.471,7.446
63.87,315.295,7.332
63.9,312.698,7.183
63.93,310.101,7.102
63.96,307.68,6.988
64.0,305.118,6.954
64.03,302.521,6.919
64.06,299.643,6.816
64.09,296.66,6.736
64.13,293.571,6.656
64.16,290.483,6.553
64.19,287.289,6.484
64.22,284.131,6.404
64.26,280.832,6.346
64.29,277.638,6.312
64.32,274.69,6.22
64.35,271.637,6.163
64.39,268.689,6.14
64.42,265.811,6.049
64.45,262.793,5.968
64.48,259.634,5.877
64.52,256.476,5.774
64.55,253.212,5.693
64.58,249.983,5.625
64.61,246.754,5.544
64.65,243.596,5.441
64.68,240.367,5.373
64.71,237.244,5.304
64.74,234.05,5.155
64.78,230.716,5.075
64.81,227.417,5.018
64.84,224.048,4.926
64.87,220.679,4.869
64.91,217.274,4.777
64.94,213.905,4.617
64.97,210.326,4.468
65.0,206.746,4.376
65.04,203.096,4.296
65.07,199.411,4.193
65.1,195.621,4.101
65.13,191.83,3.998
65.17,188.005,3.918
65.2,184.074,3.803
65.23,180.214,3.643
65.26,176.178,3.494
65.3,172.037,3.368
65.33,167.79,3.253
65.36,163.438,3.15
65.39,158.981,3.093
65.43,154.63,3.024
65.46,150.137,2.944
65.49,145.715,2.864
65.52,141.469,2.715
65.56,137.012,2.566
65.59,132.52,2.486
65.62,128.062,2.417
65.66,123.5,2.325
65.69,119.043,2.222
65.72,114.481,2.142
65.75,109.988,2.051
65.79,105.602,1.89
65.82,101.039,1.764
65.85,96.442,1.684
65.88,91.774,1.604
65.92,87.212,1.569
65.95,82.825,1.478
65.98,78.333,1.409
66.01,73.911,1.329
66.05,69.418,1.249
66.08,64.996,1.168
66.11,60.539,1.065
66.14,56.187,0.951
66.18,51.73,0.836
66.21,47.273,0.733
66.24,42.711,0.653
66.27,38.184,0.607
66.31,33.691,0.538
66.34,29.234,0.47
66.37,24.707,0.344
66.4,20.25,0.275
66.44,15.688,0.149
66.47,11.125,0.183
66.5,6.633,0.115
66.53,2.211,0.115
66.57,-2.351,-0.034
66.6,-6.598,-0.034
66.63,-11.23,-0.378
66.66,-14.81,-0.344
66.7,-19.022,-1.123
66.73,-24.707,-1.363
66.76,-27.48,-1.581
66.79,-32.182,-2.291
66.83,-37.376,-2.211
66.86,-41.904,-2.337
66.89,-46.255,-2.36
66.92,-50.502,-2.417
66.96,-54.678,-2.417
66.99,-58.749,-2.44
67.02,-62.575,-2.429
67.05,-66.26,-2.52
67.09,-69.945,-2.6
67.12,-73.56,-2.715
67.15,-77.35,-2.784
67.18,-81.035,-2.887
67.22,-84.79,-2.978
67.25,-88.44,-3.059
67.28,-92.125,-3.127
67.31,-95.88,-3.185
67.35,-99.39,-3.23
67.38,-102.794,-3.356
67.41,-106.268,-3.482
67.44,-109.813,-3.586
67.48,-113.393,-3.677
67.51,-117.043,-3.78
67.54,-120.657,-3.838
67.57,-124.342,-3.941
67.61,-128.062,-4.044
67.64,-131.818,-4.135
67.67,-135.257,-4.239
67.7,-138.837,-4.387
67.74,-142.838,-4.525
67.77,-146.873,-4.628
67.8,-150.945,-4.72
67.83,-154.875,-4.811
67.87,-158.56,-4.846
67.9,-162.28,-4.949
67.93,-165.86,-4.983
67.97,-169.475,-5.121
68.0,-172.949,-5.109
68.03,-176.494,-5.292
68.06,-179.828,-5.189
68.1,-182.776,-5.396
68.13,-187.303,-5.567
68.16,-190.216,-5.361
68.19,-192.848,-5.67
68.23,-196.814,-5.854
68.26,-200.429,-5.797
68.29,-203.201,-5.877
68.32,-206.711,-6.094
68.36,-209.764,-6.014
68.39,-212.747,-6.186
68.42,-216.046,-6.186
68.45,-218.889,-6.232
68.49,-221.626,-6.301
68.52,-224.469,-6.449
68.55,-227.417,-6.461
68.58,-230.084,-6.507
68.62,-232.646,-6.553
68.65,-235.138,-6.621
68.68,-237.419,-6.69
68.71,-239.876,-6.782
68.75,-242.403,-6.85
68.78,-245.035,-6.954
68.81,-247.737,-7.057
68.84,-250.58,-7.148
68.88,-253.387,-7.217
68.91,-256.335,-7.309
68.94,-258.827,-7.286
68.97,-260.863,-7.332
69.01,-262.968,-7.423
69.04,-265.215,-7.48
69.07,-267.426,-7.492
69.1,-269.531,-7.572
69.14,-271.707,-7.629
69.17,-273.918,-7.698
69.2,-275.883,-7.79
69.23,-277.954,-7.824
69.27,-280.025,-7.847
69.3,-282.06,-7.927
69.33,-284.166,-7.973
69.36,-286.201,-8.007
69.4,-288.062,-8.065
69.43,-289.816,-8.088
69.46,-291.396,-8.111
69.49,-293.08,-8.133
69.53,-294.589,-8.191
69.56,-296.169,-8.248
69.59,-297.678,-8.271
69.62,-299.117,-8.294
69.66,-300.555,-8.328
69.69,-301.959,-8.374
69.72,-303.328,-8.431
69.75,-304.802,-8.489
69.79,-306.03,-8.58
69.82,-307.399,-8.603
69.85,-308.662,-8.603
69.88,-309.856,-8.672
69.92,-310.979,-8.695
69.95,-312.102,-8.752
69.98,-313.26,-8.718
70.01,-314.207,-8.683
70.05,-315.05,-8.672
70.08,-315.752,-8.695
70.11,-316.454,-8.695
70.14,-317.191,-8.741
70.18,-317.857,-8.718
70.21,-318.594,-8.775
70.24,-319.016,-8.649
70.28,-319.437,-8.798
70.31,-320.49,-8.798
70.34,-320.805,-8.775
70.37,-321.437,-8.89
70.41,-321.964,-8.844
70.44,-322.49,-8.901
70.47,-322.876,-8.878
70.5,-323.297,-8.912
70.54,-323.859,-8.901
70.57,-324.315,-8.924
70.6,-324.771,-8.935
70.63,-325.192,-8.993
70.67,-325.543,-8.958
70.7,-325.964,-9.004
70.73,-326.245,-8.924
70.76,-326.631,-8.993
70.8,-326.701,-8.867
70.83,-326.666,-9.004
70.86,-327.649,-9.016
70.89,-327.789,-8.912
70.93,-328.035,-9.038
70.96,-328.281,-8.981
70.99,-328.526,-9.016
71.02,-328.807,-8.958
71.06,-328.983,-8.912
71.09,-329.123,-8.878
71.12,-329.298,-8.912
71.15,-329.404,-8.901
71.19,-329.544,-8.912
71.22,-329.72,-8.855
71.25,-329.755,-8.809
71.28,-329.86,-8.775
71.32,-330.0,-8.695
71.35,-330.0,-8.672
71.38,-330.0,-8.672
71.41,-330.035,-8.695
71.45,-330.141,-8.672
71.48,-330.141,-8.649
71.51,-330.176,-8.592
71.54,-330.176,-8.546
71.58,-330.141,-8.534
71.61,-330.07,-8.511
71.64,-330.0,-8.534
71.67,-329.965,-8.511
71.71,-329.825,-8.5
71.74,-329.79,-8.42
71.77,-329.544,-8.363
71.8,-329.369,-8.374
71.84,-329.158,-8.248
71.87,-328.772,-8.191
71.9,-328.316,-8.133
71.93,-327.754,-8.065
71.97,-327.052,-7.996
72.0,-325.824,-7.778
72.03,-324.139,-7.744
72.06,-323.332,-7.767
72.1,-321.788,-7.48
72.13,-319.226,-7.435
72.16,-317.085,-7.354
72.19,-315.015,-7.263
72.23,-312.663,-7.114
72.26,-309.856,-7.034
72.29,-307.294,-7.011
72.32,-304.977,-6.919
72.36,-302.275,-6.793
72.39,-299.467,-6.701
72.42,-296.555,-6.621
72.45,-293.571,-6.564
72.49,-290.378,-6.518
72.52,-287.149,-6.449
72.55,-283.955,-6.369
72.58,-280.762,-6.289
72.62,-277.603,-6.232
72.65,-274.655,-6.152
72.68,-271.637,-6.094
72.72,-268.724,-6.014
72.75,-265.741,-5.98
72.78,-262.653,-5.957
72.81,-259.599,-5.877
72.85,-256.406,-5.739
72.88,-253.177,-5.636
72.91,-249.843,-5.533
72.94,-246.579,-5.476
72.98,-243.315,-5.407
73.01,-240.157,-5.315
73.04,-237.033,-5.247
73.07,-233.839,-5.155
73.11,-230.576,-5.086
73.14,-227.347,-4.983
73.17,-224.083,-4.857
73.2,-220.679,-4.743
73.24,-217.239,-4.651
73.27,-213.695,-4.559
73.3,-210.115,-4.445
73.33,-206.535,-4.365
73.37,-202.85,-4.261
73.4,-199.095,-4.17
73.43,-195.445,-4.067
73.46,-191.69,-3.918
73.5,-187.83,-3.838
73.53,-183.864,-3.78
73.56,-179.898,-3.677
73.59,-175.862,-3.574
73.63,-171.826,-3.425
73.66,-167.65,-3.299
73.69,-163.368,-3.162
73.72,-159.016,-3.047
73.76,-154.7,-2.956
73.79,-150.243,-2.852
73.82,-145.75,-2.772
73.85,-141.328,-2.715
73.89,-136.801,-2.623
73.92,-132.274,-2.532
73.95,-127.817,-2.451
73.98,-123.395,-2.314
74.02,-118.832,-2.234
74.05,-114.445,-2.131
74.08,-109.953,-2.028
74.11,-105.391,-1.936
74.15,-100.969,-1.821
74.18,-96.336,-1.707
74.21,-91.809,-1.638
74.24,-87.282,-1.512
74.28,-82.755,-1.443
74.31,-78.262,-1.352
74.34,-73.84,-1.306
74.37,-69.278,-1.203
74.41,-64.856,-1.157
74.44,-60.399,-1.008
74.47,-55.942,-0.962
74.5,-51.379,-0.825
74.54,-47.063,-0.813
74.57,-42.36,-0.596
74.6,-38.394,-0.813
74.63,-34.007,-0.344
74.67,-28.041,-0.424
74.7,-24.883,-0.619
74.73,-20.32,-0.172
74.76,-15.126,-0.252
74.8,-10.95,-0.229
74.83,-6.773,-0.137
74.86,-2.0,-0.126
74.89,2.211,-0.183
74.93,6.493,-0.023
74.96,10.95,0.16
74.99,15.231,0.412
75.03,19.373,0.756
75.06,23.479,1.203
75.09,27.76,1.661
75.12,32.147,2.016
75.16,36.71,2.177
75.19,41.307,2.36
75.22,45.869,2.394
75.25,50.221,2.451
75.29,54.538,2.474
75.32,58.504,2.474
75.35,62.399,2.532
75.38,66.365,2.532
75.42,70.12,2.543
75.45,73.665,2.6
75.48,77.315,2.692
75.51,80.965,2.772
75.55,84.615,2.887
75.58,88.37,3.024
75.61,91.985,3.127
75.64,95.74,3.253
75.68,99.39,3.288
75.71,102.969,3.368
75.74,106.514,3.494
75.77,110.059,3.608
75.81,113.638,3.723
75.84,117.183,3.838
75.87,120.763,3.964
75.9,124.518,4.032
75.94,128.308,4.067
75.97,132.028,4.147
76.0,135.678,4.227
76.03,139.082,4.365
76.07,142.943,4.525
76.1,146.944,4.594
76.13,150.98,4.697
76.16,154.98,4.777
76.2,158.806,4.811
76.23,162.491,4.903
76.26,166.176,4.983
76.29,169.756,5.075
76.33,173.23,5.166
76.36,176.775,5.247
76.39,180.249,5.338
76.42,183.618,5.453
76.46,187.198,5.51
76.49,190.742,5.567
76.52,194.147,5.648
76.55,197.34,5.682
76.59,200.499,5.774
76.62,203.622,5.877
76.65,206.781,5.957
76.68,209.975,6.026
76.72,213.098,6.106
76.75,216.116,6.152
76.78,219.099,6.22
76.81,221.977,6.289
76.85,224.82,6.415
76.88,227.698,6.518
76.91,230.505,6.621
76.94,233.243,6.667
76.98,235.735,6.69
77.01,238.156,6.713
77.04,240.578,6.77
77.07,243.175,6.873
77.11,245.842,6.965
77.14,248.65,7.068
77.17,251.562,7.183
77.2,254.019,7.217
77.24,256.476,7.297
77.27,258.862,7.309
77.3,260.828,7.366
77.34,263.144,7.48
77.37,265.53,7.492
77.4,267.636,7.572
77.43,269.777,7.732
77.47,272.198,7.79
77.5,274.339,7.79
77.53,276.375,7.824
77.56,278.375,7.87
77.6,280.411,7.95
77.63,282.481,7.996
77.66,284.482,8.042
77.69,286.412,8.088
77.73,288.272,8.088
77.76,289.816,8.088
77.79,291.466,8.133
77.82,293.045,8.156
77.86,294.624,8.237
77.89,296.133,8.294
77.92,297.783,8.328
77.95,299.117,8.351
77.99,300.591,8.454
78.02,301.959,8.477
78.05,303.749,8.489
78.08,304.24,8.271
78.12,306.136,8.775
78.15,307.855,8.443
78.18,308.557,8.718
78.21,310.382,8.683
78.25,310.979,8.706
78.28,312.383,8.763
78.31,313.33,8.66
78.34,314.207,8.729
78.38,315.05,8.718
78.41,315.787,8.763
78.44,316.594,8.786
78.47,317.296,8.775
78.51,317.822,8.844
78.54,318.559,8.89
78.57,319.156,8.867
78.6,319.858,8.867
78.64,320.419,8.844
78.67,320.981,8.878
78.7,321.507,8.878
78.73,322.069,8.878
78.77,322.56,8.89
78.8,322.981,8.878
78.83,323.508,8.901
78.86,323.894,8.924
78.9,324.315,8.993
78.93,324.701,9.027
78.96,325.157,9.038
78.99,325.613,9.027
79.03,325.999,9.05
79.06,326.421,8.981
79.09,326.807,8.878
79.12,326.596,8.763
79.16,326.982,8.993
79.19,327.719,8.901
79.22,327.719,8.993
79.25,328.14,9.107
79.29,328.316,9.073
79.32,328.702,9.05
79.35,328.912,8.935
79.38,329.123,8.89
79.42,329.263,8.855
79.45,329.404,8.89
79.48,329.544,8.912
79.51,329.72,8.878
79.55,329.755,8.912
79.58,330.0,8.821
79.61,330.035,8.729
79.65,330.07,8.729
79.68,330.211,8.683
79.71,330.246,8.706
79.74,330.246,8.683
79.78,330.281,8.729
79.81,330.246,8.729
79.84,330.281,8.741
79.87,330.351,8.66
79.91,330.351,8.58
79.94,330.281,8.511
79.97,330.211,8.489
80.0,330.176,8.5
80.04,330.106,8.397
80.07,329.86,8.397
80.1,329.684,8.385
80.13,329.509,8.34
80.17,329.228,8.271
80.2,328.912,8.179
80.23,328.421,8.111
80.26,327.754,8.053
80.3,327.052,7.973
80.33,325.999,7.893
80.36,324.771,7.778
80.39,322.736,7.629
80.43,321.402,7.687
80.46,320.068,7.412
80.49,317.542,7.309
80.52,315.19,7.251
80.56,312.698,7.148
80.59,310.207,7.102
80.62,307.61,7.045
80.65,305.048,6.988
80.69,302.486,6.908
80.72,299.713,6.759
80.75,296.66,6.69
80.78,293.571,6.679
80.82,290.413,6.621
80.85,287.289,6.518
80.88,284.026,6.461
80.91,280.867,6.404
80.95,277.849,6.335
80.98,274.831,6.232
81.01,271.812,6.117
81.04,268.759,6.049
81.08,265.811,6.003
81.11,262.758,5.957
81.14,259.599,5.888
81.17,256.335,5.819
81.21,253.142,5.693
81.24,249.878,5.579
81.27,246.649,5.476
81.3,243.42,5.384
81.34,240.157,5.327
81.37,236.998,5.292
81.4,233.734,5.224
81.43,230.47,5.178
81.47,227.242,5.098
81.5,223.978,4.949
81.53,220.644,4.823
81.56,217.345,4.685
81.6,213.835,4.559
81.63,210.326,4.456
81.66,206.676,4.353
81.69,202.85,4.296
81.73,199.095,4.227
81.76,195.375,4.101
81.79,191.69,3.987
81.82,187.9,3.849
81.86,184.074,3.735
81.89,180.038,3.643
81.92,175.932,3.574
81.95,171.791,3.494
81.99,167.615,3.368
82.02,163.438,3.242
82.05,159.052,3.093
82.09,154.735,2.967
82.12,150.313,2.852
82.15,145.821,2.772
82.18,141.434,2.715
82.22,136.977,2.6
82.25,132.449,2.52
82.28,127.957,2.429
82.31,123.395,2.325
82.35,118.903,2.234
82.38,114.41,2.131
82.41,109.953,2.051
82.44,105.461,1.97
82.48,100.969,1.89
82.51,96.442,1.787
82.54,91.844,1.673
82.57,87.352,1.592
82.61,82.895,1.478
82.64,78.473,1.386
82.67,74.016,1.272
82.7,69.524,1.191
82.74,65.067,1.111
82.77,60.574,1.031
82.8,56.047,0.962
82.83,51.52,0.894
82.87,47.098,0.813
82.9,42.606,0.687
82.93,38.113,0.596
82.96,33.621,0.493
83.0,29.129,0.412
83.03,24.532,0.367
83.06,20.039,0.321
83.09,15.652,0.218
83.13,11.16,0.126
83.16,6.773,0.092
83.19,2.351,0.011
83.22,-2.036,-0.023
83.26,-6.458,-0.137
83.29,-10.704,-0.286
83.32,-15.091,-0.63
83.35,-19.373,-0.894
83.39,-23.549,-1.398
83.42,-27.655,-1.753
83.45,-32.393,-2.234
83.48,-36.324,-2.073
83.52,-41.026,-2.623
83.55,-47.238,-2.36
83.58,-49.87,-2.177
83.61,-54.678,-2.635
83.65,-59.1,-2.291
83.68,-62.54,-2.497
83.71,-66.576,-2.52
83.74,-70.085,-2.509
83.78,-73.349,-2.589
83.81,-77.174,-2.715
83.84,-80.894,-2.738
83.87,-84.544,-2.875
83.91,-88.194,-2.967
83.94,-91.879,-3.162
83.97,-95.634,-3.253
84.0,-99.249,-3.334
84.04,-102.829,-3.425
84.07,-106.444,-3.505
84.1,-110.023,-3.574
84.13,-113.603,-3.666
84.17,-117.183,-3.769
84.2,-120.692,-3.872
84.23,-124.307,-3.987
84.26,-127.992,-4.044
84.3,-131.712,-4.135
84.33,-135.222,-4.181
84.36,-138.731,-4.319
84.4,-142.767,-4.433
84.43,-146.803,-4.525
84.46,-150.839,-4.605
84.49,-154.665,-4.708
84.53,-158.35,-4.823
84.56,-162.175,-4.937
84.59,-165.825,-4.995
84.62,-169.405,-5.109
84.66,-172.879,-5.178
84.69,-176.353,-5.27
84.72,-179.758,-5.338
84.75,-183.232,-5.464
84.79,-186.636,-5.51
84.82,-190.181,-5.636
84.85,-193.024,-5.487
84.88,-196.428,-5.842
84.92,-200.394,-5.648
84.95,-202.359,-5.739
84.98,-206.886,-6.255
85.01,-209.869,-5.797
85.05,-212.291,-6.278
85.08,-216.081,-6.255
85.11,-218.819,-6.209
85.14,-221.661,-6.323
85.18,-224.609,-6.369
85.21,-227.277,-6.392
85.24,-230.014,-6.495
85.27,-232.646,-6.53
85.31,-235.033,-6.644
85.34,-237.349,-6.69
85.37,-239.771,-6.759
85.4,-242.368,-6.85
85.44,-244.965,-6.931
85.47,-247.527,-7.08
85.5,-250.51,-7.217
85.53,-253.352,-7.263
85.57,-256.195,-7.377
85.6,-258.827,-7.366
85.63,-260.933,-7.4
85.66,-263.109,-7.435
85.7,-265.39,-7.423
85.73,-267.531,-7.446
85.76,-269.566,-7.538
85.79,-271.707,-7.629
85.83,-273.953,-7.71
85.86,-275.954,-7.744
85.89,-277.919,-7.79
85.92,-279.99,-7.847
85.96,-282.06,-7.881
85.99,-284.201,-7.95
86.02,-286.166,-8.019
86.05,-288.026,-8.065
86.09,-289.851,-8.111
86.12,-291.501,-8.168
86.15,-293.115,-8.214
86.18,-294.765,-8.225
86.22,-296.309,-8.237
86.25,-297.783,-8.259
86.28,-299.187,-8.282
86.31,-300.555,-8.328
86.35,-301.924,-8.363
86.38,-303.328,-8.408
86.41,-304.767,-8.42
86.44,-306.1,-8.454
86.48,-307.364,-8.511
86.51,-308.592,-8.569
86.54,-309.821,-8.626
86.57,-310.909,-8.683
86.61,-312.102,-8.752
86.64,-313.155,-8.763
86.67,-314.137,-8.798
86.71,-315.05,-8.786
86.74,-315.752,-8.775
86.77,-316.559,-8.741
86.8,-317.191,-8.729
86.84,-317.822,-8.763
86.87,-318.454,-8.821
86.9,-319.121,-8.821
86.93,-319.753,-8.798
86.97,-320.349,-8.786
87.0,-320.911,-8.798
87.03,-321.507,-8.809
87.06,-322.034,-8.775
87.1,-322.49,-8.809
87.13,-322.911,-8.867
87.16,-323.438,-8.901
87.19,-323.859,-8.924
87.23,-324.35,-8.947
87.26,-324.701,-8.958
87.29,-325.227,-8.958
87.32,-325.543,-8.912
87.36,-326.07,-8.924
87.39,-325.999,-8.867
87.42,-326.491,-9.073
87.45,-326.772,-8.832
87.49,-326.701,-8.935
87.52,-327.649,-8.958
87.55,-327.789,-8.867
87.58,-328.035,-8.993
87.62,-328.281,-8.947
87.65,-328.561,-9.004
87.68,-328.772,-8.958
87.71,-328.912,-8.993
87.75,-329.123,-8.947
87.78,-329.298,-8.935
87.81,-329.439,-8.878
87.84,-329.649,-8.878
87.88,-329.86,-8.832
87.91,-329.72,-8.832
87.94,-330.0,-8.867
87.97,-330.0,-8.798
88.01,-330.106,-8.809
88.04,-330.211,-8.695
88.07,-330.141,-8.683
88.1,-330.246,-8.615
88.14,-330.211,-8.569
88.17,-330.281,-8.546
88.2,-330.141,-8.523
88.23,-330.281,-8.489
88.27,-330.141,-8.431
88.3,-330.176,-8.431
88.33,-330.106,-8.294
88.36,-329.965,-8.317
88.4,-329.895,-8.259
88.43,-329.614,-8.294
88.46,-329.369,-8.294
88.49,-329.088,-8.248
88.53,-328.842,-8.214
88.56,-328.351,-8.145
88.59,-327.824,-8.053
88.62,-327.158,-7.927
88.66,-325.648,-7.71
88.69,-324.385,-7.778
88.72,-323.543,-7.641
88.75,-321.542,-7.469
88.79,-319.437,-7.423
88.82,-317.226,-7.286
88.85,-314.98,-7.24
88.88,-312.523,-7.091
88.92,-309.821,-7.022
88.95,-307.329,-6.999
88.98,-305.013,-6.942
89.02,-302.31,-6.839
89.05,-299.432,-6.793
89.08,-296.59,-6.701
89.11,-293.536,-6.633
89.15,-290.448,-6.53
89.18,-287.254,-6.415
89.21,-284.026,-6.358
89.24,-280.727,-6.301
89.28,-277.463,-6.255
89.31,-274.515,-6.175
89.34,-271.532,-6.094
89.37,-268.513,-6.094
89.41,-265.706,-5.991
89.44,-262.653,-5.911
89.47,-259.599,-5.831
89.5,-256.441,-5.705
89.54,-253.142,-5.579
89.57,-249.702,-5.567
89.6,-246.579,-5.499
89.63,-243.35,-5.361
89.67,-240.157,-5.27
89.7,-236.928,-5.166
89.73,-233.769,-5.086
89.76,-230.54,-4.995
89.8,-227.242,-4.903
89.83,-223.943,-4.823
89.86,-220.573,-4.743
89.89,-217.064,-4.674
89.93,-213.695,-4.571
89.96,-210.15,-4.422
89.99,-206.57,-4.319
90.02,-202.885,-4.261
90.06,-199.13,-4.193
90.09,-195.375,-4.124
90.12,-191.62,-4.032
90.15,-187.794,-3.906
90.19,-183.899,-3.78
90.22,-179.933,-3.666
90.25,-175.897,-3.551
90.28,-171.791,-3.402
90.32,-167.58,-3.276
90.35,-163.263,-3.196
90.38,-158.911,-3.093
90.41,-154.594,-2.967
90.45,-150.172,-2.852
90.48,-145.75,-2.761
90.51,-141.434,-2.623
90.54,-136.942,-2.555
90.58,-132.52,-2.474
90.61,-127.957,-2.394
90.64,-123.43,-2.325
90.67,-118.973,-2.234
90.71,-114.41,-2.142
90.74,-109.988,-2.005
90.77,-105.426,-1.89
90.8,-100.864,-1.799
90.84,-96.336,-1.73
90.87,-91.739,-1.661
90.9,-87.247,-1.581
90.93,-82.79,-1.455
90.97,-78.368,-1.363
91.0,-73.84,-1.226
91.03,-69.313,-1.134
91.06,-64.716,-1.031
91.1,-60.434,-0.962
91.13,-55.907,-0.825
91.16,-51.485,-0.848
91.19,-47.028,-0.687
91.23,-42.676,-0.687
91.26,-37.833,-0.481
91.29,-34.042,-0.733
91.32,-29.445,-0.149
91.36,-23.409,-0.344
91.39,-20.39,-0.504
91.42,-15.793,-0.069
91.46,-10.493,-0.172
91.49,-6.422,-0.218
91.52,-2.211,-0.103
91.55,2.386,-0.069
91.59,6.563,-0.023
91.62,10.774,0.218
91.65,15.161,0.47
91.68,19.373,0.802
91.72,23.338,1.226
91.75,27.69,1.673
91.78,32.042,2.005
91.81,36.499,2.28
91.85,41.237,2.417
91.88,45.729,2.451
91.91,50.116,2.463
91.94,54.433,2.44
91.98,58.469,2.44
92.01,62.399,2.474
92.04,66.225,2.509
92.07,69.98,2.589
92.11,73.595,2.692
92.14,77.245,2.795
92.17,80.894,2.91
92.2,84.509,3.001
92.24,88.229,3.093
92.27,91.879,3.15
92.3,95.599,3.242
92.33,99.179,3.356
92.37,102.794,3.482
92.4,106.303,3.563
92.43,109.953,3.631
92.46,113.498,3.677
92.5,117.218,3.78
92.53,120.798,3.872
92.56,124.448,4.021
92.59,128.027,4.113
92.63,131.853,4.307
92.66,135.503,4.353
92.69,139.258,4.491
92.72,142.416,4.399
92.76,146.979,4.846
92.79,151.576,4.571
92.82,154.454,4.811
92.85,159.087,5.029
92.89,162.596,4.903
92.92,166.035,5.155
92.95,169.931,5.132
92.98,173.265,5.132
93.02,176.704,5.247
93.05,180.284,5.361
93.08,183.759,5.441
93.11,187.128,5.544
93.15,190.356,5.67
93.18,193.866,5.762
93.21,197.235,5.762
93.24,200.464,5.842
93.28,203.693,5.923
93.31,206.886,6.003
93.34,210.115,6.071
93.37,213.203,6.117
93.41,216.257,6.186
93.44,219.205,6.255
93.47,222.223,6.289
93.5,225.031,6.369
93.54,227.803,6.461
93.57,230.505,6.541
93.6,233.102,6.644
93.63,235.559,6.667
93.67,237.805,6.736
93.7,240.297,6.862
93.73,242.929,6.919
93.77,245.631,6.999
93.8,248.579,7.091
93.83,251.492,7.206
93.86,253.984,7.263
93.9,256.441,7.4
93.93,258.827,7.435
93.96,261.038,7.446
93.99,263.249,7.503
94.03,265.636,7.538
94.06,267.812,7.572
94.09,269.987,7.652
94.12,272.269,7.732
94.16,274.445,7.767
94.19,276.305,7.801
94.22,278.2,7.927
94.25,280.341,7.996
94.29,282.446,7.985
94.32,284.377,8.03
94.35,286.237,8.099
94.38,288.097,8.133
94.42,289.781,8.202
94.45,291.36,8.282
94.48,293.01,8.305
94.51,294.589,8.328
94.55,296.204,8.34
94.58,297.678,8.363
94.61,299.222,8.454
94.64,300.626,8.466
94.68,302.029,8.569
94.71,303.223,8.511
94.74,303.925,8.637
94.77,306.592,8.855
94.81,307.82,8.489
94.84,308.838,8.786
94.87,310.382,8.569
94.9,311.084,8.706
94.94,312.453,8.729
94.97,313.365,8.741
95.0,314.278,8.798
95.03,315.12,8.821
95.07,316.032,8.832
95.1,316.734,8.809
95.13,317.331,8.809
95.16,317.963,8.832
95.2,318.629,8.89
95.23,319.191,8.901
95.26,319.893,8.935
95.29,320.419,8.97
95.33,321.016,8.981
95.36,321.577,8.924
95.39,322.069,8.924
95.42,322.595,8.935
95.46,323.016,8.924
95.49,323.508,8.97
95.52,323.894,8.981
95.55,324.385,9.027
95.59,324.841,9.027
95.62,325.262,9.027
95.65,325.684,9.038
95.68,326.07,9.038
95.72,326.35,9.05
95.75,326.807,9.027
95.78,326.561,8.924
95.81,326.982,9.153
95.85,327.754,9.05
95.88,327.824,9.061
95.91,328.246,9.05
95.94,328.491,8.993
95.98,328.737,8.993
96.01,328.912,8.97
96.04,329.123,8.981
96.08,329.228,9.004
96.11,329.474,8.97
96.14,329.614,8.912
96.17,329.79,8.878
96.21,329.895,8.832
96.24,329.93,8.867
96.27,330.07,8.844
96.3,330.141,8.832
96.34,330.211,8.821
96.37,330.246,8.821
96.4,330.281,8.775
96.43,330.351,8.752
96.47,330.351,8.718
96.5,330.316,8.672
96.53,330.386,8.66
96.56,330.351,8.592
96.6,330.281,8.58
96.63,330.246,8.569
96.66,330.211,8.511
96.69,330.106,8.454
96.73,329.93,8.466
96.76,329.825,8.397
96.79,329.509,8.351
96.82,329.228,8.305
96.86,328.842,8.259
96.89,328.351,8.225
96.92,327.684,8.179
96.95,326.947,8.065
96.99,325.964,8.019
97.02,324.561,7.824
97.05,322.665,7.79
97.08,321.753,7.744
97.12,319.963,7.48
97.15,317.506,7.469
97.18,315.26,7.309
97.21,312.663,7.206
97.25,310.136,7.102
97.28,307.504,7.034
97.31,305.013,7.022
97.34,302.521,6.931
97.38,299.608,6.839
97.41,296.625,6.782
97.44,293.571,6.713
97.47,290.448,6.644
97.51,287.289,6.564
97.54,284.061,6.484
97.57,280.762,6.427
97.6,277.673,6.335
97.64,274.515,6.266
97.67,271.567,6.232
97.7,268.654,6.175
97.73,265.776,6.071
97.77,262.828,5.98
97.8,259.74,5.865
97.83,256.511,5.774
97.86,253.142,5.728
97.9,249.948,5.625
97.93,246.719,5.522
97.96,243.456,5.43
97.99,240.227,5.327
98.03,237.103,5.212
98.06,233.839,5.098
98.09,230.47,5.04
98.12,227.171,5.018
98.16,223.837,4.937
98.19,220.468,4.869
98.22,216.994,4.811
98.25,213.66,4.674
98.29,210.22,4.525
98.32,206.781,4.376
98.35,203.061,4.273
98.39,199.376,4.204
98.42,195.726,4.101
98.45,191.866,4.009
98.48,188.04,3.918
98.52,184.074,3.803
98.55,180.074,3.677
98.58,176.038,3.551
98.61,171.931,3.391
98.65,167.615,3.288
98.68,163.368,3.23
98.71,158.946,3.127
98.74,154.524,3.082
98.78,150.208,2.99
98.81,145.821,2.841
98.84,141.469,2.726
98.87,136.977,2.612
98.91,132.52,2.509
98.94,128.062,2.417
98.97,123.57,2.314
99.0,119.043,2.234
99.04,114.516,2.154
99.07,110.059,2.028
99.1,105.566,1.936
99.13,101.074,1.81
99.17,96.477,1.695
99.2,91.774,1.65
99.23,87.282,1.592
99.26,82.755,1.535
99.3,78.368,1.443
99.33,73.981,1.306
99.36,69.489,1.203
99.39,65.067,1.123
99.43,60.574,1.008
99.46,56.082,0.951
99.49,51.555,0.859
99.52,47.168,0.779
99.56,42.5,0.687
99.59,38.113,0.607
99.62,33.516,0.447
99.65,29.129,0.401
99.69,24.461,0.241
99.72,19.934,0.321
99.75,15.231,0.126
99.78,11.371,0.401
99.82,6.984,-0.057
99.85,1.018,0.057
99.88,-1.895,0.252
99.91,-6.317,-0.286
99.95,-11.511,-0.309
99.98,-15.372,-0.481
100.01,-19.337,-0.928
100.04,-23.689,-1.375
100.08,-27.831,-1.776
100.11,-32.253,-2.073
100.14,-36.78,-2.257
100.17,-41.518,-2.417
100.21,-46.045,-2.394
100.24,-50.327,-2.429
100.27,-54.643,-2.417
100.3,-58.609,-2.44
100.34,-62.434,-2.474
100.37,-66.26,-2.52
100.4,-70.015,-2.566
100.43,-73.665,-2.681
100.47,-77.35,-2.772
100.5,-81.035,-2.887
100.53,-84.72,-2.956
100.56,-88.44,-3.036
100.6,-92.02,-3.116
100.63,-95.74,-3.23
100.66,-99.39,-3.311
100.69,-102.934,-3.425
100.73,-106.479,-3.517
100.76,-110.023,-3.597
100.79,-113.603,-3.677
100.83,-117.183,-3.792
100.86,-120.728,-3.883
100.89,-124.413,-3.975
100.92,-128.027,-4.055
100.96,-131.747,-4.193
100.99,-135.222,-4.261
101.02,-138.766,-4.433
101.05,-142.767,-4.536
101.09,-146.873,-4.628
101.12,-150.804,-4.674
101.15,-154.945,-4.823
101.18,-158.139,-4.674
101.22,-161.894,-5.121
101.25,-166.492,-4.949
101.28,-168.913,-4.96
101.31,-172.879,-5.338
101.35,-176.564,-5.144
101.38,-179.652,-5.327
101.41,-183.372,-5.418
101.44,-186.636,-5.418
101.48,-190.041,-5.579
101.51,-192.918,-5.556
101.54,-196.498,-5.877
101.57,-200.253,-5.739
101.61,-202.71,-5.877
101.64,-206.465,-6.117
101.67,-209.729,-5.991
101.7,-212.607,-6.106
101.74,-215.73,-6.163
101.77,-218.678,-6.255
101.8,-221.486,-6.369
101.83,-224.434,-6.438
101.87,-227.206,-6.484
101.9,-229.909,-6.541
101.93,-232.436,-6.575
101.96,-234.962,-6.656
102.0,-237.244,-6.747
102.03,-239.665,-6.839
102.06,-242.262,-6.919
102.09,-244.894,-6.988
102.13,-247.527,-7.102
102.16,-250.404,-7.16
102.19,-253.247,-7.206
102.22,-256.125,-7.286
102.26,-258.582,-7.309
102.29,-260.722,-7.423
102.32,-262.793,-7.469
102.35,-265.039,-7.526
102.39,-267.32,-7.561
102.42,-269.531,-7.584
102.45,-271.672,-7.618
102.48,-273.988,-7.687
102.52,-276.059,-7.732
102.55,-277.919,-7.847
102.58,-279.99,-7.939
102.61,-282.13,-7.973
102.65,-284.166,-7.996
102.68,-286.096,-8.053
102.71,-288.097,-8.088
102.74,-289.922,-8.088
102.78,-291.501,-8.122
102.81,-293.08,-8.202
102.84,-294.554,-8.259
102.87,-296.133,-8.317
102.91,-297.678,-8.305
102.94,-298.976,-8.294
102.97,-300.064,-8.363
103.0,-301.608,-8.454
103.04,-303.188,-8.477
103.07,-304.662,-8.569
103.1,-305.96,-8.569
103.14,-307.048,-8.672
103.17,-308.347,-8.626
103.2,-308.908,-8.649
103.23,-310.944,-8.855
103.27,-312.137,-8.603
103.3,-313.049,-8.798
103.33,-314.207,-8.741
103.36,-315.015,-8.763
103.4,-315.822,-8.763
103.43,-316.629,-8.741
103.46,-317.261,-8.718
103.49,-317.928,-8.775
103.53,-318.559,-8.763
103.56,-319.156,-8.798
103.59,-319.717,-8.821
103.62,-320.314,-8.867
103.66,-320.981,-8.867
103.69,-321.472,-8.855
103.72,-321.999,-8.867
103.75,-322.49,-8.912
103.79,-322.946,-8.924
103.82,-323.438,-8.935
103.85,-323.859,-8.935
103.88,-324.28,-8.993
103.92,-324.701,-9.038
103.95,-325.087,-9.061
103.98,-325.543,-9.061
104.01,-325.929,-9.084
104.05,-326.28,-9.05
104.08,-326.772,-9.027
104.11,-326.631,-8.912
104.14,-326.666,-9.084
104.18,-327.649,-9.084
104.21,-327.859,-8.947
104.24,-328.14,-9.004
104.27,-328.386,-8.947
104.31,-328.632,-8.958
104.34,-328.842,-8.901
104.37,-328.983,-8.924
104.4,-329.088,-8.981
104.44,-329.333,-8.958
104.47,-329.439,-8.935
104.5,-329.649,-8.912
104.53,-329.755,-8.832
104.57,-329.895,-8.798
104.6,-329.93,-8.741
104.63,-329.965,-8.752
104.66,-330.07,-8.729
104.7,-330.07,-8.752
104.73,-330.07,-8.798
104.76,-330.141,-8.775
104.79,-330.176,-8.752
104.83,-330.211,-8.683
104.86,-330.176,-8.626
104.89,-330.176,-8.615
104.92,-330.141,-8.569
104.96,-330.035,-8.569
104.99,-330.07,-8.5
105.02,-329.965,-8.431
105.05,-329.79,-8.397
105.09,-329.649,-8.363
105.12,-329.439,-8.317
105.15,-329.123,-8.282
105.18,-328.807,-8.214
105.22,-328.351,-8.145
105.25,-327.684,-8.076
105.28,-327.052,-8.019
105.31,-325.754,-7.801
105.35,-324.139,-7.813
105.38,-323.543,-7.79
105.41,-321.893,-7.469
105.45,-319.366,-7.458
105.48,-317.12,-7.4
105.51,-315.015,-7.297
105.54,-312.733,-7.137
105.58,-309.996,-7.034
105.61,-307.469,-7.011
105.64,-305.153,-6.931
105.67,-302.486,-6.828
105.71,-299.713,-6.759
105.74,-296.835,-6.679
105.77,-293.712,-6.633
105.8,-290.588,-6.564
105.84,-287.36,-6.472
105.87,-284.096,-6.392
105.9,-280.867,-6.278
105.93,-277.638,-6.197
105.97,-274.585,-6.14
106.0,-271.497,-6.117
106.03,-268.513,-6.106
106.06,-265.636,-6.037
106.1,-262.688,-5.957
106.13,-259.599,-5.842
106.16,-256.441,-5.716
106.19,-253.212,-5.625
106.23,-249.913,-5.579
106.26,-246.684,-5.476
106.29,-243.385,-5.418
106.32,-240.157,-5.384
106.36,-236.963,-5.315
106.39,-233.804,-5.201
106.42,-230.505,-5.132
106.45,-227.277,-4.995
106.49,-223.907,-4.892
106.52,-220.503,-4.823
106.55,-217.169,-4.708
106.58,-213.589,-4.617
106.62,-210.15,-4.479
106.65,-206.535,-4.376
106.68,-202.885,-4.273
106.71,-199.2,-4.158
106.75,-195.48,-4.032
106.78,-191.69,-3.952
106.81,-187.865,-3.861
106.84,-183.899,-3.769
106.88,-179.933,-3.689
106.91,-175.897,-3.574
106.94,-171.721,-3.471
106.97,-167.58,-3.345
107.01,-163.333,-3.208
107.04,-158.981,-3.093
107.07,-154.594,-2.99
107.1,-150.172,-2.898
107.14,-145.715,-2.795
107.17,-141.328,-2.658
107.2,-136.766,-2.543
107.23,-132.239,-2.463
107.27,-127.747,-2.394
107.3,-123.289,-2.291
107.33,-118.727,-2.222
107.36,-114.235,-2.165
107.4,-109.778,-2.051
107.43,-105.356,-1.936
107.46,-100.899,-1.821
107.49,-96.407,-1.684
107.53,-91.879,-1.546
107.56,-87.387,-1.443
107.59,-82.79,-1.386
107.62,-78.227,-1.398
107.66,-73.7,-1.375
107.69,-69.313,-1.237
107.72,-64.821,-1.146
107.76,-60.469,-1.031
107.79,-56.047,-0.928
107.82,-51.555,-0.848
107.85,-47.028,-0.79
107.89,-42.5,-0.733
107.92,-38.008,-0.653
107.95,-33.411,-0.55
107.98,-28.989,-0.458
108.02,-24.426,-0.355
108.05,-19.969,-0.309
108.08,-15.407,-0.206
108.11,-10.95,-0.241
108.15,-6.387,-0.149
108.18,-2.071,-0.229
108.21,2.527,-0.046
108.24,6.177,-0.241
108.28,10.493,0.389
108.31,16.284,0.458
108.34,19.092,0.538
108.37,23.268,1.386
108.41,28.357,1.673
108.44,32.358,1.936
108.47,36.534,2.234
108.5,41.483,2.406
108.54,45.869,2.337
108.57,50.151,2.429
108.6,54.362,2.463
108.63,58.434,2.474
108.67,62.259,2.463
108.7,66.19,2.532
108.73,69.945,2.555
108.76,73.595,2.646
108.8,77.209,2.738
108.83,80.894,2.852
108.86,84.615,2.944
108.89,88.405,3.013
108.93,92.055,3.093
108.96,95.74,3.208
108.99,99.284,3.299
109.02,102.864,3.402
109.06,106.444,3.517
109.09,110.059,3.597
109.12,113.603,3.712
109.15,117.253,3.792
109.19,120.833,3.872
109.22,124.553,3.975
109.25,128.168,4.078
109.28,131.923,4.25
109.32,135.713,4.296
109.35,139.223,4.376
109.38,143.013,4.525
109.41,147.154,4.548
109.45,151.19,4.628
109.48,155.086,4.731
109.51,158.736,4.823
109.54,162.421,4.972
109.58,166.141,5.052
109.61,169.791,5.075
109.64,173.09,5.189
109.67,176.95,5.224
109.71,179.617,5.212
109.74,184.004,5.648
109.77,187.514,5.292
109.8,190.216,5.659
109.84,194.463,5.739
109.87,197.34,5.682
109.9,200.499,5.888
109.93,203.798,5.888
109.97,206.781,5.911
110.0,209.834,6.037
110.03,213.028,6.083
110.06,215.906,6.197
110.1,219.029,6.278
110.13,221.907,6.346
110.16,224.89,6.449
110.2,227.803,6.53
110.23,230.505,6.61
110.26,233.348,6.644
110.29,235.77,6.633
110.33,238.051,6.724
110.36,240.543,6.782
110.39,242.894,6.885
110.42,245.526,7.045
110.46,248.369,7.183
110.49,251.247,7.251
110.52,253.914,7.24
110.55,256.265,7.297
110.59,258.687,7.332
110.62,260.863,7.389
110.65,263.074,7.503
110.68,265.425,7.538
110.72,267.601,7.595
110.75,269.812,7.698
110.78,272.163,7.721
110.81,274.269,7.721
110.85,276.27,7.778
110.88,278.235,7.847
110.91,280.341,7.95
110.94,282.376,8.019
110.98,284.306,8.053
111.01,286.307,8.076
111.04,288.167,8.088
111.07,289.816,8.122
111.11,291.501,8.156
111.14,293.045,8.179
111.17,294.659,8.225
111.2,296.169,8.259
111.24,297.643,8.351
111.27,299.081,8.408
111.3,300.591,8.397
111.33,301.924,8.454
111.37,303.574,8.466
111.4,303.995,8.385
111.43,306.241,8.786
111.46,307.539,8.42
111.5,308.417,8.832
111.53,310.172,8.683
111.56,310.838,8.798
111.59,312.418,8.741
111.63,313.26,8.66
111.66,314.278,8.763
111.69,315.12,8.786
111.72,315.962,8.821
111.76,316.594,8.855
111.79,317.296,8.867
111.82,317.822,8.821
111.85,318.629,8.855
111.89,318.84,8.752
111.92,319.507,8.924
111.95,320.384,8.844
111.98,320.735,8.912
112.02,321.402,8.97
112.05,321.928,8.947
112.08,322.455,8.947
112.11,322.946,8.878
112.15,323.438,8.901
112.18,323.824,8.912
112.21,324.315,8.97
112.24,324.701,9.004
112.28,325.157,9.027
112.31,325.473,9.061
112.34,325.999,9.084
112.37,326.245,9.027
112.41,326.666,9.05
112.44,326.491,8.947
112.47,326.982,9.119
112.51,327.684,8.993
112.54,327.789,8.981
112.57,328.21,8.924
112.6,328.386,8.901
112.64,328.702,8.901
112.67,328.842,8.878
112.7,329.053,8.947
112.73,329.193,8.981
112.77,329.404,8.981
112.8,329.579,8.947
112.83,329.684,8.912
112.86,329.825,8.855
112.9,329.965,8.832
112.93,330.07,8.786
112.96,330.106,8.786
112.99,330.211,8.741
113.03,330.246,8.718
113.06,330.281,8.729
113.09,330.281,8.683
113.12,330.316,8.706
113.16,330.351,8.615
113.19,330.316,8.58
113.22,330.281,8.592
113.25,330.281,8.557
113.29,330.246,8.523
113.32,330.141,8.489
113.35,329.965,8.489
113.38,329.93,8.443
113.42,329.825,8.34
113.45,329.579,8.237
113.48,329.228,8.133
113.51,328.772,8.122
113.55,328.351,8.111
113.58,327.754,8.03
113.61,326.912,7.985
113.64,325.859,7.962
113.68,324.631,7.824
113.71,322.771,7.629
113.74,321.507,7.675
113.77,319.928,7.435
113.81,317.296,7.389
113.84,315.12,7.32
113.87,312.733,7.206
113.9,310.312,7.171
113.94,307.855,7.034
113.97,305.258,6.908
114.0,302.591,6.805
114.03,299.748,6.736
114.07,296.765,6.679
114.1,293.677,6.656
114.13,290.518,6.575
114.16,287.325,6.518
114.2,284.166,6.438
114.23,281.007,6.335
114.26,278.059,6.232
114.29,275.006,6.175
114.33,271.883,6.163
114.36,268.829,6.094
114.39,265.776,6.026
114.42,262.547,5.991
114.46,259.459,5.934
114.49,256.265,5.842
114.52,253.177,5.716
114.55,249.983,5.579
114.59,246.754,5.522
114.62,243.631,5.453
114.65,240.472,5.35
114.68,237.244,5.258
114.72,233.945,5.178
114.75,230.681,5.063
114.78,227.417,4.937
114.82,224.013,4.834
114.85,220.538,4.777
114.88,217.134,4.697
114.91,213.625,4.605
114.95,210.045,4.525
114.98,206.43,4.422
115.01,202.85,4.307
115.04,199.236,4.204
115.08,195.656,4.124
115.11,191.901,3.998
115.14,188.005,3.895
115.17,184.145,3.792
115.21,180.038,3.723
115.24,176.038,3.654
115.27,172.037,3.482
115.3,167.86,3.322
115.34,163.614,3.173
115.37,159.192,3.059
115.4,154.77,2.99
115.43,150.348,2.91
115.47,145.856,2.83
115.5,141.504,2.749
115.53,137.082,2.612
115.56,132.625,2.497
115.6,128.098,2.36
115.63,123.535,2.28
115.66,119.043,2.199
115.69,114.516,2.085
115.73,109.988,1.993
115.76,105.391,1.936
115.79,100.864,1.867
115.82,96.301,1.776
115.86,91.844,1.673
115.89,87.352,1.604
115.92,82.86,1.535
115.95,78.508,1.432
115.99,74.086,1.294
116.02,69.559,1.226
116.05,65.242,1.134
116.08,60.785,1.065
116.12,56.293,0.916
116.15,51.73,0.859
116.18,47.308,0.687
116.21,42.535,0.676
116.25,38.921,0.687
116.28,32.99,0.218
116.31,28.427,0.71
116.34,25.163,0.309
116.38,19.759,0.137
116.41,15.021,0.218
116.44,11.125,0.183
116.47,6.668,-0.023
116.51,2.0,0.046
116.54,-2.141,0.0
116.57,-6.563,-0.137
